,SSD_1,SSD_2,SSD_3,SS_delay,SS_duration,SS_stimulus,SS_trial_type,att_check_percent,block_duration,correct,correct_response,correct_trial,current_block,current_trial,delay,exp_id,final_accuracy,final_avg_rt,final_credit_var,final_missed_percent,final_responses_ok,internal_node_id,key_press,n_back_condition,possible_responses,probe,responses,rt,stim_duration,stimulus,stop_acc,stop_signal_condition,text,time_elapsed,timing_post_trial,trial_id,trial_index,trial_type,view_history
0,,,,,,,,,2021.0,,,,,,,stop_signal_with_n_back,,,,,,0.0-0.0-0.0,13.0,,[13],,,2021,2021.0,"<div class = bigbox><div class = picture_box><p class = block-text><font color=""white"">Welcome to the experiment. This experiment will take about 10 minutes. Press <i>enter</i> to begin.</font></p></div></div>",,,,2023,0.0,practice-no-stop-feedback,0,poldrack-single-stim,
1,,,,,,,,,,,,,,,,stop_signal_with_n_back,,,,,,0.0-0.0-1.0,,,,,,25548,,,,,,27573,,instruction,1,poldrack-instructions,"[{""page_index"":0,""viewing_time"":18308},{""page_index"":1,""viewing_time"":4175},{""page_index"":2,""viewing_time"":3064}]"
2,350.0,350.0,350.0,350.0,500.0,<div class = bigbox><div class = starbox><img class = center src='/static/experiments/stop_signal_with_n_back/images/stopSignal.png'></img></div></div>,go,,2000.0,,90.0,1.0,0.0,1.0,1.0,stop_signal_with_n_back,,,,,,0.0-0.0-2.0,90.0,N/A,"[77, 90]",G,,874,1000.0,<div class = bigbox><div class = centerbox><div class = gng_number><div class = cue-text><img class = center src='/static/experiments/stop_signal_with_n_back/images/uppercase_G.png'></img></div></div></div></div>,,go,,30583,0.0,practice_trial,2,stop-signal,
3,,,,,,,,,500.0,,,,,,,stop_signal_with_n_back,,,,,,0.0-0.0-3.0,-1.0,,none,,,-1,500.0,"<div class = fb_box><div class = center-text><font size = 20>Correct!</font></div></div><div class = prompt_box><p class = center-block-text style = ""font-size:16px; line-height:80%%;"">Match the current letter to the letter that appeared 1 trial ago</p><p class = center-block-text style = ""font-size:16px; line-height:80%%;"">If they match, press the M Key</p><p class = center-block-text style = ""font-size:16px; line-height:80%%;"">If they mismatch, press the Z Key</p><p class = center-block-text style = ""font-size:16px; line-height:80%%;"">Do not respond if you see a star!</p></div>",,,,31095,0.0,practice-stop-feedback,3,poldrack-single-stim,
4,350.0,350.0,350.0,350.0,500.0,<div class = bigbox><div class = starbox><img class = center src='/static/experiments/stop_signal_with_n_back/images/stopSignal.png'></img></div></div>,go,,2000.0,,77.0,1.0,0.0,2.0,1.0,stop_signal_with_n_back,,,,,,0.0-0.0-4.0,77.0,match,"[77, 90]",g,,892,1000.0,<div class = bigbox><div class = centerbox><div class = gng_number><div class = cue-text><img class = center src='/static/experiments/stop_signal_with_n_back/images/lowercase_G.png'></img></div></div></div></div>,,go,,33099,0.0,practice_trial,4,stop-signal,
5,,,,,,,,,500.0,,,,,,,stop_signal_with_n_back,,,,,,0.0-0.0-5.0,-1.0,,none,,,-1,500.0,"<div class = fb_box><div class = center-text><font size = 20>Correct!</font></div></div><div class = prompt_box><p class = center-block-text style = ""font-size:16px; line-height:80%%;"">Match the current letter to the letter that appeared 1 trial ago</p><p class = center-block-text style = ""font-size:16px; line-height:80%%;"">If they match, press the M Key</p><p class = center-block-text style = ""font-size:16px; line-height:80%%;"">If they mismatch, press the Z Key</p><p class = center-block-text style = ""font-size:16px; line-height:80%%;"">Do not respond if you see a star!</p></div>",,,,33605,0.0,practice-stop-feedback,5,poldrack-single-stim,
6,350.0,350.0,350.0,350.0,500.0,<div class = bigbox><div class = starbox><img class = center src='/static/experiments/stop_signal_with_n_back/images/stopSignal.png'></img></div></div>,go,,2000.0,,90.0,1.0,0.0,3.0,1.0,stop_signal_with_n_back,,,,,,0.0-0.0-6.0,90.0,mismatch,"[77, 90]",D,,780,1000.0,<div class = bigbox><div class = centerbox><div class = gng_number><div class = cue-text><img class = center src='/static/experiments/stop_signal_with_n_back/images/uppercase_D.png'></img></div></div></div></div>,,go,,35611,0.0,practice_trial,6,stop-signal,
7,,,,,,,,,500.0,,,,,,,stop_signal_with_n_back,,,,,,0.0-0.0-7.0,-1.0,,none,,,-1,500.0,"<div class = fb_box><div class = center-text><font size = 20>Correct!</font></div></div><div class = prompt_box><p class = center-block-text style = ""font-size:16px; line-height:80%%;"">Match the current letter to the letter that appeared 1 trial ago</p><p class = center-block-text style = ""font-size:16px; line-height:80%%;"">If they match, press the M Key</p><p class = center-block-text style = ""font-size:16px; line-height:80%%;"">If they mismatch, press the Z Key</p><p class = center-block-text style = ""font-size:16px; line-height:80%%;"">Do not respond if you see a star!</p></div>",,,,36119,0.0,practice-stop-feedback,7,poldrack-single-stim,
8,350.0,350.0,350.0,350.0,500.0,<div class = bigbox><div class = starbox><img class = center src='/static/experiments/stop_signal_with_n_back/images/stopSignal.png'></img></div></div>,go,,2000.0,,77.0,1.0,0.0,4.0,1.0,stop_signal_with_n_back,,,,,,0.0-0.0-8.0,77.0,match,"[77, 90]",D,,753,1000.0,<div class = bigbox><div class = centerbox><div class = gng_number><div class = cue-text><img class = center src='/static/experiments/stop_signal_with_n_back/images/uppercase_D.png'></img></div></div></div></div>,,go,,38126,0.0,practice_trial,8,stop-signal,
9,,,,,,,,,500.0,,,,,,,stop_signal_with_n_back,,,,,,0.0-0.0-9.0,-1.0,,none,,,-1,500.0,"<div class = fb_box><div class = center-text><font size = 20>Correct!</font></div></div><div class = prompt_box><p class = center-block-text style = ""font-size:16px; line-height:80%%;"">Match the current letter to the letter that appeared 1 trial ago</p><p class = center-block-text style = ""font-size:16px; line-height:80%%;"">If they match, press the M Key</p><p class = center-block-text style = ""font-size:16px; line-height:80%%;"">If they mismatch, press the Z Key</p><p class = center-block-text style = ""font-size:16px; line-height:80%%;"">Do not respond if you see a star!</p></div>",,,,38638,0.0,practice-stop-feedback,9,poldrack-single-stim,
10,350.0,350.0,350.0,350.0,500.0,<div class = bigbox><div class = starbox><img class = center src='/static/experiments/stop_signal_with_n_back/images/stopSignal.png'></img></div></div>,go,,2000.0,,90.0,1.0,0.0,5.0,1.0,stop_signal_with_n_back,,,,,,0.0-0.0-10.0,90.0,mismatch,"[77, 90]",T,,595,1000.0,<div class = bigbox><div class = centerbox><div class = gng_number><div class = cue-text><img class = center src='/static/experiments/stop_signal_with_n_back/images/uppercase_T.png'></img></div></div></div></div>,,go,,40655,0.0,practice_trial,10,stop-signal,
11,,,,,,,,,500.0,,,,,,,stop_signal_with_n_back,,,,,,0.0-0.0-11.0,-1.0,,none,,,-1,500.0,"<div class = fb_box><div class = center-text><font size = 20>Correct!</font></div></div><div class = prompt_box><p class = center-block-text style = ""font-size:16px; line-height:80%%;"">Match the current letter to the letter that appeared 1 trial ago</p><p class = center-block-text style = ""font-size:16px; line-height:80%%;"">If they match, press the M Key</p><p class = center-block-text style = ""font-size:16px; line-height:80%%;"">If they mismatch, press the Z Key</p><p class = center-block-text style = ""font-size:16px; line-height:80%%;"">Do not respond if you see a star!</p></div>",,,,41161,0.0,practice-stop-feedback,11,poldrack-single-stim,
12,350.0,350.0,350.0,350.0,500.0,<div class = bigbox><div class = starbox><img class = center src='/static/experiments/stop_signal_with_n_back/images/stopSignal.png'></img></div></div>,go,,2000.0,,77.0,1.0,0.0,6.0,1.0,stop_signal_with_n_back,,,,,,0.0-0.0-12.0,77.0,match,"[77, 90]",T,,595,1000.0,<div class = bigbox><div class = centerbox><div class = gng_number><div class = cue-text><img class = center src='/static/experiments/stop_signal_with_n_back/images/uppercase_T.png'></img></div></div></div></div>,,go,,43172,0.0,practice_trial,12,stop-signal,
13,,,,,,,,,500.0,,,,,,,stop_signal_with_n_back,,,,,,0.0-0.0-13.0,-1.0,,none,,,-1,500.0,"<div class = fb_box><div class = center-text><font size = 20>Correct!</font></div></div><div class = prompt_box><p class = center-block-text style = ""font-size:16px; line-height:80%%;"">Match the current letter to the letter that appeared 1 trial ago</p><p class = center-block-text style = ""font-size:16px; line-height:80%%;"">If they match, press the M Key</p><p class = center-block-text style = ""font-size:16px; line-height:80%%;"">If they mismatch, press the Z Key</p><p class = center-block-text style = ""font-size:16px; line-height:80%%;"">Do not respond if you see a star!</p></div>",,,,43675,0.0,practice-stop-feedback,13,poldrack-single-stim,
14,350.0,350.0,350.0,350.0,500.0,<div class = bigbox><div class = starbox><img class = center src='/static/experiments/stop_signal_with_n_back/images/stopSignal.png'></img></div></div>,stop,,2000.0,,-1.0,0.0,0.0,7.0,1.0,stop_signal_with_n_back,,,,,,0.0-0.0-14.0,90.0,mismatch,"[77, 90]",B,,631,1000.0,<div class = bigbox><div class = centerbox><div class = gng_number><div class = cue-text><img class = center src='/static/experiments/stop_signal_with_n_back/images/uppercase_B.png'></img></div></div></div></div>,0.0,stop,,45684,0.0,practice_trial,14,stop-signal,
15,,,,,,,,,500.0,,,,,,,stop_signal_with_n_back,,,,,,0.0-0.0-15.0,-1.0,,none,,,-1,500.0,"<div class = fb_box><div class = center-text><font size = 20>There was a star.</font></div></div><div class = prompt_box><p class = center-block-text style = ""font-size:16px; line-height:80%%;"">Match the current letter to the letter that appeared 1 trial ago</p><p class = center-block-text style = ""font-size:16px; line-height:80%%;"">If they match, press the M Key</p><p class = center-block-text style = ""font-size:16px; line-height:80%%;"">If they mismatch, press the Z Key</p><p class = center-block-text style = ""font-size:16px; line-height:80%%;"">Do not respond if you see a star!</p></div>",,,,46192,0.0,practice-stop-feedback,15,poldrack-single-stim,
16,300.0,350.0,350.0,300.0,500.0,<div class = bigbox><div class = starbox><img class = center src='/static/experiments/stop_signal_with_n_back/images/stopSignal.png'></img></div></div>,stop,,2000.0,,-1.0,1.0,0.0,8.0,1.0,stop_signal_with_n_back,,,,,,0.0-0.0-16.0,-1.0,mismatch,"[77, 90]",G,,-1,1000.0,<div class = bigbox><div class = centerbox><div class = gng_number><div class = cue-text><img class = center src='/static/experiments/stop_signal_with_n_back/images/uppercase_G.png'></img></div></div></div></div>,1.0,stop,,48205,0.0,practice_trial,16,stop-signal,
17,,,,,,,,,500.0,,,,,,,stop_signal_with_n_back,,,,,,0.0-0.0-17.0,-1.0,,none,,,-1,500.0,"<div class = fb_box><div class = center-text><font size = 20>Correct!</font></div></div><div class = prompt_box><p class = center-block-text style = ""font-size:16px; line-height:80%%;"">Match the current letter to the letter that appeared 1 trial ago</p><p class = center-block-text style = ""font-size:16px; line-height:80%%;"">If they match, press the M Key</p><p class = center-block-text style = ""font-size:16px; line-height:80%%;"">If they mismatch, press the Z Key</p><p class = center-block-text style = ""font-size:16px; line-height:80%%;"">Do not respond if you see a star!</p></div>",,,,48712,0.0,practice-stop-feedback,17,poldrack-single-stim,
18,350.0,350.0,350.0,350.0,500.0,<div class = bigbox><div class = starbox><img class = center src='/static/experiments/stop_signal_with_n_back/images/stopSignal.png'></img></div></div>,go,,2000.0,,77.0,1.0,0.0,9.0,1.0,stop_signal_with_n_back,,,,,,0.0-0.0-18.0,77.0,match,"[77, 90]",G,,642,1000.0,<div class = bigbox><div class = centerbox><div class = gng_number><div class = cue-text><img class = center src='/static/experiments/stop_signal_with_n_back/images/uppercase_G.png'></img></div></div></div></div>,,go,,50717,0.0,practice_trial,18,stop-signal,
19,,,,,,,,,500.0,,,,,,,stop_signal_with_n_back,,,,,,0.0-0.0-19.0,-1.0,,none,,,-1,500.0,"<div class = fb_box><div class = center-text><font size = 20>Correct!</font></div></div><div class = prompt_box><p class = center-block-text style = ""font-size:16px; line-height:80%%;"">Match the current letter to the letter that appeared 1 trial ago</p><p class = center-block-text style = ""font-size:16px; line-height:80%%;"">If they match, press the M Key</p><p class = center-block-text style = ""font-size:16px; line-height:80%%;"">If they mismatch, press the Z Key</p><p class = center-block-text style = ""font-size:16px; line-height:80%%;"">Do not respond if you see a star!</p></div>",,,,51225,0.0,practice-stop-feedback,19,poldrack-single-stim,
20,350.0,350.0,350.0,350.0,500.0,<div class = bigbox><div class = starbox><img class = center src='/static/experiments/stop_signal_with_n_back/images/stopSignal.png'></img></div></div>,go,,2000.0,,90.0,1.0,0.0,10.0,1.0,stop_signal_with_n_back,,,,,,0.0-0.0-20.0,90.0,mismatch,"[77, 90]",d,,625,1000.0,<div class = bigbox><div class = centerbox><div class = gng_number><div class = cue-text><img class = center src='/static/experiments/stop_signal_with_n_back/images/lowercase_D.png'></img></div></div></div></div>,,go,,53231,0.0,practice_trial,20,stop-signal,
21,,,,,,,,,500.0,,,,,,,stop_signal_with_n_back,,,,,,0.0-0.0-21.0,-1.0,,none,,,-1,500.0,"<div class = fb_box><div class = center-text><font size = 20>Correct!</font></div></div><div class = prompt_box><p class = center-block-text style = ""font-size:16px; line-height:80%%;"">Match the current letter to the letter that appeared 1 trial ago</p><p class = center-block-text style = ""font-size:16px; line-height:80%%;"">If they match, press the M Key</p><p class = center-block-text style = ""font-size:16px; line-height:80%%;"">If they mismatch, press the Z Key</p><p class = center-block-text style = ""font-size:16px; line-height:80%%;"">Do not respond if you see a star!</p></div>",,,,53737,0.0,practice-stop-feedback,21,poldrack-single-stim,
22,350.0,350.0,350.0,350.0,500.0,<div class = bigbox><div class = starbox><img class = center src='/static/experiments/stop_signal_with_n_back/images/stopSignal.png'></img></div></div>,stop,,2000.0,,-1.0,1.0,0.0,11.0,1.0,stop_signal_with_n_back,,,,,,0.0-0.0-22.0,-1.0,match,"[77, 90]",d,,-1,1000.0,<div class = bigbox><div class = centerbox><div class = gng_number><div class = cue-text><img class = center src='/static/experiments/stop_signal_with_n_back/images/lowercase_D.png'></img></div></div></div></div>,1.0,stop,,55745,0.0,practice_trial,22,stop-signal,
23,,,,,,,,,500.0,,,,,,,stop_signal_with_n_back,,,,,,0.0-0.0-23.0,-1.0,,none,,,-1,500.0,"<div class = fb_box><div class = center-text><font size = 20>Correct!</font></div></div><div class = prompt_box><p class = center-block-text style = ""font-size:16px; line-height:80%%;"">Match the current letter to the letter that appeared 1 trial ago</p><p class = center-block-text style = ""font-size:16px; line-height:80%%;"">If they match, press the M Key</p><p class = center-block-text style = ""font-size:16px; line-height:80%%;"">If they mismatch, press the Z Key</p><p class = center-block-text style = ""font-size:16px; line-height:80%%;"">Do not respond if you see a star!</p></div>",,,,56256,0.0,practice-stop-feedback,23,poldrack-single-stim,
24,400.0,350.0,350.0,400.0,500.0,<div class = bigbox><div class = starbox><img class = center src='/static/experiments/stop_signal_with_n_back/images/stopSignal.png'></img></div></div>,stop,,2000.0,,-1.0,1.0,0.0,12.0,1.0,stop_signal_with_n_back,,,,,,0.0-0.0-24.0,-1.0,mismatch,"[77, 90]",V,,-1,1000.0,<div class = bigbox><div class = centerbox><div class = gng_number><div class = cue-text><img class = center src='/static/experiments/stop_signal_with_n_back/images/uppercase_V.png'></img></div></div></div></div>,1.0,stop,,58262,0.0,practice_trial,24,stop-signal,
25,,,,,,,,,500.0,,,,,,,stop_signal_with_n_back,,,,,,0.0-0.0-25.0,-1.0,,none,,,-1,500.0,"<div class = fb_box><div class = center-text><font size = 20>Correct!</font></div></div><div class = prompt_box><p class = center-block-text style = ""font-size:16px; line-height:80%%;"">Match the current letter to the letter that appeared 1 trial ago</p><p class = center-block-text style = ""font-size:16px; line-height:80%%;"">If they match, press the M Key</p><p class = center-block-text style = ""font-size:16px; line-height:80%%;"">If they mismatch, press the Z Key</p><p class = center-block-text style = ""font-size:16px; line-height:80%%;"">Do not respond if you see a star!</p></div>",,,,58769,0.0,practice-stop-feedback,25,poldrack-single-stim,
26,450.0,350.0,350.0,450.0,500.0,<div class = bigbox><div class = starbox><img class = center src='/static/experiments/stop_signal_with_n_back/images/stopSignal.png'></img></div></div>,go,,2000.0,,90.0,1.0,0.0,13.0,1.0,stop_signal_with_n_back,,,,,,0.0-0.0-26.0,90.0,mismatch,"[77, 90]",T,,744,1000.0,<div class = bigbox><div class = centerbox><div class = gng_number><div class = cue-text><img class = center src='/static/experiments/stop_signal_with_n_back/images/uppercase_T.png'></img></div></div></div></div>,,go,,60777,0.0,practice_trial,26,stop-signal,
27,,,,,,,,,500.0,,,,,,,stop_signal_with_n_back,,,,,,0.0-0.0-27.0,-1.0,,none,,,-1,500.0,"<div class = fb_box><div class = center-text><font size = 20>Correct!</font></div></div><div class = prompt_box><p class = center-block-text style = ""font-size:16px; line-height:80%%;"">Match the current letter to the letter that appeared 1 trial ago</p><p class = center-block-text style = ""font-size:16px; line-height:80%%;"">If they match, press the M Key</p><p class = center-block-text style = ""font-size:16px; line-height:80%%;"">If they mismatch, press the Z Key</p><p class = center-block-text style = ""font-size:16px; line-height:80%%;"">Do not respond if you see a star!</p></div>",,,,61283,0.0,practice-stop-feedback,27,poldrack-single-stim,
28,450.0,350.0,350.0,450.0,500.0,<div class = bigbox><div class = starbox><img class = center src='/static/experiments/stop_signal_with_n_back/images/stopSignal.png'></img></div></div>,stop,,2000.0,,-1.0,0.0,0.0,14.0,1.0,stop_signal_with_n_back,,,,,,0.0-0.0-28.0,77.0,match,"[77, 90]",t,,613,1000.0,<div class = bigbox><div class = centerbox><div class = gng_number><div class = cue-text><img class = center src='/static/experiments/stop_signal_with_n_back/images/lowercase_T.png'></img></div></div></div></div>,0.0,stop,,63291,0.0,practice_trial,28,stop-signal,
29,,,,,,,,,500.0,,,,,,,stop_signal_with_n_back,,,,,,0.0-0.0-29.0,-1.0,,none,,,-1,500.0,"<div class = fb_box><div class = center-text><font size = 20>There was a star.</font></div></div><div class = prompt_box><p class = center-block-text style = ""font-size:16px; line-height:80%%;"">Match the current letter to the letter that appeared 1 trial ago</p><p class = center-block-text style = ""font-size:16px; line-height:80%%;"">If they match, press the M Key</p><p class = center-block-text style = ""font-size:16px; line-height:80%%;"">If they mismatch, press the Z Key</p><p class = center-block-text style = ""font-size:16px; line-height:80%%;"">Do not respond if you see a star!</p></div>",,,,63803,0.0,practice-stop-feedback,29,poldrack-single-stim,
30,400.0,350.0,350.0,400.0,500.0,<div class = bigbox><div class = starbox><img class = center src='/static/experiments/stop_signal_with_n_back/images/stopSignal.png'></img></div></div>,go,,2000.0,,90.0,1.0,0.0,15.0,1.0,stop_signal_with_n_back,,,,,,0.0-0.0-30.0,90.0,mismatch,"[77, 90]",b,,741,1000.0,<div class = bigbox><div class = centerbox><div class = gng_number><div class = cue-text><img class = center src='/static/experiments/stop_signal_with_n_back/images/lowercase_B.png'></img></div></div></div></div>,,go,,65809,0.0,practice_trial,30,stop-signal,
31,,,,,,,,,500.0,,,,,,,stop_signal_with_n_back,,,,,,0.0-0.0-31.0,-1.0,,none,,,-1,500.0,"<div class = fb_box><div class = center-text><font size = 20>Correct!</font></div></div><div class = prompt_box><p class = center-block-text style = ""font-size:16px; line-height:80%%;"">Match the current letter to the letter that appeared 1 trial ago</p><p class = center-block-text style = ""font-size:16px; line-height:80%%;"">If they match, press the M Key</p><p class = center-block-text style = ""font-size:16px; line-height:80%%;"">If they mismatch, press the Z Key</p><p class = center-block-text style = ""font-size:16px; line-height:80%%;"">Do not respond if you see a star!</p></div>",,,,66315,0.0,practice-stop-feedback,31,poldrack-single-stim,
32,400.0,350.0,350.0,400.0,500.0,<div class = bigbox><div class = starbox><img class = center src='/static/experiments/stop_signal_with_n_back/images/stopSignal.png'></img></div></div>,go,,2000.0,,90.0,1.0,0.0,16.0,1.0,stop_signal_with_n_back,,,,,,0.0-0.0-32.0,90.0,mismatch,"[77, 90]",G,,686,1000.0,<div class = bigbox><div class = centerbox><div class = gng_number><div class = cue-text><img class = center src='/static/experiments/stop_signal_with_n_back/images/uppercase_G.png'></img></div></div></div></div>,,go,,68322,0.0,practice_trial,32,stop-signal,
33,,,,,,,,,500.0,,,,,,,stop_signal_with_n_back,,,,,,0.0-0.0-33.0,-1.0,,none,,,-1,500.0,"<div class = fb_box><div class = center-text><font size = 20>Correct!</font></div></div><div class = prompt_box><p class = center-block-text style = ""font-size:16px; line-height:80%%;"">Match the current letter to the letter that appeared 1 trial ago</p><p class = center-block-text style = ""font-size:16px; line-height:80%%;"">If they match, press the M Key</p><p class = center-block-text style = ""font-size:16px; line-height:80%%;"">If they mismatch, press the Z Key</p><p class = center-block-text style = ""font-size:16px; line-height:80%%;"">Do not respond if you see a star!</p></div>",,,,68829,0.0,practice-stop-feedback,33,poldrack-single-stim,
34,400.0,350.0,350.0,400.0,500.0,<div class = bigbox><div class = starbox><img class = center src='/static/experiments/stop_signal_with_n_back/images/stopSignal.png'></img></div></div>,go,,2000.0,,90.0,1.0,0.0,17.0,1.0,stop_signal_with_n_back,,,,,,0.0-0.0-34.0,90.0,mismatch,"[77, 90]",d,,642,1000.0,<div class = bigbox><div class = centerbox><div class = gng_number><div class = cue-text><img class = center src='/static/experiments/stop_signal_with_n_back/images/lowercase_D.png'></img></div></div></div></div>,,go,,70837,0.0,practice_trial,34,stop-signal,
35,,,,,,,,,500.0,,,,,,,stop_signal_with_n_back,,,,,,0.0-0.0-35.0,-1.0,,none,,,-1,500.0,"<div class = fb_box><div class = center-text><font size = 20>Correct!</font></div></div><div class = prompt_box><p class = center-block-text style = ""font-size:16px; line-height:80%%;"">Match the current letter to the letter that appeared 1 trial ago</p><p class = center-block-text style = ""font-size:16px; line-height:80%%;"">If they match, press the M Key</p><p class = center-block-text style = ""font-size:16px; line-height:80%%;"">If they mismatch, press the Z Key</p><p class = center-block-text style = ""font-size:16px; line-height:80%%;"">Do not respond if you see a star!</p></div>",,,,71353,0.0,practice-stop-feedback,35,poldrack-single-stim,
36,400.0,350.0,350.0,400.0,500.0,<div class = bigbox><div class = starbox><img class = center src='/static/experiments/stop_signal_with_n_back/images/stopSignal.png'></img></div></div>,go,,2000.0,,90.0,1.0,0.0,18.0,1.0,stop_signal_with_n_back,,,,,,0.0-0.0-36.0,90.0,mismatch,"[77, 90]",V,,584,1000.0,<div class = bigbox><div class = centerbox><div class = gng_number><div class = cue-text><img class = center src='/static/experiments/stop_signal_with_n_back/images/uppercase_V.png'></img></div></div></div></div>,,go,,73360,0.0,practice_trial,36,stop-signal,
37,,,,,,,,,500.0,,,,,,,stop_signal_with_n_back,,,,,,0.0-0.0-37.0,-1.0,,none,,,-1,500.0,"<div class = fb_box><div class = center-text><font size = 20>Correct!</font></div></div><div class = prompt_box><p class = center-block-text style = ""font-size:16px; line-height:80%%;"">Match the current letter to the letter that appeared 1 trial ago</p><p class = center-block-text style = ""font-size:16px; line-height:80%%;"">If they match, press the M Key</p><p class = center-block-text style = ""font-size:16px; line-height:80%%;"">If they mismatch, press the Z Key</p><p class = center-block-text style = ""font-size:16px; line-height:80%%;"">Do not respond if you see a star!</p></div>",,,,73863,0.0,practice-stop-feedback,37,poldrack-single-stim,
38,400.0,350.0,350.0,400.0,500.0,<div class = bigbox><div class = starbox><img class = center src='/static/experiments/stop_signal_with_n_back/images/stopSignal.png'></img></div></div>,stop,,2000.0,,-1.0,1.0,0.0,19.0,1.0,stop_signal_with_n_back,,,,,,0.0-0.0-38.0,-1.0,mismatch,"[77, 90]",T,,-1,1000.0,<div class = bigbox><div class = centerbox><div class = gng_number><div class = cue-text><img class = center src='/static/experiments/stop_signal_with_n_back/images/uppercase_T.png'></img></div></div></div></div>,1.0,stop,,75871,0.0,practice_trial,38,stop-signal,
39,,,,,,,,,500.0,,,,,,,stop_signal_with_n_back,,,,,,0.0-0.0-39.0,-1.0,,none,,,-1,500.0,"<div class = fb_box><div class = center-text><font size = 20>Correct!</font></div></div><div class = prompt_box><p class = center-block-text style = ""font-size:16px; line-height:80%%;"">Match the current letter to the letter that appeared 1 trial ago</p><p class = center-block-text style = ""font-size:16px; line-height:80%%;"">If they match, press the M Key</p><p class = center-block-text style = ""font-size:16px; line-height:80%%;"">If they mismatch, press the Z Key</p><p class = center-block-text style = ""font-size:16px; line-height:80%%;"">Do not respond if you see a star!</p></div>",,,,76378,0.0,practice-stop-feedback,39,poldrack-single-stim,
40,450.0,350.0,350.0,450.0,500.0,<div class = bigbox><div class = starbox><img class = center src='/static/experiments/stop_signal_with_n_back/images/stopSignal.png'></img></div></div>,go,,2000.0,,90.0,1.0,0.0,20.0,1.0,stop_signal_with_n_back,,,,,,0.0-0.0-40.0,90.0,mismatch,"[77, 90]",b,,830,1000.0,<div class = bigbox><div class = centerbox><div class = gng_number><div class = cue-text><img class = center src='/static/experiments/stop_signal_with_n_back/images/lowercase_B.png'></img></div></div></div></div>,,go,,78389,0.0,practice_trial,40,stop-signal,
41,,,,,,,,,500.0,,,,,,,stop_signal_with_n_back,,,,,,0.0-0.0-41.0,-1.0,,none,,,-1,500.0,"<div class = fb_box><div class = center-text><font size = 20>Correct!</font></div></div><div class = prompt_box><p class = center-block-text style = ""font-size:16px; line-height:80%%;"">Match the current letter to the letter that appeared 1 trial ago</p><p class = center-block-text style = ""font-size:16px; line-height:80%%;"">If they match, press the M Key</p><p class = center-block-text style = ""font-size:16px; line-height:80%%;"">If they mismatch, press the Z Key</p><p class = center-block-text style = ""font-size:16px; line-height:80%%;"">Do not respond if you see a star!</p></div>",,,,78897,0.0,practice-stop-feedback,41,poldrack-single-stim,
42,450.0,350.0,350.0,450.0,500.0,<div class = bigbox><div class = starbox><img class = center src='/static/experiments/stop_signal_with_n_back/images/stopSignal.png'></img></div></div>,stop,,2000.0,,-1.0,0.0,0.0,21.0,1.0,stop_signal_with_n_back,,,,,,0.0-0.0-42.0,90.0,mismatch,"[77, 90]",d,,642,1000.0,<div class = bigbox><div class = centerbox><div class = gng_number><div class = cue-text><img class = center src='/static/experiments/stop_signal_with_n_back/images/lowercase_D.png'></img></div></div></div></div>,0.0,stop,,80902,0.0,practice_trial,42,stop-signal,
43,,,,,,,,,500.0,,,,,,,stop_signal_with_n_back,,,,,,0.0-0.0-43.0,-1.0,,none,,,-1,500.0,"<div class = fb_box><div class = center-text><font size = 20>There was a star.</font></div></div><div class = prompt_box><p class = center-block-text style = ""font-size:16px; line-height:80%%;"">Match the current letter to the letter that appeared 1 trial ago</p><p class = center-block-text style = ""font-size:16px; line-height:80%%;"">If they match, press the M Key</p><p class = center-block-text style = ""font-size:16px; line-height:80%%;"">If they mismatch, press the Z Key</p><p class = center-block-text style = ""font-size:16px; line-height:80%%;"">Do not respond if you see a star!</p></div>",,,,81416,0.0,practice-stop-feedback,43,poldrack-single-stim,
44,400.0,350.0,350.0,400.0,500.0,<div class = bigbox><div class = starbox><img class = center src='/static/experiments/stop_signal_with_n_back/images/stopSignal.png'></img></div></div>,stop,,2000.0,,-1.0,1.0,0.0,22.0,1.0,stop_signal_with_n_back,,,,,,0.0-0.0-44.0,-1.0,mismatch,"[77, 90]",G,,-1,1000.0,<div class = bigbox><div class = centerbox><div class = gng_number><div class = cue-text><img class = center src='/static/experiments/stop_signal_with_n_back/images/uppercase_G.png'></img></div></div></div></div>,1.0,stop,,83422,0.0,practice_trial,44,stop-signal,
45,,,,,,,,,500.0,,,,,,,stop_signal_with_n_back,,,,,,0.0-0.0-45.0,-1.0,,none,,,-1,500.0,"<div class = fb_box><div class = center-text><font size = 20>Correct!</font></div></div><div class = prompt_box><p class = center-block-text style = ""font-size:16px; line-height:80%%;"">Match the current letter to the letter that appeared 1 trial ago</p><p class = center-block-text style = ""font-size:16px; line-height:80%%;"">If they match, press the M Key</p><p class = center-block-text style = ""font-size:16px; line-height:80%%;"">If they mismatch, press the Z Key</p><p class = center-block-text style = ""font-size:16px; line-height:80%%;"">Do not respond if you see a star!</p></div>",,,,83928,0.0,practice-stop-feedback,45,poldrack-single-stim,
46,450.0,350.0,350.0,450.0,500.0,<div class = bigbox><div class = starbox><img class = center src='/static/experiments/stop_signal_with_n_back/images/stopSignal.png'></img></div></div>,go,,2000.0,,90.0,1.0,0.0,23.0,1.0,stop_signal_with_n_back,,,,,,0.0-0.0-46.0,90.0,mismatch,"[77, 90]",D,,752,1000.0,<div class = bigbox><div class = centerbox><div class = gng_number><div class = cue-text><img class = center src='/static/experiments/stop_signal_with_n_back/images/uppercase_D.png'></img></div></div></div></div>,,go,,85935,0.0,practice_trial,46,stop-signal,
47,,,,,,,,,500.0,,,,,,,stop_signal_with_n_back,,,,,,0.0-0.0-47.0,-1.0,,none,,,-1,500.0,"<div class = fb_box><div class = center-text><font size = 20>Correct!</font></div></div><div class = prompt_box><p class = center-block-text style = ""font-size:16px; line-height:80%%;"">Match the current letter to the letter that appeared 1 trial ago</p><p class = center-block-text style = ""font-size:16px; line-height:80%%;"">If they match, press the M Key</p><p class = center-block-text style = ""font-size:16px; line-height:80%%;"">If they mismatch, press the Z Key</p><p class = center-block-text style = ""font-size:16px; line-height:80%%;"">Do not respond if you see a star!</p></div>",,,,86453,0.0,practice-stop-feedback,47,poldrack-single-stim,
48,450.0,350.0,350.0,450.0,500.0,<div class = bigbox><div class = starbox><img class = center src='/static/experiments/stop_signal_with_n_back/images/stopSignal.png'></img></div></div>,go,,2000.0,,90.0,1.0,0.0,24.0,1.0,stop_signal_with_n_back,,,,,,0.0-0.0-48.0,90.0,mismatch,"[77, 90]",G,,788,1000.0,<div class = bigbox><div class = centerbox><div class = gng_number><div class = cue-text><img class = center src='/static/experiments/stop_signal_with_n_back/images/uppercase_G.png'></img></div></div></div></div>,,go,,88460,0.0,practice_trial,48,stop-signal,
49,,,,,,,,,500.0,,,,,,,stop_signal_with_n_back,,,,,,0.0-0.0-49.0,-1.0,,none,,,-1,500.0,"<div class = fb_box><div class = center-text><font size = 20>Correct!</font></div></div><div class = prompt_box><p class = center-block-text style = ""font-size:16px; line-height:80%%;"">Match the current letter to the letter that appeared 1 trial ago</p><p class = center-block-text style = ""font-size:16px; line-height:80%%;"">If they match, press the M Key</p><p class = center-block-text style = ""font-size:16px; line-height:80%%;"">If they mismatch, press the Z Key</p><p class = center-block-text style = ""font-size:16px; line-height:80%%;"">Do not respond if you see a star!</p></div>",,,,88976,0.0,practice-stop-feedback,49,poldrack-single-stim,
50,450.0,350.0,350.0,450.0,500.0,<div class = bigbox><div class = starbox><img class = center src='/static/experiments/stop_signal_with_n_back/images/stopSignal.png'></img></div></div>,go,,2000.0,,90.0,1.0,0.0,25.0,1.0,stop_signal_with_n_back,,,,,,0.0-0.0-50.0,90.0,mismatch,"[77, 90]",D,,881,1000.0,<div class = bigbox><div class = centerbox><div class = gng_number><div class = cue-text><img class = center src='/static/experiments/stop_signal_with_n_back/images/uppercase_D.png'></img></div></div></div></div>,,go,,90981,0.0,practice_trial,50,stop-signal,
51,,,,,,,,,500.0,,,,,,,stop_signal_with_n_back,,,,,,0.0-0.0-51.0,-1.0,,none,,,-1,500.0,"<div class = fb_box><div class = center-text><font size = 20>Correct!</font></div></div><div class = prompt_box><p class = center-block-text style = ""font-size:16px; line-height:80%%;"">Match the current letter to the letter that appeared 1 trial ago</p><p class = center-block-text style = ""font-size:16px; line-height:80%%;"">If they match, press the M Key</p><p class = center-block-text style = ""font-size:16px; line-height:80%%;"">If they mismatch, press the Z Key</p><p class = center-block-text style = ""font-size:16px; line-height:80%%;"">Do not respond if you see a star!</p></div>",,,,91485,0.0,practice-stop-feedback,51,poldrack-single-stim,
52,450.0,350.0,350.0,450.0,500.0,<div class = bigbox><div class = starbox><img class = center src='/static/experiments/stop_signal_with_n_back/images/stopSignal.png'></img></div></div>,stop,,2000.0,,-1.0,1.0,0.0,26.0,1.0,stop_signal_with_n_back,,,,,,0.0-0.0-52.0,-1.0,mismatch,"[77, 90]",T,,-1,1000.0,<div class = bigbox><div class = centerbox><div class = gng_number><div class = cue-text><img class = center src='/static/experiments/stop_signal_with_n_back/images/uppercase_T.png'></img></div></div></div></div>,1.0,stop,,93500,0.0,practice_trial,52,stop-signal,
53,,,,,,,,,500.0,,,,,,,stop_signal_with_n_back,,,,,,0.0-0.0-53.0,-1.0,,none,,,-1,500.0,"<div class = fb_box><div class = center-text><font size = 20>Correct!</font></div></div><div class = prompt_box><p class = center-block-text style = ""font-size:16px; line-height:80%%;"">Match the current letter to the letter that appeared 1 trial ago</p><p class = center-block-text style = ""font-size:16px; line-height:80%%;"">If they match, press the M Key</p><p class = center-block-text style = ""font-size:16px; line-height:80%%;"">If they mismatch, press the Z Key</p><p class = center-block-text style = ""font-size:16px; line-height:80%%;"">Do not respond if you see a star!</p></div>",,,,94006,0.0,practice-stop-feedback,53,poldrack-single-stim,
54,500.0,350.0,350.0,500.0,500.0,<div class = bigbox><div class = starbox><img class = center src='/static/experiments/stop_signal_with_n_back/images/stopSignal.png'></img></div></div>,stop,,2000.0,,-1.0,1.0,0.0,27.0,1.0,stop_signal_with_n_back,,,,,,0.0-0.0-54.0,-1.0,mismatch,"[77, 90]",g,,-1,1000.0,<div class = bigbox><div class = centerbox><div class = gng_number><div class = cue-text><img class = center src='/static/experiments/stop_signal_with_n_back/images/lowercase_G.png'></img></div></div></div></div>,1.0,stop,,96010,0.0,practice_trial,54,stop-signal,
55,,,,,,,,,500.0,,,,,,,stop_signal_with_n_back,,,,,,0.0-0.0-55.0,-1.0,,none,,,-1,500.0,"<div class = fb_box><div class = center-text><font size = 20>Correct!</font></div></div><div class = prompt_box><p class = center-block-text style = ""font-size:16px; line-height:80%%;"">Match the current letter to the letter that appeared 1 trial ago</p><p class = center-block-text style = ""font-size:16px; line-height:80%%;"">If they match, press the M Key</p><p class = center-block-text style = ""font-size:16px; line-height:80%%;"">If they mismatch, press the Z Key</p><p class = center-block-text style = ""font-size:16px; line-height:80%%;"">Do not respond if you see a star!</p></div>",,,,96527,0.0,practice-stop-feedback,55,poldrack-single-stim,
56,550.0,350.0,350.0,550.0,500.0,<div class = bigbox><div class = starbox><img class = center src='/static/experiments/stop_signal_with_n_back/images/stopSignal.png'></img></div></div>,stop,,2000.0,,-1.0,1.0,0.0,28.0,1.0,stop_signal_with_n_back,,,,,,0.0-0.0-56.0,-1.0,mismatch,"[77, 90]",D,,-1,1000.0,<div class = bigbox><div class = centerbox><div class = gng_number><div class = cue-text><img class = center src='/static/experiments/stop_signal_with_n_back/images/uppercase_D.png'></img></div></div></div></div>,1.0,stop,,98537,0.0,practice_trial,56,stop-signal,
57,,,,,,,,,500.0,,,,,,,stop_signal_with_n_back,,,,,,0.0-0.0-57.0,-1.0,,none,,,-1,500.0,"<div class = fb_box><div class = center-text><font size = 20>Correct!</font></div></div><div class = prompt_box><p class = center-block-text style = ""font-size:16px; line-height:80%%;"">Match the current letter to the letter that appeared 1 trial ago</p><p class = center-block-text style = ""font-size:16px; line-height:80%%;"">If they match, press the M Key</p><p class = center-block-text style = ""font-size:16px; line-height:80%%;"">If they mismatch, press the Z Key</p><p class = center-block-text style = ""font-size:16px; line-height:80%%;"">Do not respond if you see a star!</p></div>",,,,99044,0.0,practice-stop-feedback,57,poldrack-single-stim,
58,600.0,350.0,350.0,600.0,500.0,<div class = bigbox><div class = starbox><img class = center src='/static/experiments/stop_signal_with_n_back/images/stopSignal.png'></img></div></div>,go,,2000.0,,90.0,1.0,0.0,29.0,1.0,stop_signal_with_n_back,,,,,,0.0-0.0-58.0,90.0,mismatch,"[77, 90]",t,,839,1000.0,<div class = bigbox><div class = centerbox><div class = gng_number><div class = cue-text><img class = center src='/static/experiments/stop_signal_with_n_back/images/lowercase_T.png'></img></div></div></div></div>,,go,,101050,0.0,practice_trial,58,stop-signal,
59,,,,,,,,,500.0,,,,,,,stop_signal_with_n_back,,,,,,0.0-0.0-59.0,-1.0,,none,,,-1,500.0,"<div class = fb_box><div class = center-text><font size = 20>Correct!</font></div></div><div class = prompt_box><p class = center-block-text style = ""font-size:16px; line-height:80%%;"">Match the current letter to the letter that appeared 1 trial ago</p><p class = center-block-text style = ""font-size:16px; line-height:80%%;"">If they match, press the M Key</p><p class = center-block-text style = ""font-size:16px; line-height:80%%;"">If they mismatch, press the Z Key</p><p class = center-block-text style = ""font-size:16px; line-height:80%%;"">Do not respond if you see a star!</p></div>",,,,101556,0.0,practice-stop-feedback,59,poldrack-single-stim,
60,600.0,350.0,350.0,600.0,500.0,<div class = bigbox><div class = starbox><img class = center src='/static/experiments/stop_signal_with_n_back/images/stopSignal.png'></img></div></div>,go,,2000.0,,77.0,1.0,0.0,30.0,1.0,stop_signal_with_n_back,,,,,,0.0-0.0-60.0,77.0,match,"[77, 90]",t,,728,1000.0,<div class = bigbox><div class = centerbox><div class = gng_number><div class = cue-text><img class = center src='/static/experiments/stop_signal_with_n_back/images/lowercase_T.png'></img></div></div></div></div>,,go,,103560,0.0,practice_trial,60,stop-signal,
61,,,,,,,,,500.0,,,,,,,stop_signal_with_n_back,,,,,,0.0-0.0-61.0,-1.0,,none,,,-1,500.0,"<div class = fb_box><div class = center-text><font size = 20>Correct!</font></div></div><div class = prompt_box><p class = center-block-text style = ""font-size:16px; line-height:80%%;"">Match the current letter to the letter that appeared 1 trial ago</p><p class = center-block-text style = ""font-size:16px; line-height:80%%;"">If they match, press the M Key</p><p class = center-block-text style = ""font-size:16px; line-height:80%%;"">If they mismatch, press the Z Key</p><p class = center-block-text style = ""font-size:16px; line-height:80%%;"">Do not respond if you see a star!</p></div>",,,,104066,0.0,practice-stop-feedback,61,poldrack-single-stim,
62,600.0,350.0,350.0,600.0,500.0,<div class = bigbox><div class = starbox><img class = center src='/static/experiments/stop_signal_with_n_back/images/stopSignal.png'></img></div></div>,go,,2000.0,,90.0,1.0,0.0,31.0,1.0,stop_signal_with_n_back,,,,,,0.0-0.0-62.0,90.0,mismatch,"[77, 90]",v,,649,1000.0,<div class = bigbox><div class = centerbox><div class = gng_number><div class = cue-text><img class = center src='/static/experiments/stop_signal_with_n_back/images/lowercase_V.png'></img></div></div></div></div>,,go,,106079,0.0,practice_trial,62,stop-signal,
63,,,,,,,,,500.0,,,,,,,stop_signal_with_n_back,,,,,,0.0-0.0-63.0,-1.0,,none,,,-1,500.0,"<div class = fb_box><div class = center-text><font size = 20>Correct!</font></div></div><div class = prompt_box><p class = center-block-text style = ""font-size:16px; line-height:80%%;"">Match the current letter to the letter that appeared 1 trial ago</p><p class = center-block-text style = ""font-size:16px; line-height:80%%;"">If they match, press the M Key</p><p class = center-block-text style = ""font-size:16px; line-height:80%%;"">If they mismatch, press the Z Key</p><p class = center-block-text style = ""font-size:16px; line-height:80%%;"">Do not respond if you see a star!</p></div>",,,,106585,0.0,practice-stop-feedback,63,poldrack-single-stim,
64,600.0,350.0,350.0,600.0,500.0,<div class = bigbox><div class = starbox><img class = center src='/static/experiments/stop_signal_with_n_back/images/stopSignal.png'></img></div></div>,go,,2000.0,,90.0,1.0,0.0,32.0,1.0,stop_signal_with_n_back,,,,,,0.0-0.0-64.0,90.0,mismatch,"[77, 90]",b,,760,1000.0,<div class = bigbox><div class = centerbox><div class = gng_number><div class = cue-text><img class = center src='/static/experiments/stop_signal_with_n_back/images/lowercase_B.png'></img></div></div></div></div>,,go,,108593,0.0,practice_trial,64,stop-signal,
65,,,,,,,,,500.0,,,,,,,stop_signal_with_n_back,,,,,,0.0-0.0-65.0,-1.0,,none,,,-1,500.0,"<div class = fb_box><div class = center-text><font size = 20>Correct!</font></div></div><div class = prompt_box><p class = center-block-text style = ""font-size:16px; line-height:80%%;"">Match the current letter to the letter that appeared 1 trial ago</p><p class = center-block-text style = ""font-size:16px; line-height:80%%;"">If they match, press the M Key</p><p class = center-block-text style = ""font-size:16px; line-height:80%%;"">If they mismatch, press the Z Key</p><p class = center-block-text style = ""font-size:16px; line-height:80%%;"">Do not respond if you see a star!</p></div>",,,,109102,0.0,practice-stop-feedback,65,poldrack-single-stim,
66,600.0,350.0,350.0,600.0,500.0,<div class = bigbox><div class = starbox><img class = center src='/static/experiments/stop_signal_with_n_back/images/stopSignal.png'></img></div></div>,go,,2000.0,,90.0,1.0,0.0,33.0,1.0,stop_signal_with_n_back,,,,,,0.0-0.0-66.0,90.0,mismatch,"[77, 90]",d,,627,1000.0,<div class = bigbox><div class = centerbox><div class = gng_number><div class = cue-text><img class = center src='/static/experiments/stop_signal_with_n_back/images/lowercase_D.png'></img></div></div></div></div>,,go,,111109,0.0,practice_trial,66,stop-signal,
67,,,,,,,,,500.0,,,,,,,stop_signal_with_n_back,,,,,,0.0-0.0-67.0,-1.0,,none,,,-1,500.0,"<div class = fb_box><div class = center-text><font size = 20>Correct!</font></div></div><div class = prompt_box><p class = center-block-text style = ""font-size:16px; line-height:80%%;"">Match the current letter to the letter that appeared 1 trial ago</p><p class = center-block-text style = ""font-size:16px; line-height:80%%;"">If they match, press the M Key</p><p class = center-block-text style = ""font-size:16px; line-height:80%%;"">If they mismatch, press the Z Key</p><p class = center-block-text style = ""font-size:16px; line-height:80%%;"">Do not respond if you see a star!</p></div>",,,,111616,0.0,practice-stop-feedback,67,poldrack-single-stim,
68,600.0,350.0,350.0,600.0,500.0,<div class = bigbox><div class = starbox><img class = center src='/static/experiments/stop_signal_with_n_back/images/stopSignal.png'></img></div></div>,go,,2000.0,,77.0,1.0,0.0,34.0,1.0,stop_signal_with_n_back,,,,,,0.0-0.0-68.0,77.0,match,"[77, 90]",D,,731,1000.0,<div class = bigbox><div class = centerbox><div class = gng_number><div class = cue-text><img class = center src='/static/experiments/stop_signal_with_n_back/images/uppercase_D.png'></img></div></div></div></div>,,go,,113623,0.0,practice_trial,68,stop-signal,
69,,,,,,,,,500.0,,,,,,,stop_signal_with_n_back,,,,,,0.0-0.0-69.0,-1.0,,none,,,-1,500.0,"<div class = fb_box><div class = center-text><font size = 20>Correct!</font></div></div><div class = prompt_box><p class = center-block-text style = ""font-size:16px; line-height:80%%;"">Match the current letter to the letter that appeared 1 trial ago</p><p class = center-block-text style = ""font-size:16px; line-height:80%%;"">If they match, press the M Key</p><p class = center-block-text style = ""font-size:16px; line-height:80%%;"">If they mismatch, press the Z Key</p><p class = center-block-text style = ""font-size:16px; line-height:80%%;"">Do not respond if you see a star!</p></div>",,,,114128,0.0,practice-stop-feedback,69,poldrack-single-stim,
70,600.0,350.0,350.0,600.0,500.0,<div class = bigbox><div class = starbox><img class = center src='/static/experiments/stop_signal_with_n_back/images/stopSignal.png'></img></div></div>,stop,,2000.0,,-1.0,0.0,0.0,35.0,1.0,stop_signal_with_n_back,,,,,,0.0-0.0-70.0,77.0,match,"[77, 90]",D,,626,1000.0,<div class = bigbox><div class = centerbox><div class = gng_number><div class = cue-text><img class = center src='/static/experiments/stop_signal_with_n_back/images/uppercase_D.png'></img></div></div></div></div>,0.0,stop,,116135,0.0,practice_trial,70,stop-signal,
71,,,,,,,,,500.0,,,,,,,stop_signal_with_n_back,,,,,,0.0-0.0-71.0,-1.0,,none,,,-1,500.0,"<div class = fb_box><div class = center-text><font size = 20>There was a star.</font></div></div><div class = prompt_box><p class = center-block-text style = ""font-size:16px; line-height:80%%;"">Match the current letter to the letter that appeared 1 trial ago</p><p class = center-block-text style = ""font-size:16px; line-height:80%%;"">If they match, press the M Key</p><p class = center-block-text style = ""font-size:16px; line-height:80%%;"">If they mismatch, press the Z Key</p><p class = center-block-text style = ""font-size:16px; line-height:80%%;"">Do not respond if you see a star!</p></div>",,,,116642,0.0,practice-stop-feedback,71,poldrack-single-stim,
72,550.0,350.0,350.0,550.0,500.0,<div class = bigbox><div class = starbox><img class = center src='/static/experiments/stop_signal_with_n_back/images/stopSignal.png'></img></div></div>,go,,2000.0,,77.0,1.0,0.0,36.0,1.0,stop_signal_with_n_back,,,,,,0.0-0.0-72.0,77.0,match,"[77, 90]",D,,991,1000.0,<div class = bigbox><div class = centerbox><div class = gng_number><div class = cue-text><img class = center src='/static/experiments/stop_signal_with_n_back/images/uppercase_D.png'></img></div></div></div></div>,,go,,118649,0.0,practice_trial,72,stop-signal,
73,,,,,,,,,500.0,,,,,,,stop_signal_with_n_back,,,,,,0.0-0.0-73.0,-1.0,,none,,,-1,500.0,"<div class = fb_box><div class = center-text><font size = 20>Correct!</font></div></div><div class = prompt_box><p class = center-block-text style = ""font-size:16px; line-height:80%%;"">Match the current letter to the letter that appeared 1 trial ago</p><p class = center-block-text style = ""font-size:16px; line-height:80%%;"">If they match, press the M Key</p><p class = center-block-text style = ""font-size:16px; line-height:80%%;"">If they mismatch, press the Z Key</p><p class = center-block-text style = ""font-size:16px; line-height:80%%;"">Do not respond if you see a star!</p></div>",,,,119155,0.0,practice-stop-feedback,73,poldrack-single-stim,
74,550.0,350.0,350.0,550.0,500.0,<div class = bigbox><div class = starbox><img class = center src='/static/experiments/stop_signal_with_n_back/images/stopSignal.png'></img></div></div>,go,,2000.0,,90.0,1.0,0.0,37.0,1.0,stop_signal_with_n_back,,,,,,0.0-0.0-74.0,90.0,mismatch,"[77, 90]",g,,733,1000.0,<div class = bigbox><div class = centerbox><div class = gng_number><div class = cue-text><img class = center src='/static/experiments/stop_signal_with_n_back/images/lowercase_G.png'></img></div></div></div></div>,,go,,121163,0.0,practice_trial,74,stop-signal,
75,,,,,,,,,500.0,,,,,,,stop_signal_with_n_back,,,,,,0.0-0.0-75.0,-1.0,,none,,,-1,500.0,"<div class = fb_box><div class = center-text><font size = 20>Correct!</font></div></div><div class = prompt_box><p class = center-block-text style = ""font-size:16px; line-height:80%%;"">Match the current letter to the letter that appeared 1 trial ago</p><p class = center-block-text style = ""font-size:16px; line-height:80%%;"">If they match, press the M Key</p><p class = center-block-text style = ""font-size:16px; line-height:80%%;"">If they mismatch, press the Z Key</p><p class = center-block-text style = ""font-size:16px; line-height:80%%;"">Do not respond if you see a star!</p></div>",,,,121668,0.0,practice-stop-feedback,75,poldrack-single-stim,
76,550.0,350.0,350.0,550.0,500.0,<div class = bigbox><div class = starbox><img class = center src='/static/experiments/stop_signal_with_n_back/images/stopSignal.png'></img></div></div>,go,,2000.0,,90.0,1.0,0.0,38.0,1.0,stop_signal_with_n_back,,,,,,0.0-0.0-76.0,90.0,mismatch,"[77, 90]",V,,645,1000.0,<div class = bigbox><div class = centerbox><div class = gng_number><div class = cue-text><img class = center src='/static/experiments/stop_signal_with_n_back/images/uppercase_V.png'></img></div></div></div></div>,,go,,123675,0.0,practice_trial,76,stop-signal,
77,,,,,,,,,500.0,,,,,,,stop_signal_with_n_back,,,,,,0.0-0.0-77.0,-1.0,,none,,,-1,500.0,"<div class = fb_box><div class = center-text><font size = 20>Correct!</font></div></div><div class = prompt_box><p class = center-block-text style = ""font-size:16px; line-height:80%%;"">Match the current letter to the letter that appeared 1 trial ago</p><p class = center-block-text style = ""font-size:16px; line-height:80%%;"">If they match, press the M Key</p><p class = center-block-text style = ""font-size:16px; line-height:80%%;"">If they mismatch, press the Z Key</p><p class = center-block-text style = ""font-size:16px; line-height:80%%;"">Do not respond if you see a star!</p></div>",,,,124181,0.0,practice-stop-feedback,77,poldrack-single-stim,
78,550.0,350.0,350.0,550.0,500.0,<div class = bigbox><div class = starbox><img class = center src='/static/experiments/stop_signal_with_n_back/images/stopSignal.png'></img></div></div>,go,,2000.0,,90.0,1.0,0.0,39.0,1.0,stop_signal_with_n_back,,,,,,0.0-0.0-78.0,90.0,mismatch,"[77, 90]",d,,741,1000.0,<div class = bigbox><div class = centerbox><div class = gng_number><div class = cue-text><img class = center src='/static/experiments/stop_signal_with_n_back/images/lowercase_D.png'></img></div></div></div></div>,,go,,126186,0.0,practice_trial,78,stop-signal,
79,,,,,,,,,500.0,,,,,,,stop_signal_with_n_back,,,,,,0.0-0.0-79.0,-1.0,,none,,,-1,500.0,"<div class = fb_box><div class = center-text><font size = 20>Correct!</font></div></div><div class = prompt_box><p class = center-block-text style = ""font-size:16px; line-height:80%%;"">Match the current letter to the letter that appeared 1 trial ago</p><p class = center-block-text style = ""font-size:16px; line-height:80%%;"">If they match, press the M Key</p><p class = center-block-text style = ""font-size:16px; line-height:80%%;"">If they mismatch, press the Z Key</p><p class = center-block-text style = ""font-size:16px; line-height:80%%;"">Do not respond if you see a star!</p></div>",,,,126691,0.0,practice-stop-feedback,79,poldrack-single-stim,
80,550.0,350.0,350.0,550.0,500.0,<div class = bigbox><div class = starbox><img class = center src='/static/experiments/stop_signal_with_n_back/images/stopSignal.png'></img></div></div>,go,,2000.0,,90.0,1.0,0.0,40.0,1.0,stop_signal_with_n_back,,,,,,0.0-0.0-80.0,90.0,mismatch,"[77, 90]",V,,725,1000.0,<div class = bigbox><div class = centerbox><div class = gng_number><div class = cue-text><img class = center src='/static/experiments/stop_signal_with_n_back/images/uppercase_V.png'></img></div></div></div></div>,,go,,128699,0.0,practice_trial,80,stop-signal,
81,,,,,,,,,500.0,,,,,,,stop_signal_with_n_back,,,,,,0.0-0.0-81.0,-1.0,,none,,,-1,500.0,"<div class = fb_box><div class = center-text><font size = 20>Correct!</font></div></div><div class = prompt_box><p class = center-block-text style = ""font-size:16px; line-height:80%%;"">Match the current letter to the letter that appeared 1 trial ago</p><p class = center-block-text style = ""font-size:16px; line-height:80%%;"">If they match, press the M Key</p><p class = center-block-text style = ""font-size:16px; line-height:80%%;"">If they mismatch, press the Z Key</p><p class = center-block-text style = ""font-size:16px; line-height:80%%;"">Do not respond if you see a star!</p></div>",,,,129204,0.0,practice-stop-feedback,81,poldrack-single-stim,
82,550.0,350.0,350.0,550.0,500.0,<div class = bigbox><div class = starbox><img class = center src='/static/experiments/stop_signal_with_n_back/images/stopSignal.png'></img></div></div>,go,,2000.0,,90.0,1.0,0.0,41.0,1.0,stop_signal_with_n_back,,,,,,0.0-0.0-82.0,90.0,mismatch,"[77, 90]",b,,629,1000.0,<div class = bigbox><div class = centerbox><div class = gng_number><div class = cue-text><img class = center src='/static/experiments/stop_signal_with_n_back/images/lowercase_B.png'></img></div></div></div></div>,,go,,131211,0.0,practice_trial,82,stop-signal,
83,,,,,,,,,500.0,,,,,,,stop_signal_with_n_back,,,,,,0.0-0.0-83.0,-1.0,,none,,,-1,500.0,"<div class = fb_box><div class = center-text><font size = 20>Correct!</font></div></div><div class = prompt_box><p class = center-block-text style = ""font-size:16px; line-height:80%%;"">Match the current letter to the letter that appeared 1 trial ago</p><p class = center-block-text style = ""font-size:16px; line-height:80%%;"">If they match, press the M Key</p><p class = center-block-text style = ""font-size:16px; line-height:80%%;"">If they mismatch, press the Z Key</p><p class = center-block-text style = ""font-size:16px; line-height:80%%;"">Do not respond if you see a star!</p></div>",,,,131718,0.0,practice-stop-feedback,83,poldrack-single-stim,
84,550.0,350.0,350.0,550.0,500.0,<div class = bigbox><div class = starbox><img class = center src='/static/experiments/stop_signal_with_n_back/images/stopSignal.png'></img></div></div>,stop,,2000.0,,-1.0,1.0,0.0,42.0,1.0,stop_signal_with_n_back,,,,,,0.0-0.0-84.0,-1.0,mismatch,"[77, 90]",t,,-1,1000.0,<div class = bigbox><div class = centerbox><div class = gng_number><div class = cue-text><img class = center src='/static/experiments/stop_signal_with_n_back/images/lowercase_T.png'></img></div></div></div></div>,1.0,stop,,133728,0.0,practice_trial,84,stop-signal,
85,,,,,,,,,500.0,,,,,,,stop_signal_with_n_back,,,,,,0.0-0.0-85.0,-1.0,,none,,,-1,500.0,"<div class = fb_box><div class = center-text><font size = 20>Correct!</font></div></div><div class = prompt_box><p class = center-block-text style = ""font-size:16px; line-height:80%%;"">Match the current letter to the letter that appeared 1 trial ago</p><p class = center-block-text style = ""font-size:16px; line-height:80%%;"">If they match, press the M Key</p><p class = center-block-text style = ""font-size:16px; line-height:80%%;"">If they mismatch, press the Z Key</p><p class = center-block-text style = ""font-size:16px; line-height:80%%;"">Do not respond if you see a star!</p></div>",,,,134246,0.0,practice-stop-feedback,85,poldrack-single-stim,
86,600.0,350.0,350.0,600.0,500.0,<div class = bigbox><div class = starbox><img class = center src='/static/experiments/stop_signal_with_n_back/images/stopSignal.png'></img></div></div>,go,,2000.0,,90.0,1.0,0.0,43.0,1.0,stop_signal_with_n_back,,,,,,0.0-0.0-86.0,90.0,mismatch,"[77, 90]",D,,827,1000.0,<div class = bigbox><div class = centerbox><div class = gng_number><div class = cue-text><img class = center src='/static/experiments/stop_signal_with_n_back/images/uppercase_D.png'></img></div></div></div></div>,,go,,136253,0.0,practice_trial,86,stop-signal,
87,,,,,,,,,500.0,,,,,,,stop_signal_with_n_back,,,,,,0.0-0.0-87.0,-1.0,,none,,,-1,500.0,"<div class = fb_box><div class = center-text><font size = 20>Correct!</font></div></div><div class = prompt_box><p class = center-block-text style = ""font-size:16px; line-height:80%%;"">Match the current letter to the letter that appeared 1 trial ago</p><p class = center-block-text style = ""font-size:16px; line-height:80%%;"">If they match, press the M Key</p><p class = center-block-text style = ""font-size:16px; line-height:80%%;"">If they mismatch, press the Z Key</p><p class = center-block-text style = ""font-size:16px; line-height:80%%;"">Do not respond if you see a star!</p></div>",,,,136760,0.0,practice-stop-feedback,87,poldrack-single-stim,
88,600.0,350.0,350.0,600.0,500.0,<div class = bigbox><div class = starbox><img class = center src='/static/experiments/stop_signal_with_n_back/images/stopSignal.png'></img></div></div>,stop,,2000.0,,-1.0,0.0,0.0,44.0,1.0,stop_signal_with_n_back,,,,,,0.0-0.0-88.0,90.0,mismatch,"[77, 90]",v,,793,1000.0,<div class = bigbox><div class = centerbox><div class = gng_number><div class = cue-text><img class = center src='/static/experiments/stop_signal_with_n_back/images/lowercase_V.png'></img></div></div></div></div>,0.0,stop,,138767,0.0,practice_trial,88,stop-signal,
89,,,,,,,,,500.0,,,,,,,stop_signal_with_n_back,,,,,,0.0-0.0-89.0,-1.0,,none,,,-1,500.0,"<div class = fb_box><div class = center-text><font size = 20>There was a star.</font></div></div><div class = prompt_box><p class = center-block-text style = ""font-size:16px; line-height:80%%;"">Match the current letter to the letter that appeared 1 trial ago</p><p class = center-block-text style = ""font-size:16px; line-height:80%%;"">If they match, press the M Key</p><p class = center-block-text style = ""font-size:16px; line-height:80%%;"">If they mismatch, press the Z Key</p><p class = center-block-text style = ""font-size:16px; line-height:80%%;"">Do not respond if you see a star!</p></div>",,,,139272,0.0,practice-stop-feedback,89,poldrack-single-stim,
90,550.0,350.0,350.0,550.0,500.0,<div class = bigbox><div class = starbox><img class = center src='/static/experiments/stop_signal_with_n_back/images/stopSignal.png'></img></div></div>,stop,,2000.0,,-1.0,1.0,0.0,45.0,1.0,stop_signal_with_n_back,,,,,,0.0-0.0-90.0,-1.0,mismatch,"[77, 90]",d,,-1,1000.0,<div class = bigbox><div class = centerbox><div class = gng_number><div class = cue-text><img class = center src='/static/experiments/stop_signal_with_n_back/images/lowercase_D.png'></img></div></div></div></div>,1.0,stop,,141279,0.0,practice_trial,90,stop-signal,
91,,,,,,,,,500.0,,,,,,,stop_signal_with_n_back,,,,,,0.0-0.0-91.0,-1.0,,none,,,-1,500.0,"<div class = fb_box><div class = center-text><font size = 20>Correct!</font></div></div><div class = prompt_box><p class = center-block-text style = ""font-size:16px; line-height:80%%;"">Match the current letter to the letter that appeared 1 trial ago</p><p class = center-block-text style = ""font-size:16px; line-height:80%%;"">If they match, press the M Key</p><p class = center-block-text style = ""font-size:16px; line-height:80%%;"">If they mismatch, press the Z Key</p><p class = center-block-text style = ""font-size:16px; line-height:80%%;"">Do not respond if you see a star!</p></div>",,,,141788,0.0,practice-stop-feedback,91,poldrack-single-stim,
92,600.0,350.0,350.0,600.0,500.0,<div class = bigbox><div class = starbox><img class = center src='/static/experiments/stop_signal_with_n_back/images/stopSignal.png'></img></div></div>,go,,2000.0,,90.0,1.0,0.0,46.0,1.0,stop_signal_with_n_back,,,,,,0.0-0.0-92.0,90.0,mismatch,"[77, 90]",T,,869,1000.0,<div class = bigbox><div class = centerbox><div class = gng_number><div class = cue-text><img class = center src='/static/experiments/stop_signal_with_n_back/images/uppercase_T.png'></img></div></div></div></div>,,go,,143796,0.0,practice_trial,92,stop-signal,
93,,,,,,,,,500.0,,,,,,,stop_signal_with_n_back,,,,,,0.0-0.0-93.0,-1.0,,none,,,-1,500.0,"<div class = fb_box><div class = center-text><font size = 20>Correct!</font></div></div><div class = prompt_box><p class = center-block-text style = ""font-size:16px; line-height:80%%;"">Match the current letter to the letter that appeared 1 trial ago</p><p class = center-block-text style = ""font-size:16px; line-height:80%%;"">If they match, press the M Key</p><p class = center-block-text style = ""font-size:16px; line-height:80%%;"">If they mismatch, press the Z Key</p><p class = center-block-text style = ""font-size:16px; line-height:80%%;"">Do not respond if you see a star!</p></div>",,,,144302,0.0,practice-stop-feedback,93,poldrack-single-stim,
94,600.0,350.0,350.0,600.0,500.0,<div class = bigbox><div class = starbox><img class = center src='/static/experiments/stop_signal_with_n_back/images/stopSignal.png'></img></div></div>,go,,2000.0,,90.0,1.0,0.0,47.0,1.0,stop_signal_with_n_back,,,,,,0.0-0.0-94.0,90.0,mismatch,"[77, 90]",G,,822,1000.0,<div class = bigbox><div class = centerbox><div class = gng_number><div class = cue-text><img class = center src='/static/experiments/stop_signal_with_n_back/images/uppercase_G.png'></img></div></div></div></div>,,go,,146305,0.0,practice_trial,94,stop-signal,
95,,,,,,,,,500.0,,,,,,,stop_signal_with_n_back,,,,,,0.0-0.0-95.0,-1.0,,none,,,-1,500.0,"<div class = fb_box><div class = center-text><font size = 20>Correct!</font></div></div><div class = prompt_box><p class = center-block-text style = ""font-size:16px; line-height:80%%;"">Match the current letter to the letter that appeared 1 trial ago</p><p class = center-block-text style = ""font-size:16px; line-height:80%%;"">If they match, press the M Key</p><p class = center-block-text style = ""font-size:16px; line-height:80%%;"">If they mismatch, press the Z Key</p><p class = center-block-text style = ""font-size:16px; line-height:80%%;"">Do not respond if you see a star!</p></div>",,,,146819,0.0,practice-stop-feedback,95,poldrack-single-stim,
96,600.0,350.0,350.0,600.0,500.0,<div class = bigbox><div class = starbox><img class = center src='/static/experiments/stop_signal_with_n_back/images/stopSignal.png'></img></div></div>,go,,2000.0,,90.0,1.0,0.0,48.0,1.0,stop_signal_with_n_back,,,,,,0.0-0.0-96.0,90.0,mismatch,"[77, 90]",V,,702,1000.0,<div class = bigbox><div class = centerbox><div class = gng_number><div class = cue-text><img class = center src='/static/experiments/stop_signal_with_n_back/images/uppercase_V.png'></img></div></div></div></div>,,go,,148827,0.0,practice_trial,96,stop-signal,
97,,,,,,,,,500.0,,,,,,,stop_signal_with_n_back,,,,,,0.0-0.0-97.0,-1.0,,none,,,-1,500.0,"<div class = fb_box><div class = center-text><font size = 20>Correct!</font></div></div><div class = prompt_box><p class = center-block-text style = ""font-size:16px; line-height:80%%;"">Match the current letter to the letter that appeared 1 trial ago</p><p class = center-block-text style = ""font-size:16px; line-height:80%%;"">If they match, press the M Key</p><p class = center-block-text style = ""font-size:16px; line-height:80%%;"">If they mismatch, press the Z Key</p><p class = center-block-text style = ""font-size:16px; line-height:80%%;"">Do not respond if you see a star!</p></div>",,,,149332,0.0,practice-stop-feedback,97,poldrack-single-stim,
98,,,,,,,,,2220.0,,,,,,,stop_signal_with_n_back,,,,,,0.0-1.0,13.0,,[13],,,2220,2220.0,"<div class = bigbox><div class = picture_box><p class = block-text><font color=""white""><br>Please take this time to read your feedback and to take a short break! Press enter to continue.</p><p class = block-text>Done with this practice. Press Enter to continue.</font></p></div></div>",,,,151573,0.0,practice-no-stop-feedback,98,poldrack-single-stim,
99,,,,,,,,,5366.0,,,,,,,stop_signal_with_n_back,,,,,,0.0-2.0,13.0,,,,,5366,,,,,"<div class = centerbox><p class = block-text>We will now begin the test portion.</p><p class = block-text>You will be asked to match the current letter to the letter that appeared either 1, 2, 3 trials ago depending on the delay given to you for that block.</p><p class = block-text>Press the M Key if they match, or the Z Key if they mismatch.</p><p class = block-text>Your delay (the number of trials ago to which you must match the current letter) will change from block to block.</p><p class = block-text>Do not respond if you see a star! You should remember the letter on that trial, however.</p><p class = block-text>Capitalization does not matter, so ""T"" matches with ""t"".</p> <p class = block-text>You will no longer receive the rule prompt, so remember the instructions before you continue. Press Enter to begin.</p></div>",156941,1000.0,instruction,99,poldrack-text,
100,,,,,,,,,1787.0,,,,,,,stop_signal_with_n_back,,,,,,0.0-3.0-0.0,13.0,,[13],,,1787,1787.0,"<div class = bigbox><div class = picture_box><p class = block-text><font color=""white"">Your delay for this block is 3. Please match the current letter to the letter that appeared 3 trial(s) ago. Press enter to begin.</font></p></div></div>",,,,159733,0.0,practice-no-stop-feedback,100,poldrack-single-stim,
101,,,,,,,,,2390.0,True,51.0,,,,,stop_signal_with_n_back,,,,,,0.0-3.0-1.0-0.0,51.0,,[],,,2390,2390.0,<p>Press the number corresponding to the number of sides that a triangle has.<p>,,,,162125,200.0,attention_check,101,attention-check,
102,600.0,350.0,350.0,350.0,500.0,<div class = bigbox><div class = starbox><img class = center src='/static/experiments/stop_signal_with_n_back/images/stopSignal.png'></img></div></div>,stop,,2000.0,,90.0,0.0,0.0,1.0,3.0,stop_signal_with_n_back,,,,,,0.0-3.0-2.0,-1.0,N/A,"[77, 90]",b,,-1,1000.0,<div class = bigbox><div class = centerbox><div class = gng_number><div class = cue-text><img class = center src='/static/experiments/stop_signal_with_n_back/images/lowercase_B.png'></img></div></div></div></div>,1.0,stop,,164329,0.0,test_trial,102,stop-signal,
103,600.0,350.0,400.0,400.0,500.0,<div class = bigbox><div class = starbox><img class = center src='/static/experiments/stop_signal_with_n_back/images/stopSignal.png'></img></div></div>,go,,2000.0,,90.0,1.0,0.0,2.0,3.0,stop_signal_with_n_back,,,,,,0.0-3.0-3.0,90.0,N/A,"[77, 90]",D,,583,1000.0,<div class = bigbox><div class = centerbox><div class = gng_number><div class = cue-text><img class = center src='/static/experiments/stop_signal_with_n_back/images/uppercase_D.png'></img></div></div></div></div>,,go,,166337,0.0,test_trial,103,stop-signal,
104,600.0,350.0,400.0,400.0,500.0,<div class = bigbox><div class = starbox><img class = center src='/static/experiments/stop_signal_with_n_back/images/stopSignal.png'></img></div></div>,go,,2000.0,,90.0,1.0,0.0,3.0,3.0,stop_signal_with_n_back,,,,,,0.0-3.0-4.0,90.0,N/A,"[77, 90]",T,,736,1000.0,<div class = bigbox><div class = centerbox><div class = gng_number><div class = cue-text><img class = center src='/static/experiments/stop_signal_with_n_back/images/uppercase_T.png'></img></div></div></div></div>,,go,,168345,0.0,test_trial,104,stop-signal,
105,600.0,350.0,400.0,400.0,500.0,<div class = bigbox><div class = starbox><img class = center src='/static/experiments/stop_signal_with_n_back/images/stopSignal.png'></img></div></div>,go,,2000.0,,90.0,1.0,0.0,4.0,3.0,stop_signal_with_n_back,,,,,,0.0-3.0-5.0,90.0,mismatch,"[77, 90]",D,,695,1000.0,<div class = bigbox><div class = centerbox><div class = gng_number><div class = cue-text><img class = center src='/static/experiments/stop_signal_with_n_back/images/uppercase_D.png'></img></div></div></div></div>,,go,,170352,0.0,test_trial,105,stop-signal,
106,600.0,350.0,400.0,400.0,500.0,<div class = bigbox><div class = starbox><img class = center src='/static/experiments/stop_signal_with_n_back/images/stopSignal.png'></img></div></div>,stop,,2000.0,,-1.0,0.0,0.0,5.0,3.0,stop_signal_with_n_back,,,,,,0.0-3.0-6.0,90.0,match,"[77, 90]",d,,740,1000.0,<div class = bigbox><div class = centerbox><div class = gng_number><div class = cue-text><img class = center src='/static/experiments/stop_signal_with_n_back/images/lowercase_D.png'></img></div></div></div></div>,0.0,stop,,172364,0.0,test_trial,106,stop-signal,
107,600.0,350.0,350.0,350.0,500.0,<div class = bigbox><div class = starbox><img class = center src='/static/experiments/stop_signal_with_n_back/images/stopSignal.png'></img></div></div>,stop,,2000.0,,-1.0,1.0,0.0,6.0,3.0,stop_signal_with_n_back,,,,,,0.0-3.0-7.0,-1.0,mismatch,"[77, 90]",b,,-1,1000.0,<div class = bigbox><div class = centerbox><div class = gng_number><div class = cue-text><img class = center src='/static/experiments/stop_signal_with_n_back/images/lowercase_B.png'></img></div></div></div></div>,1.0,stop,,174371,0.0,test_trial,107,stop-signal,
108,600.0,350.0,400.0,400.0,500.0,<div class = bigbox><div class = starbox><img class = center src='/static/experiments/stop_signal_with_n_back/images/stopSignal.png'></img></div></div>,go,,2000.0,,90.0,1.0,0.0,7.0,3.0,stop_signal_with_n_back,,,,,,0.0-3.0-8.0,90.0,mismatch,"[77, 90]",b,,798,1000.0,<div class = bigbox><div class = centerbox><div class = gng_number><div class = cue-text><img class = center src='/static/experiments/stop_signal_with_n_back/images/lowercase_B.png'></img></div></div></div></div>,,go,,176378,0.0,test_trial,108,stop-signal,
109,600.0,350.0,400.0,400.0,500.0,<div class = bigbox><div class = starbox><img class = center src='/static/experiments/stop_signal_with_n_back/images/stopSignal.png'></img></div></div>,go,,2000.0,,90.0,1.0,0.0,8.0,3.0,stop_signal_with_n_back,,,,,,0.0-3.0-9.0,90.0,mismatch,"[77, 90]",T,,728,1000.0,<div class = bigbox><div class = centerbox><div class = gng_number><div class = cue-text><img class = center src='/static/experiments/stop_signal_with_n_back/images/uppercase_T.png'></img></div></div></div></div>,,go,,178385,0.0,test_trial,109,stop-signal,
110,600.0,350.0,400.0,400.0,500.0,<div class = bigbox><div class = starbox><img class = center src='/static/experiments/stop_signal_with_n_back/images/stopSignal.png'></img></div></div>,go,,2000.0,,90.0,1.0,0.0,9.0,3.0,stop_signal_with_n_back,,,,,,0.0-3.0-10.0,90.0,mismatch,"[77, 90]",T,,848,1000.0,<div class = bigbox><div class = centerbox><div class = gng_number><div class = cue-text><img class = center src='/static/experiments/stop_signal_with_n_back/images/uppercase_T.png'></img></div></div></div></div>,,go,,180391,0.0,test_trial,110,stop-signal,
111,600.0,350.0,400.0,400.0,500.0,<div class = bigbox><div class = starbox><img class = center src='/static/experiments/stop_signal_with_n_back/images/stopSignal.png'></img></div></div>,go,,2000.0,,77.0,1.0,0.0,10.0,3.0,stop_signal_with_n_back,,,,,,0.0-3.0-11.0,77.0,match,"[77, 90]",B,,894,1000.0,<div class = bigbox><div class = centerbox><div class = gng_number><div class = cue-text><img class = center src='/static/experiments/stop_signal_with_n_back/images/uppercase_B.png'></img></div></div></div></div>,,go,,182400,0.0,test_trial,111,stop-signal,
112,600.0,350.0,400.0,400.0,500.0,<div class = bigbox><div class = starbox><img class = center src='/static/experiments/stop_signal_with_n_back/images/stopSignal.png'></img></div></div>,go,,2000.0,,90.0,1.0,0.0,11.0,3.0,stop_signal_with_n_back,,,,,,0.0-3.0-12.0,90.0,mismatch,"[77, 90]",d,,673,1000.0,<div class = bigbox><div class = centerbox><div class = gng_number><div class = cue-text><img class = center src='/static/experiments/stop_signal_with_n_back/images/lowercase_D.png'></img></div></div></div></div>,,go,,184405,0.0,test_trial,112,stop-signal,
113,600.0,350.0,400.0,400.0,500.0,<div class = bigbox><div class = starbox><img class = center src='/static/experiments/stop_signal_with_n_back/images/stopSignal.png'></img></div></div>,go,,2000.0,,90.0,1.0,0.0,12.0,3.0,stop_signal_with_n_back,,,,,,0.0-3.0-13.0,90.0,mismatch,"[77, 90]",B,,757,1000.0,<div class = bigbox><div class = centerbox><div class = gng_number><div class = cue-text><img class = center src='/static/experiments/stop_signal_with_n_back/images/uppercase_B.png'></img></div></div></div></div>,,go,,186409,0.0,test_trial,113,stop-signal,
114,600.0,350.0,400.0,400.0,500.0,<div class = bigbox><div class = starbox><img class = center src='/static/experiments/stop_signal_with_n_back/images/stopSignal.png'></img></div></div>,go,,2000.0,,90.0,1.0,0.0,13.0,3.0,stop_signal_with_n_back,,,,,,0.0-3.0-14.0,90.0,mismatch,"[77, 90]",G,,665,1000.0,<div class = bigbox><div class = centerbox><div class = gng_number><div class = cue-text><img class = center src='/static/experiments/stop_signal_with_n_back/images/uppercase_G.png'></img></div></div></div></div>,,go,,188423,0.0,test_trial,114,stop-signal,
115,600.0,350.0,400.0,400.0,500.0,<div class = bigbox><div class = starbox><img class = center src='/static/experiments/stop_signal_with_n_back/images/stopSignal.png'></img></div></div>,stop,,2000.0,,-1.0,1.0,0.0,14.0,3.0,stop_signal_with_n_back,,,,,,0.0-3.0-15.0,-1.0,mismatch,"[77, 90]",g,,-1,1000.0,<div class = bigbox><div class = centerbox><div class = gng_number><div class = cue-text><img class = center src='/static/experiments/stop_signal_with_n_back/images/lowercase_G.png'></img></div></div></div></div>,1.0,stop,,190436,0.0,test_trial,115,stop-signal,
116,600.0,350.0,450.0,450.0,500.0,<div class = bigbox><div class = starbox><img class = center src='/static/experiments/stop_signal_with_n_back/images/stopSignal.png'></img></div></div>,stop,,2000.0,,-1.0,0.0,0.0,15.0,3.0,stop_signal_with_n_back,,,,,,0.0-3.0-16.0,77.0,match,"[77, 90]",b,,765,1000.0,<div class = bigbox><div class = centerbox><div class = gng_number><div class = cue-text><img class = center src='/static/experiments/stop_signal_with_n_back/images/lowercase_B.png'></img></div></div></div></div>,0.0,stop,,192442,0.0,test_trial,116,stop-signal,
117,600.0,350.0,400.0,400.0,500.0,<div class = bigbox><div class = starbox><img class = center src='/static/experiments/stop_signal_with_n_back/images/stopSignal.png'></img></div></div>,go,,2000.0,,90.0,0.0,0.0,16.0,3.0,stop_signal_with_n_back,,,,,,0.0-3.0-17.0,77.0,mismatch,"[77, 90]",t,,690,1000.0,<div class = bigbox><div class = centerbox><div class = gng_number><div class = cue-text><img class = center src='/static/experiments/stop_signal_with_n_back/images/lowercase_T.png'></img></div></div></div></div>,,go,,194445,0.0,test_trial,117,stop-signal,
118,600.0,350.0,400.0,400.0,500.0,<div class = bigbox><div class = starbox><img class = center src='/static/experiments/stop_signal_with_n_back/images/stopSignal.png'></img></div></div>,go,,2000.0,,90.0,0.0,0.0,17.0,3.0,stop_signal_with_n_back,,,,,,0.0-3.0-18.0,77.0,mismatch,"[77, 90]",B,,619,1000.0,<div class = bigbox><div class = centerbox><div class = gng_number><div class = cue-text><img class = center src='/static/experiments/stop_signal_with_n_back/images/uppercase_B.png'></img></div></div></div></div>,,go,,196453,0.0,test_trial,118,stop-signal,
119,600.0,350.0,400.0,400.0,500.0,<div class = bigbox><div class = starbox><img class = center src='/static/experiments/stop_signal_with_n_back/images/stopSignal.png'></img></div></div>,go,,2000.0,,90.0,0.0,0.0,18.0,3.0,stop_signal_with_n_back,,,,,,0.0-3.0-19.0,77.0,mismatch,"[77, 90]",T,,603,1000.0,<div class = bigbox><div class = centerbox><div class = gng_number><div class = cue-text><img class = center src='/static/experiments/stop_signal_with_n_back/images/uppercase_T.png'></img></div></div></div></div>,,go,,198460,0.0,test_trial,119,stop-signal,
120,600.0,350.0,400.0,400.0,500.0,<div class = bigbox><div class = starbox><img class = center src='/static/experiments/stop_signal_with_n_back/images/stopSignal.png'></img></div></div>,stop,,2000.0,,-1.0,1.0,0.0,19.0,3.0,stop_signal_with_n_back,,,,,,0.0-3.0-20.0,-1.0,mismatch,"[77, 90]",g,,-1,1000.0,<div class = bigbox><div class = centerbox><div class = gng_number><div class = cue-text><img class = center src='/static/experiments/stop_signal_with_n_back/images/lowercase_G.png'></img></div></div></div></div>,1.0,stop,,200463,0.0,test_trial,120,stop-signal,
121,600.0,350.0,450.0,450.0,500.0,<div class = bigbox><div class = starbox><img class = center src='/static/experiments/stop_signal_with_n_back/images/stopSignal.png'></img></div></div>,stop,,2000.0,,-1.0,0.0,0.0,20.0,3.0,stop_signal_with_n_back,,,,,,0.0-3.0-21.0,90.0,match,"[77, 90]",B,,673,1000.0,<div class = bigbox><div class = centerbox><div class = gng_number><div class = cue-text><img class = center src='/static/experiments/stop_signal_with_n_back/images/uppercase_B.png'></img></div></div></div></div>,0.0,stop,,202470,0.0,test_trial,121,stop-signal,
122,600.0,350.0,400.0,400.0,500.0,<div class = bigbox><div class = starbox><img class = center src='/static/experiments/stop_signal_with_n_back/images/stopSignal.png'></img></div></div>,go,,2000.0,,90.0,1.0,0.0,21.0,3.0,stop_signal_with_n_back,,,,,,0.0-3.0-22.0,90.0,mismatch,"[77, 90]",d,,646,1000.0,<div class = bigbox><div class = centerbox><div class = gng_number><div class = cue-text><img class = center src='/static/experiments/stop_signal_with_n_back/images/lowercase_D.png'></img></div></div></div></div>,,go,,204474,0.0,test_trial,122,stop-signal,
123,600.0,350.0,400.0,400.0,500.0,<div class = bigbox><div class = starbox><img class = center src='/static/experiments/stop_signal_with_n_back/images/stopSignal.png'></img></div></div>,go,,2000.0,,90.0,1.0,0.0,22.0,3.0,stop_signal_with_n_back,,,,,,0.0-3.0-23.0,90.0,mismatch,"[77, 90]",T,,600,1000.0,<div class = bigbox><div class = centerbox><div class = gng_number><div class = cue-text><img class = center src='/static/experiments/stop_signal_with_n_back/images/uppercase_T.png'></img></div></div></div></div>,,go,,206478,0.0,test_trial,123,stop-signal,
124,600.0,350.0,400.0,400.0,500.0,<div class = bigbox><div class = starbox><img class = center src='/static/experiments/stop_signal_with_n_back/images/stopSignal.png'></img></div></div>,go,,2000.0,,90.0,1.0,0.0,23.0,3.0,stop_signal_with_n_back,,,,,,0.0-3.0-24.0,90.0,mismatch,"[77, 90]",V,,566,1000.0,<div class = bigbox><div class = centerbox><div class = gng_number><div class = cue-text><img class = center src='/static/experiments/stop_signal_with_n_back/images/uppercase_V.png'></img></div></div></div></div>,,go,,208484,0.0,test_trial,124,stop-signal,
125,600.0,350.0,400.0,400.0,500.0,<div class = bigbox><div class = starbox><img class = center src='/static/experiments/stop_signal_with_n_back/images/stopSignal.png'></img></div></div>,stop,,2000.0,,-1.0,1.0,0.0,24.0,3.0,stop_signal_with_n_back,,,,,,0.0-3.0-25.0,-1.0,mismatch,"[77, 90]",g,,-1,1000.0,<div class = bigbox><div class = centerbox><div class = gng_number><div class = cue-text><img class = center src='/static/experiments/stop_signal_with_n_back/images/lowercase_G.png'></img></div></div></div></div>,1.0,stop,,210488,0.0,test_trial,125,stop-signal,
126,600.0,350.0,450.0,450.0,500.0,<div class = bigbox><div class = starbox><img class = center src='/static/experiments/stop_signal_with_n_back/images/stopSignal.png'></img></div></div>,go,,2000.0,,77.0,0.0,0.0,25.0,3.0,stop_signal_with_n_back,,,,,,0.0-3.0-26.0,90.0,match,"[77, 90]",T,,483,1000.0,<div class = bigbox><div class = centerbox><div class = gng_number><div class = cue-text><img class = center src='/static/experiments/stop_signal_with_n_back/images/uppercase_T.png'></img></div></div></div></div>,,go,,212490,0.0,test_trial,126,stop-signal,
127,600.0,350.0,450.0,450.0,500.0,<div class = bigbox><div class = starbox><img class = center src='/static/experiments/stop_signal_with_n_back/images/stopSignal.png'></img></div></div>,stop,,2000.0,,-1.0,1.0,0.0,26.0,3.0,stop_signal_with_n_back,,,,,,0.0-3.0-27.0,-1.0,mismatch,"[77, 90]",t,,-1,1000.0,<div class = bigbox><div class = centerbox><div class = gng_number><div class = cue-text><img class = center src='/static/experiments/stop_signal_with_n_back/images/lowercase_T.png'></img></div></div></div></div>,1.0,stop,,214503,0.0,test_trial,127,stop-signal,
128,600.0,350.0,500.0,500.0,500.0,<div class = bigbox><div class = starbox><img class = center src='/static/experiments/stop_signal_with_n_back/images/stopSignal.png'></img></div></div>,go,,2000.0,,90.0,1.0,0.0,27.0,3.0,stop_signal_with_n_back,,,,,,0.0-3.0-28.0,90.0,mismatch,"[77, 90]",b,,565,1000.0,<div class = bigbox><div class = centerbox><div class = gng_number><div class = cue-text><img class = center src='/static/experiments/stop_signal_with_n_back/images/lowercase_B.png'></img></div></div></div></div>,,go,,216507,0.0,test_trial,128,stop-signal,
129,600.0,350.0,500.0,500.0,500.0,<div class = bigbox><div class = starbox><img class = center src='/static/experiments/stop_signal_with_n_back/images/stopSignal.png'></img></div></div>,go,,2000.0,,90.0,1.0,0.0,28.0,3.0,stop_signal_with_n_back,,,,,,0.0-3.0-29.0,90.0,mismatch,"[77, 90]",d,,768,1000.0,<div class = bigbox><div class = centerbox><div class = gng_number><div class = cue-text><img class = center src='/static/experiments/stop_signal_with_n_back/images/lowercase_D.png'></img></div></div></div></div>,,go,,218511,0.0,test_trial,129,stop-signal,
130,600.0,350.0,500.0,500.0,500.0,<div class = bigbox><div class = starbox><img class = center src='/static/experiments/stop_signal_with_n_back/images/stopSignal.png'></img></div></div>,go,,2000.0,,90.0,1.0,0.0,29.0,3.0,stop_signal_with_n_back,,,,,,0.0-3.0-30.0,90.0,mismatch,"[77, 90]",G,,721,1000.0,<div class = bigbox><div class = centerbox><div class = gng_number><div class = cue-text><img class = center src='/static/experiments/stop_signal_with_n_back/images/uppercase_G.png'></img></div></div></div></div>,,go,,220518,0.0,test_trial,130,stop-signal,
131,600.0,350.0,500.0,500.0,500.0,<div class = bigbox><div class = starbox><img class = center src='/static/experiments/stop_signal_with_n_back/images/stopSignal.png'></img></div></div>,stop,,2000.0,,-1.0,1.0,0.0,30.0,3.0,stop_signal_with_n_back,,,,,,0.0-3.0-31.0,-1.0,mismatch,"[77, 90]",t,,-1,1000.0,<div class = bigbox><div class = centerbox><div class = gng_number><div class = cue-text><img class = center src='/static/experiments/stop_signal_with_n_back/images/lowercase_T.png'></img></div></div></div></div>,1.0,stop,,222521,0.0,test_trial,131,stop-signal,
132,600.0,350.0,550.0,550.0,500.0,<div class = bigbox><div class = starbox><img class = center src='/static/experiments/stop_signal_with_n_back/images/stopSignal.png'></img></div></div>,go,,2000.0,,90.0,0.0,0.0,31.0,3.0,stop_signal_with_n_back,,,,,,0.0-3.0-32.0,77.0,mismatch,"[77, 90]",B,,664,1000.0,<div class = bigbox><div class = centerbox><div class = gng_number><div class = cue-text><img class = center src='/static/experiments/stop_signal_with_n_back/images/uppercase_B.png'></img></div></div></div></div>,,go,,224528,0.0,test_trial,132,stop-signal,
133,600.0,350.0,550.0,550.0,500.0,<div class = bigbox><div class = starbox><img class = center src='/static/experiments/stop_signal_with_n_back/images/stopSignal.png'></img></div></div>,stop,,2000.0,,-1.0,0.0,0.0,32.0,3.0,stop_signal_with_n_back,,,,,,0.0-3.0-33.0,77.0,mismatch,"[77, 90]",d,,609,1000.0,<div class = bigbox><div class = centerbox><div class = gng_number><div class = cue-text><img class = center src='/static/experiments/stop_signal_with_n_back/images/lowercase_D.png'></img></div></div></div></div>,0.0,stop,,226535,0.0,test_trial,133,stop-signal,
134,600.0,350.0,500.0,500.0,500.0,<div class = bigbox><div class = starbox><img class = center src='/static/experiments/stop_signal_with_n_back/images/stopSignal.png'></img></div></div>,go,,2000.0,,90.0,0.0,0.0,33.0,3.0,stop_signal_with_n_back,,,,,,0.0-3.0-34.0,77.0,mismatch,"[77, 90]",G,,714,1000.0,<div class = bigbox><div class = centerbox><div class = gng_number><div class = cue-text><img class = center src='/static/experiments/stop_signal_with_n_back/images/uppercase_G.png'></img></div></div></div></div>,,go,,228542,0.0,test_trial,134,stop-signal,
135,600.0,350.0,500.0,500.0,500.0,<div class = bigbox><div class = starbox><img class = center src='/static/experiments/stop_signal_with_n_back/images/stopSignal.png'></img></div></div>,stop,,2000.0,,-1.0,0.0,0.0,34.0,3.0,stop_signal_with_n_back,,,,,,0.0-3.0-35.0,90.0,mismatch,"[77, 90]",V,,754,1000.0,<div class = bigbox><div class = centerbox><div class = gng_number><div class = cue-text><img class = center src='/static/experiments/stop_signal_with_n_back/images/uppercase_V.png'></img></div></div></div></div>,0.0,stop,,230551,0.0,test_trial,135,stop-signal,
136,600.0,350.0,450.0,450.0,500.0,<div class = bigbox><div class = starbox><img class = center src='/static/experiments/stop_signal_with_n_back/images/stopSignal.png'></img></div></div>,go,,2000.0,,77.0,0.0,0.0,35.0,3.0,stop_signal_with_n_back,,,,,,0.0-3.0-36.0,90.0,match,"[77, 90]",D,,932,1000.0,<div class = bigbox><div class = centerbox><div class = gng_number><div class = cue-text><img class = center src='/static/experiments/stop_signal_with_n_back/images/uppercase_D.png'></img></div></div></div></div>,,go,,232563,0.0,test_trial,136,stop-signal,
137,600.0,350.0,450.0,450.0,500.0,<div class = bigbox><div class = starbox><img class = center src='/static/experiments/stop_signal_with_n_back/images/stopSignal.png'></img></div></div>,go,,2000.0,,90.0,1.0,0.0,36.0,3.0,stop_signal_with_n_back,,,,,,0.0-3.0-37.0,90.0,mismatch,"[77, 90]",T,,804,1000.0,<div class = bigbox><div class = centerbox><div class = gng_number><div class = cue-text><img class = center src='/static/experiments/stop_signal_with_n_back/images/uppercase_T.png'></img></div></div></div></div>,,go,,234570,0.0,test_trial,137,stop-signal,
138,600.0,350.0,450.0,450.0,500.0,<div class = bigbox><div class = starbox><img class = center src='/static/experiments/stop_signal_with_n_back/images/stopSignal.png'></img></div></div>,stop,,2000.0,,-1.0,0.0,0.0,37.0,3.0,stop_signal_with_n_back,,,,,,0.0-3.0-38.0,90.0,mismatch,"[77, 90]",g,,1003,1000.0,<div class = bigbox><div class = centerbox><div class = gng_number><div class = cue-text><img class = center src='/static/experiments/stop_signal_with_n_back/images/lowercase_G.png'></img></div></div></div></div>,0.0,stop,,236581,0.0,test_trial,138,stop-signal,
139,600.0,350.0,400.0,400.0,500.0,<div class = bigbox><div class = starbox><img class = center src='/static/experiments/stop_signal_with_n_back/images/stopSignal.png'></img></div></div>,go,,2000.0,,90.0,0.0,0.0,38.0,3.0,stop_signal_with_n_back,,,,,,0.0-3.0-39.0,77.0,mismatch,"[77, 90]",G,,989,1000.0,<div class = bigbox><div class = centerbox><div class = gng_number><div class = cue-text><img class = center src='/static/experiments/stop_signal_with_n_back/images/uppercase_G.png'></img></div></div></div></div>,,go,,238587,0.0,test_trial,139,stop-signal,
140,600.0,350.0,400.0,400.0,500.0,<div class = bigbox><div class = starbox><img class = center src='/static/experiments/stop_signal_with_n_back/images/stopSignal.png'></img></div></div>,go,,2000.0,,90.0,0.0,0.0,39.0,3.0,stop_signal_with_n_back,,,,,,0.0-3.0-40.0,77.0,mismatch,"[77, 90]",G,,1262,1000.0,<div class = bigbox><div class = centerbox><div class = gng_number><div class = cue-text><img class = center src='/static/experiments/stop_signal_with_n_back/images/uppercase_G.png'></img></div></div></div></div>,,go,,240592,0.0,test_trial,140,stop-signal,
141,600.0,350.0,400.0,400.0,500.0,<div class = bigbox><div class = starbox><img class = center src='/static/experiments/stop_signal_with_n_back/images/stopSignal.png'></img></div></div>,stop,,2000.0,,-1.0,1.0,0.0,40.0,3.0,stop_signal_with_n_back,,,,,,0.0-3.0-41.0,-1.0,mismatch,"[77, 90]",d,,-1,1000.0,<div class = bigbox><div class = centerbox><div class = gng_number><div class = cue-text><img class = center src='/static/experiments/stop_signal_with_n_back/images/lowercase_D.png'></img></div></div></div></div>,1.0,stop,,242595,0.0,test_trial,141,stop-signal,
142,600.0,350.0,450.0,450.0,500.0,<div class = bigbox><div class = starbox><img class = center src='/static/experiments/stop_signal_with_n_back/images/stopSignal.png'></img></div></div>,go,,2000.0,,90.0,0.0,0.0,41.0,3.0,stop_signal_with_n_back,,,,,,0.0-3.0-42.0,77.0,mismatch,"[77, 90]",D,,621,1000.0,<div class = bigbox><div class = centerbox><div class = gng_number><div class = cue-text><img class = center src='/static/experiments/stop_signal_with_n_back/images/uppercase_D.png'></img></div></div></div></div>,,go,,244603,0.0,test_trial,142,stop-signal,
143,600.0,350.0,450.0,450.0,500.0,<div class = bigbox><div class = starbox><img class = center src='/static/experiments/stop_signal_with_n_back/images/stopSignal.png'></img></div></div>,go,,2000.0,,77.0,1.0,0.0,42.0,3.0,stop_signal_with_n_back,,,,,,0.0-3.0-43.0,77.0,match,"[77, 90]",g,,838,1000.0,<div class = bigbox><div class = centerbox><div class = gng_number><div class = cue-text><img class = center src='/static/experiments/stop_signal_with_n_back/images/lowercase_G.png'></img></div></div></div></div>,,go,,246609,0.0,test_trial,143,stop-signal,
144,600.0,350.0,450.0,450.0,500.0,<div class = bigbox><div class = starbox><img class = center src='/static/experiments/stop_signal_with_n_back/images/stopSignal.png'></img></div></div>,go,,2000.0,,77.0,1.0,0.0,43.0,3.0,stop_signal_with_n_back,,,,,,0.0-3.0-44.0,77.0,match,"[77, 90]",D,,487,1000.0,<div class = bigbox><div class = centerbox><div class = gng_number><div class = cue-text><img class = center src='/static/experiments/stop_signal_with_n_back/images/uppercase_D.png'></img></div></div></div></div>,,go,,248616,0.0,test_trial,144,stop-signal,
145,600.0,350.0,450.0,450.0,500.0,<div class = bigbox><div class = starbox><img class = center src='/static/experiments/stop_signal_with_n_back/images/stopSignal.png'></img></div></div>,stop,,2000.0,,-1.0,0.0,0.0,44.0,3.0,stop_signal_with_n_back,,,,,,0.0-3.0-45.0,77.0,mismatch,"[77, 90]",G,,689,1000.0,<div class = bigbox><div class = centerbox><div class = gng_number><div class = cue-text><img class = center src='/static/experiments/stop_signal_with_n_back/images/uppercase_G.png'></img></div></div></div></div>,0.0,stop,,250624,0.0,test_trial,145,stop-signal,
146,600.0,350.0,400.0,400.0,500.0,<div class = bigbox><div class = starbox><img class = center src='/static/experiments/stop_signal_with_n_back/images/stopSignal.png'></img></div></div>,go,,2000.0,,90.0,0.0,0.0,45.0,3.0,stop_signal_with_n_back,,,,,,0.0-3.0-46.0,77.0,mismatch,"[77, 90]",V,,711,1000.0,<div class = bigbox><div class = centerbox><div class = gng_number><div class = cue-text><img class = center src='/static/experiments/stop_signal_with_n_back/images/uppercase_V.png'></img></div></div></div></div>,,go,,252640,0.0,test_trial,146,stop-signal,
147,600.0,350.0,400.0,400.0,500.0,<div class = bigbox><div class = starbox><img class = center src='/static/experiments/stop_signal_with_n_back/images/stopSignal.png'></img></div></div>,stop,,2000.0,,-1.0,1.0,0.0,46.0,3.0,stop_signal_with_n_back,,,,,,0.0-3.0-47.0,-1.0,mismatch,"[77, 90]",B,,-1,1000.0,<div class = bigbox><div class = centerbox><div class = gng_number><div class = cue-text><img class = center src='/static/experiments/stop_signal_with_n_back/images/uppercase_B.png'></img></div></div></div></div>,1.0,stop,,254647,0.0,test_trial,147,stop-signal,
148,600.0,350.0,450.0,450.0,500.0,<div class = bigbox><div class = starbox><img class = center src='/static/experiments/stop_signal_with_n_back/images/stopSignal.png'></img></div></div>,go,,2000.0,,77.0,0.0,0.0,47.0,3.0,stop_signal_with_n_back,,,,,,0.0-3.0-48.0,90.0,match,"[77, 90]",G,,513,1000.0,<div class = bigbox><div class = centerbox><div class = gng_number><div class = cue-text><img class = center src='/static/experiments/stop_signal_with_n_back/images/uppercase_G.png'></img></div></div></div></div>,,go,,256654,0.0,test_trial,148,stop-signal,
149,600.0,350.0,450.0,450.0,500.0,<div class = bigbox><div class = starbox><img class = center src='/static/experiments/stop_signal_with_n_back/images/stopSignal.png'></img></div></div>,go,,2000.0,,90.0,1.0,0.0,48.0,3.0,stop_signal_with_n_back,,,,,,0.0-3.0-49.0,90.0,mismatch,"[77, 90]",t,,531,1000.0,<div class = bigbox><div class = centerbox><div class = gng_number><div class = cue-text><img class = center src='/static/experiments/stop_signal_with_n_back/images/lowercase_T.png'></img></div></div></div></div>,,go,,258660,0.0,test_trial,149,stop-signal,
150,,,,,,,,,5211.0,,,,,,,stop_signal_with_n_back,,,,,,0.0-3.1-0.1,13.0,,[13],,,5211,5211.0,"<div class = bigbox><div class = picture_box><p class = block-text><font color=""white""><br>Please take this time to read your feedback and to take a short break! Press enter to continue.</p><p class = block-text>You have completed: 1 out of 6 blocks of trials.</p><p class = block-text>Your accuracy is too low.  Remember: <br><ul style = ""text-align:left;""><li>Match the current letter to the letter that appeared some number of trials ago</li><li>If they match, press the M Key</li><li>If they mismatch, press the Z Key</li><li>Do not respond if you see a star!</li></ul></p><p class = block-text><i>For the next round of trials, your delay is 2</i>.  Press Enter to continue.</font></p></div></div>",,,,263892,0.0,practice-no-stop-feedback,150,poldrack-single-stim,
151,,,,,,,,,4424.0,True,87.0,,,,,stop_signal_with_n_back,,,,,,0.0-3.1-1.1-0.1,87.0,,[],,,4424,4424.0,"<p>Press the letter key that is like the letter key indicated at the end of this instructions page, but flipped upside down.<p><p>Press the ""M"" key.</p>",,,,268318,200.0,attention_check,151,attention-check,
152,600.0,350.0,450.0,350.0,500.0,<div class = bigbox><div class = starbox><img class = center src='/static/experiments/stop_signal_with_n_back/images/stopSignal.png'></img></div></div>,go,,2000.0,,90.0,1.0,1.0,1.0,2.0,stop_signal_with_n_back,,,,,,0.0-3.1-2.1,90.0,N/A,"[77, 90]",b,,834,1000.0,<div class = bigbox><div class = centerbox><div class = gng_number><div class = cue-text><img class = center src='/static/experiments/stop_signal_with_n_back/images/lowercase_B.png'></img></div></div></div></div>,,go,,270526,0.0,test_trial,152,stop-signal,
153,600.0,350.0,450.0,350.0,500.0,<div class = bigbox><div class = starbox><img class = center src='/static/experiments/stop_signal_with_n_back/images/stopSignal.png'></img></div></div>,go,,2000.0,,90.0,1.0,1.0,2.0,2.0,stop_signal_with_n_back,,,,,,0.0-3.1-3.1,90.0,N/A,"[77, 90]",D,,606,1000.0,<div class = bigbox><div class = centerbox><div class = gng_number><div class = cue-text><img class = center src='/static/experiments/stop_signal_with_n_back/images/uppercase_D.png'></img></div></div></div></div>,,go,,272530,0.0,test_trial,153,stop-signal,
154,600.0,350.0,450.0,350.0,500.0,<div class = bigbox><div class = starbox><img class = center src='/static/experiments/stop_signal_with_n_back/images/stopSignal.png'></img></div></div>,stop,,2000.0,,90.0,0.0,1.0,3.0,2.0,stop_signal_with_n_back,,,,,,0.0-3.1-4.1,-1.0,mismatch,"[77, 90]",T,,-1,1000.0,<div class = bigbox><div class = centerbox><div class = gng_number><div class = cue-text><img class = center src='/static/experiments/stop_signal_with_n_back/images/uppercase_T.png'></img></div></div></div></div>,1.0,stop,,274537,0.0,test_trial,154,stop-signal,
155,600.0,400.0,450.0,400.0,500.0,<div class = bigbox><div class = starbox><img class = center src='/static/experiments/stop_signal_with_n_back/images/stopSignal.png'></img></div></div>,stop,,2000.0,,-1.0,0.0,1.0,4.0,2.0,stop_signal_with_n_back,,,,,,0.0-3.1-5.1,90.0,mismatch,"[77, 90]",g,,536,1000.0,<div class = bigbox><div class = centerbox><div class = gng_number><div class = cue-text><img class = center src='/static/experiments/stop_signal_with_n_back/images/lowercase_G.png'></img></div></div></div></div>,0.0,stop,,276542,0.0,test_trial,155,stop-signal,
156,600.0,350.0,450.0,350.0,500.0,<div class = bigbox><div class = starbox><img class = center src='/static/experiments/stop_signal_with_n_back/images/stopSignal.png'></img></div></div>,go,,2000.0,,90.0,0.0,1.0,5.0,2.0,stop_signal_with_n_back,,,,,,0.0-3.1-6.1,77.0,mismatch,"[77, 90]",d,,642,1000.0,<div class = bigbox><div class = centerbox><div class = gng_number><div class = cue-text><img class = center src='/static/experiments/stop_signal_with_n_back/images/lowercase_D.png'></img></div></div></div></div>,,go,,278546,0.0,test_trial,156,stop-signal,
157,600.0,350.0,450.0,350.0,500.0,<div class = bigbox><div class = starbox><img class = center src='/static/experiments/stop_signal_with_n_back/images/stopSignal.png'></img></div></div>,go,,2000.0,,77.0,1.0,1.0,6.0,2.0,stop_signal_with_n_back,,,,,,0.0-3.1-7.1,77.0,match,"[77, 90]",G,,630,1000.0,<div class = bigbox><div class = centerbox><div class = gng_number><div class = cue-text><img class = center src='/static/experiments/stop_signal_with_n_back/images/uppercase_G.png'></img></div></div></div></div>,,go,,280553,0.0,test_trial,157,stop-signal,
158,600.0,350.0,450.0,350.0,500.0,<div class = bigbox><div class = starbox><img class = center src='/static/experiments/stop_signal_with_n_back/images/stopSignal.png'></img></div></div>,go,,2000.0,,90.0,0.0,1.0,7.0,2.0,stop_signal_with_n_back,,,,,,0.0-3.1-8.1,77.0,mismatch,"[77, 90]",t,,626,1000.0,<div class = bigbox><div class = centerbox><div class = gng_number><div class = cue-text><img class = center src='/static/experiments/stop_signal_with_n_back/images/lowercase_T.png'></img></div></div></div></div>,,go,,282565,0.0,test_trial,158,stop-signal,
159,600.0,350.0,450.0,350.0,500.0,<div class = bigbox><div class = starbox><img class = center src='/static/experiments/stop_signal_with_n_back/images/stopSignal.png'></img></div></div>,go,,2000.0,,90.0,1.0,1.0,8.0,2.0,stop_signal_with_n_back,,,,,,0.0-3.1-9.1,90.0,mismatch,"[77, 90]",V,,972,1000.0,<div class = bigbox><div class = centerbox><div class = gng_number><div class = cue-text><img class = center src='/static/experiments/stop_signal_with_n_back/images/uppercase_V.png'></img></div></div></div></div>,,go,,284572,0.0,test_trial,159,stop-signal,
160,600.0,350.0,450.0,350.0,500.0,<div class = bigbox><div class = starbox><img class = center src='/static/experiments/stop_signal_with_n_back/images/stopSignal.png'></img></div></div>,go,,2000.0,,90.0,1.0,1.0,9.0,2.0,stop_signal_with_n_back,,,,,,0.0-3.1-10.1,90.0,mismatch,"[77, 90]",D,,621,1000.0,<div class = bigbox><div class = centerbox><div class = gng_number><div class = cue-text><img class = center src='/static/experiments/stop_signal_with_n_back/images/uppercase_D.png'></img></div></div></div></div>,,go,,286578,0.0,test_trial,160,stop-signal,
161,600.0,350.0,450.0,350.0,500.0,<div class = bigbox><div class = starbox><img class = center src='/static/experiments/stop_signal_with_n_back/images/stopSignal.png'></img></div></div>,stop,,2000.0,,-1.0,1.0,1.0,10.0,2.0,stop_signal_with_n_back,,,,,,0.0-3.1-11.1,-1.0,mismatch,"[77, 90]",G,,-1,1000.0,<div class = bigbox><div class = centerbox><div class = gng_number><div class = cue-text><img class = center src='/static/experiments/stop_signal_with_n_back/images/uppercase_G.png'></img></div></div></div></div>,1.0,stop,,288586,0.0,test_trial,161,stop-signal,
162,600.0,400.0,450.0,400.0,500.0,<div class = bigbox><div class = starbox><img class = center src='/static/experiments/stop_signal_with_n_back/images/stopSignal.png'></img></div></div>,go,,2000.0,,90.0,0.0,1.0,11.0,2.0,stop_signal_with_n_back,,,,,,0.0-3.1-12.1,77.0,mismatch,"[77, 90]",v,,519,1000.0,<div class = bigbox><div class = centerbox><div class = gng_number><div class = cue-text><img class = center src='/static/experiments/stop_signal_with_n_back/images/lowercase_V.png'></img></div></div></div></div>,,go,,290590,0.0,test_trial,162,stop-signal,
