,SSD_stay,SSD_switch,SS_delay,SS_duration,SS_stimulus,SS_trial_type,att_check_percent,block_duration,correct,correct_response,correct_trial,current_block,current_trial,exp_id,final_accuracy,final_avg_rt,final_credit_var,final_missed_percent,final_responses_ok,internal_node_id,key_press,magnitude,number,parity,possible_responses,predictable_condition,predictable_dimension,responses,rt,stim_duration,stimulus,stop_acc,stop_signal_condition,text,time_elapsed,timing_post_trial,trial_id,trial_index,trial_type,view_history,whichQuadrant
0,,,,,,,,9305.0,,,,,,stop_signal_with_predictable_task_switching,,,,,,0.0-0.0-0.0,13.0,,,,[13],,,,9305,9305.0,<div class = bigbox><div class = picture_box><p class = block-text>Welcome to the experiment. This experiment will take around 10 minutes. Press <i>enter</i> to begin.</p></div></div>,,,,9307,0.0,feedback_block,0,poldrack-single-stim,,
1,,,,,,,,,,,,,,stop_signal_with_predictable_task_switching,,,,,,0.0-0.0-1.0,,,,,,,,,14851,,,,,,24160,,instruction,1,poldrack-instructions,"[{""page_index"":0,""viewing_time"":11394},{""page_index"":1,""viewing_time"":96},{""page_index"":2,""viewing_time"":3360}]",
2,,,,,,,,500.0,,,,,,stop_signal_with_predictable_task_switching,,,,,,0.0-0.0-2.0,-1.0,,,,none,,,,-1,500.0,<div class = bigbox><div class = quad_box><div class = decision-top-left><div class = fixation>+</div></div></div></div>,,,,25669,0.0,practice_fixation,2,poldrack-single-stim,,
3,350.0,350.0,,500.0,<div class = bigbox><div class = quad_box><div class = decision-top-left><img class = center src='/static/experiments/stop_signal_with_predictable_task_switching/images/stopSignal.png'></img></div></div></div>,go,,2000.0,,90.0,0.0,0.0,1.0,stop_signal_with_predictable_task_switching,,,,,,0.0-0.0-3.0,77.0,low,1.0,odd,"[77, 90]",N/A,magnitude,,1940,1000.0,<div class = bigbox><div class = quad_box><div class = decision-top-left><div class = gng_number><div class = cue-text><img class = center src='/static/experiments/stop_signal_with_predictable_task_switching/images/1.png'></img></div></div></div></div></div>,,go,,27676,0.0,practice_trial,3,stop-signal,,1.0
4,,,,,,,,500.0,,,,,,stop_signal_with_predictable_task_switching,,,,,,0.0-0.0-4.0,-1.0,,,,none,,,,-1,500.0,"<div class = fb_box><div class = center-text><font size = 20>Incorrect</font></div></div><div class = prompt_box><p class = center-block-text style = ""font-size:16px; line-height:80%;"">Do not respond if a star appears!</p><p class = center-block-text style = ""font-size:16px; line-height:80%;"">Top 2 quadrants: Judge number on magnitude</p><p class = center-block-text style = ""font-size:16px; line-height:80%;"">high: M Key | low: Z Key</p><p class = center-block-text style = ""font-size:16px; line-height:80%;"">Bottom 2 quadrants: Judge number on parity</p><p class = center-block-text style = ""font-size:16px; line-height:80%;"">even: M Key | odd: Z Key</p></div>",,,,28184,0.0,practice-stop-feedback,4,poldrack-single-stim,,
5,,,,,,,,500.0,,,,,,stop_signal_with_predictable_task_switching,,,,,,0.0-0.0-5.0,-1.0,,,,none,,,,-1,500.0,<div class = bigbox><div class = quad_box><div class = decision-top-right><div class = fixation>+</div></div></div></div>,,,,28688,0.0,practice_fixation,5,poldrack-single-stim,,
6,350.0,350.0,350.0,500.0,<div class = bigbox><div class = quad_box><div class = decision-top-right><img class = center src='/static/experiments/stop_signal_with_predictable_task_switching/images/stopSignal.png'></img></div></div></div>,go,,2000.0,,77.0,0.0,0.0,2.0,stop_signal_with_predictable_task_switching,,,,,,0.0-0.0-6.0,90.0,high,6.0,even,"[77, 90]",stay,magnitude,,895,1000.0,<div class = bigbox><div class = quad_box><div class = decision-top-right><div class = gng_number><div class = cue-text><img class = center src='/static/experiments/stop_signal_with_predictable_task_switching/images/6.png'></img></div></div></div></div></div>,,go,,30695,0.0,practice_trial,6,stop-signal,,2.0
7,,,,,,,,500.0,,,,,,stop_signal_with_predictable_task_switching,,,,,,0.0-0.0-7.0,-1.0,,,,none,,,,-1,500.0,"<div class = fb_box><div class = center-text><font size = 20>Incorrect</font></div></div><div class = prompt_box><p class = center-block-text style = ""font-size:16px; line-height:80%;"">Do not respond if a star appears!</p><p class = center-block-text style = ""font-size:16px; line-height:80%;"">Top 2 quadrants: Judge number on magnitude</p><p class = center-block-text style = ""font-size:16px; line-height:80%;"">high: M Key | low: Z Key</p><p class = center-block-text style = ""font-size:16px; line-height:80%;"">Bottom 2 quadrants: Judge number on parity</p><p class = center-block-text style = ""font-size:16px; line-height:80%;"">even: M Key | odd: Z Key</p></div>",,,,31205,0.0,practice-stop-feedback,7,poldrack-single-stim,,
8,,,,,,,,500.0,,,,,,stop_signal_with_predictable_task_switching,,,,,,0.0-0.0-8.0,-1.0,,,,none,,,,-1,500.0,<div class = bigbox><div class = quad_box><div class = decision-bottom-right><div class = fixation>+</div></div></div></div>,,,,31712,0.0,practice_fixation,8,poldrack-single-stim,,
9,350.0,350.0,350.0,500.0,<div class = bigbox><div class = quad_box><div class = decision-bottom-right><img class = center src='/static/experiments/stop_signal_with_predictable_task_switching/images/stopSignal.png'></img></div></div></div>,stop,,2000.0,,-1.0,1.0,0.0,3.0,stop_signal_with_predictable_task_switching,,,,,,0.0-0.0-9.0,-1.0,low,2.0,even,"[77, 90]",switch,parity,,-1,1000.0,<div class = bigbox><div class = quad_box><div class = decision-bottom-right><div class = gng_number><div class = cue-text><img class = center src='/static/experiments/stop_signal_with_predictable_task_switching/images/2.png'></img></div></div></div></div></div>,1.0,stop,,33718,0.0,practice_trial,9,stop-signal,,3.0
10,,,,,,,,500.0,,,,,,stop_signal_with_predictable_task_switching,,,,,,0.0-0.0-10.0,-1.0,,,,none,,,,-1,500.0,"<div class = fb_box><div class = center-text><font size = 20>Correct!</font></div></div><div class = prompt_box><p class = center-block-text style = ""font-size:16px; line-height:80%;"">Do not respond if a star appears!</p><p class = center-block-text style = ""font-size:16px; line-height:80%;"">Top 2 quadrants: Judge number on magnitude</p><p class = center-block-text style = ""font-size:16px; line-height:80%;"">high: M Key | low: Z Key</p><p class = center-block-text style = ""font-size:16px; line-height:80%;"">Bottom 2 quadrants: Judge number on parity</p><p class = center-block-text style = ""font-size:16px; line-height:80%;"">even: M Key | odd: Z Key</p></div>",,,,34225,0.0,practice-stop-feedback,10,poldrack-single-stim,,
11,,,,,,,,500.0,,,,,,stop_signal_with_predictable_task_switching,,,,,,0.0-0.0-11.0,-1.0,,,,none,,,,-1,500.0,<div class = bigbox><div class = quad_box><div class = decision-bottom-left><div class = fixation>+</div></div></div></div>,,,,34732,0.0,practice_fixation,11,poldrack-single-stim,,
12,350.0,400.0,350.0,500.0,<div class = bigbox><div class = quad_box><div class = decision-bottom-left><img class = center src='/static/experiments/stop_signal_with_predictable_task_switching/images/stopSignal.png'></img></div></div></div>,go,,2000.0,,90.0,1.0,0.0,4.0,stop_signal_with_predictable_task_switching,,,,,,0.0-0.0-12.0,90.0,high,7.0,odd,"[77, 90]",stay,parity,,200,1000.0,<div class = bigbox><div class = quad_box><div class = decision-bottom-left><div class = gng_number><div class = cue-text><img class = center src='/static/experiments/stop_signal_with_predictable_task_switching/images/7.png'></img></div></div></div></div></div>,,go,,36736,0.0,practice_trial,12,stop-signal,,4.0
13,,,,,,,,500.0,,,,,,stop_signal_with_predictable_task_switching,,,,,,0.0-0.0-13.0,-1.0,,,,none,,,,-1,500.0,"<div class = fb_box><div class = center-text><font size = 20>Correct!</font></div></div><div class = prompt_box><p class = center-block-text style = ""font-size:16px; line-height:80%;"">Do not respond if a star appears!</p><p class = center-block-text style = ""font-size:16px; line-height:80%;"">Top 2 quadrants: Judge number on magnitude</p><p class = center-block-text style = ""font-size:16px; line-height:80%;"">high: M Key | low: Z Key</p><p class = center-block-text style = ""font-size:16px; line-height:80%;"">Bottom 2 quadrants: Judge number on parity</p><p class = center-block-text style = ""font-size:16px; line-height:80%;"">even: M Key | odd: Z Key</p></div>",,,,37240,0.0,practice-stop-feedback,13,poldrack-single-stim,,
14,,,,,,,,500.0,,,,,,stop_signal_with_predictable_task_switching,,,,,,0.0-0.0-14.0,-1.0,,,,none,,,,-1,500.0,<div class = bigbox><div class = quad_box><div class = decision-top-left><div class = fixation>+</div></div></div></div>,,,,37746,0.0,practice_fixation,14,poldrack-single-stim,,
15,350.0,400.0,400.0,500.0,<div class = bigbox><div class = quad_box><div class = decision-top-left><img class = center src='/static/experiments/stop_signal_with_predictable_task_switching/images/stopSignal.png'></img></div></div></div>,stop,,2000.0,,-1.0,0.0,0.0,5.0,stop_signal_with_predictable_task_switching,,,,,,0.0-0.0-15.0,90.0,high,9.0,odd,"[77, 90]",switch,magnitude,,640,1000.0,<div class = bigbox><div class = quad_box><div class = decision-top-left><div class = gng_number><div class = cue-text><img class = center src='/static/experiments/stop_signal_with_predictable_task_switching/images/9.png'></img></div></div></div></div></div>,0.0,stop,,39754,0.0,practice_trial,15,stop-signal,,1.0
16,,,,,,,,500.0,,,,,,stop_signal_with_predictable_task_switching,,,,,,0.0-0.0-16.0,-1.0,,,,none,,,,-1,500.0,"<div class = fb_box><div class = center-text><font size = 20>There was a star.</font></div></div><div class = prompt_box><p class = center-block-text style = ""font-size:16px; line-height:80%;"">Do not respond if a star appears!</p><p class = center-block-text style = ""font-size:16px; line-height:80%;"">Top 2 quadrants: Judge number on magnitude</p><p class = center-block-text style = ""font-size:16px; line-height:80%;"">high: M Key | low: Z Key</p><p class = center-block-text style = ""font-size:16px; line-height:80%;"">Bottom 2 quadrants: Judge number on parity</p><p class = center-block-text style = ""font-size:16px; line-height:80%;"">even: M Key | odd: Z Key</p></div>",,,,40261,0.0,practice-stop-feedback,16,poldrack-single-stim,,
17,,,,,,,,500.0,,,,,,stop_signal_with_predictable_task_switching,,,,,,0.0-0.0-17.0,-1.0,,,,none,,,,-1,500.0,<div class = bigbox><div class = quad_box><div class = decision-top-right><div class = fixation>+</div></div></div></div>,,,,40766,0.0,practice_fixation,17,poldrack-single-stim,,
18,350.0,350.0,350.0,500.0,<div class = bigbox><div class = quad_box><div class = decision-top-right><img class = center src='/static/experiments/stop_signal_with_predictable_task_switching/images/stopSignal.png'></img></div></div></div>,go,,2000.0,,77.0,0.0,0.0,6.0,stop_signal_with_predictable_task_switching,,,,,,0.0-0.0-18.0,-1.0,high,9.0,odd,"[77, 90]",stay,magnitude,,-1,1000.0,<div class = bigbox><div class = quad_box><div class = decision-top-right><div class = gng_number><div class = cue-text><img class = center src='/static/experiments/stop_signal_with_predictable_task_switching/images/9.png'></img></div></div></div></div></div>,,go,,42769,0.0,practice_trial,18,stop-signal,,2.0
19,,,,,,,,500.0,,,,,,stop_signal_with_predictable_task_switching,,,,,,0.0-0.0-19.0,-1.0,,,,none,,,,-1,500.0,"<div class = fb_box><div class = center-text><font size = 20>Respond Faster!</font></div></div><div class = prompt_box><p class = center-block-text style = ""font-size:16px; line-height:80%;"">Do not respond if a star appears!</p><p class = center-block-text style = ""font-size:16px; line-height:80%;"">Top 2 quadrants: Judge number on magnitude</p><p class = center-block-text style = ""font-size:16px; line-height:80%;"">high: M Key | low: Z Key</p><p class = center-block-text style = ""font-size:16px; line-height:80%;"">Bottom 2 quadrants: Judge number on parity</p><p class = center-block-text style = ""font-size:16px; line-height:80%;"">even: M Key | odd: Z Key</p></div>",,,,43274,0.0,practice-stop-feedback,19,poldrack-single-stim,,
20,,,,,,,,500.0,,,,,,stop_signal_with_predictable_task_switching,,,,,,0.0-0.0-20.0,-1.0,,,,none,,,,-1,500.0,<div class = bigbox><div class = quad_box><div class = decision-bottom-right><div class = fixation>+</div></div></div></div>,,,,43777,0.0,practice_fixation,20,poldrack-single-stim,,
21,350.0,350.0,350.0,500.0,<div class = bigbox><div class = quad_box><div class = decision-bottom-right><img class = center src='/static/experiments/stop_signal_with_predictable_task_switching/images/stopSignal.png'></img></div></div></div>,stop,,2000.0,,-1.0,1.0,0.0,7.0,stop_signal_with_predictable_task_switching,,,,,,0.0-0.0-21.0,-1.0,high,8.0,even,"[77, 90]",switch,parity,,-1,1000.0,<div class = bigbox><div class = quad_box><div class = decision-bottom-right><div class = gng_number><div class = cue-text><img class = center src='/static/experiments/stop_signal_with_predictable_task_switching/images/8.png'></img></div></div></div></div></div>,1.0,stop,,45785,0.0,practice_trial,21,stop-signal,,3.0
22,,,,,,,,500.0,,,,,,stop_signal_with_predictable_task_switching,,,,,,0.0-0.0-22.0,-1.0,,,,none,,,,-1,500.0,"<div class = fb_box><div class = center-text><font size = 20>Correct!</font></div></div><div class = prompt_box><p class = center-block-text style = ""font-size:16px; line-height:80%;"">Do not respond if a star appears!</p><p class = center-block-text style = ""font-size:16px; line-height:80%;"">Top 2 quadrants: Judge number on magnitude</p><p class = center-block-text style = ""font-size:16px; line-height:80%;"">high: M Key | low: Z Key</p><p class = center-block-text style = ""font-size:16px; line-height:80%;"">Bottom 2 quadrants: Judge number on parity</p><p class = center-block-text style = ""font-size:16px; line-height:80%;"">even: M Key | odd: Z Key</p></div>",,,,46289,0.0,practice-stop-feedback,22,poldrack-single-stim,,
23,,,,,,,,500.0,,,,,,stop_signal_with_predictable_task_switching,,,,,,0.0-0.0-23.0,-1.0,,,,none,,,,-1,500.0,<div class = bigbox><div class = quad_box><div class = decision-bottom-left><div class = fixation>+</div></div></div></div>,,,,46794,0.0,practice_fixation,23,poldrack-single-stim,,
24,350.0,400.0,350.0,500.0,<div class = bigbox><div class = quad_box><div class = decision-bottom-left><img class = center src='/static/experiments/stop_signal_with_predictable_task_switching/images/stopSignal.png'></img></div></div></div>,stop,,2000.0,,-1.0,1.0,0.0,8.0,stop_signal_with_predictable_task_switching,,,,,,0.0-0.0-24.0,-1.0,high,6.0,even,"[77, 90]",stay,parity,,-1,1000.0,<div class = bigbox><div class = quad_box><div class = decision-bottom-left><div class = gng_number><div class = cue-text><img class = center src='/static/experiments/stop_signal_with_predictable_task_switching/images/6.png'></img></div></div></div></div></div>,1.0,stop,,48802,0.0,practice_trial,24,stop-signal,,4.0
25,,,,,,,,500.0,,,,,,stop_signal_with_predictable_task_switching,,,,,,0.0-0.0-25.0,-1.0,,,,none,,,,-1,500.0,"<div class = fb_box><div class = center-text><font size = 20>Correct!</font></div></div><div class = prompt_box><p class = center-block-text style = ""font-size:16px; line-height:80%;"">Do not respond if a star appears!</p><p class = center-block-text style = ""font-size:16px; line-height:80%;"">Top 2 quadrants: Judge number on magnitude</p><p class = center-block-text style = ""font-size:16px; line-height:80%;"">high: M Key | low: Z Key</p><p class = center-block-text style = ""font-size:16px; line-height:80%;"">Bottom 2 quadrants: Judge number on parity</p><p class = center-block-text style = ""font-size:16px; line-height:80%;"">even: M Key | odd: Z Key</p></div>",,,,49308,0.0,practice-stop-feedback,25,poldrack-single-stim,,
26,,,,,,,,500.0,,,,,,stop_signal_with_predictable_task_switching,,,,,,0.0-0.0-26.0,-1.0,,,,none,,,,-1,500.0,<div class = bigbox><div class = quad_box><div class = decision-top-left><div class = fixation>+</div></div></div></div>,,,,49814,0.0,practice_fixation,26,poldrack-single-stim,,
27,400.0,400.0,400.0,500.0,<div class = bigbox><div class = quad_box><div class = decision-top-left><img class = center src='/static/experiments/stop_signal_with_predictable_task_switching/images/stopSignal.png'></img></div></div></div>,go,,2000.0,,77.0,0.0,0.0,9.0,stop_signal_with_predictable_task_switching,,,,,,0.0-0.0-27.0,-1.0,high,6.0,even,"[77, 90]",switch,magnitude,,-1,1000.0,<div class = bigbox><div class = quad_box><div class = decision-top-left><div class = gng_number><div class = cue-text><img class = center src='/static/experiments/stop_signal_with_predictable_task_switching/images/6.png'></img></div></div></div></div></div>,,go,,51823,0.0,practice_trial,27,stop-signal,,1.0
28,,,,,,,,500.0,,,,,,stop_signal_with_predictable_task_switching,,,,,,0.0-0.0-28.0,-1.0,,,,none,,,,-1,500.0,"<div class = fb_box><div class = center-text><font size = 20>Respond Faster!</font></div></div><div class = prompt_box><p class = center-block-text style = ""font-size:16px; line-height:80%;"">Do not respond if a star appears!</p><p class = center-block-text style = ""font-size:16px; line-height:80%;"">Top 2 quadrants: Judge number on magnitude</p><p class = center-block-text style = ""font-size:16px; line-height:80%;"">high: M Key | low: Z Key</p><p class = center-block-text style = ""font-size:16px; line-height:80%;"">Bottom 2 quadrants: Judge number on parity</p><p class = center-block-text style = ""font-size:16px; line-height:80%;"">even: M Key | odd: Z Key</p></div>",,,,52331,0.0,practice-stop-feedback,28,poldrack-single-stim,,
29,,,,,,,,500.0,,,,,,stop_signal_with_predictable_task_switching,,,,,,0.0-0.0-29.0,-1.0,,,,none,,,,-1,500.0,<div class = bigbox><div class = quad_box><div class = decision-top-right><div class = fixation>+</div></div></div></div>,,,,52835,0.0,practice_fixation,29,poldrack-single-stim,,
30,400.0,400.0,400.0,500.0,<div class = bigbox><div class = quad_box><div class = decision-top-right><img class = center src='/static/experiments/stop_signal_with_predictable_task_switching/images/stopSignal.png'></img></div></div></div>,go,,2000.0,,77.0,0.0,0.0,10.0,stop_signal_with_predictable_task_switching,,,,,,0.0-0.0-30.0,90.0,high,7.0,odd,"[77, 90]",stay,magnitude,,862,1000.0,<div class = bigbox><div class = quad_box><div class = decision-top-right><div class = gng_number><div class = cue-text><img class = center src='/static/experiments/stop_signal_with_predictable_task_switching/images/7.png'></img></div></div></div></div></div>,,go,,54840,0.0,practice_trial,30,stop-signal,,2.0
31,,,,,,,,500.0,,,,,,stop_signal_with_predictable_task_switching,,,,,,0.0-0.0-31.0,-1.0,,,,none,,,,-1,500.0,"<div class = fb_box><div class = center-text><font size = 20>Incorrect</font></div></div><div class = prompt_box><p class = center-block-text style = ""font-size:16px; line-height:80%;"">Do not respond if a star appears!</p><p class = center-block-text style = ""font-size:16px; line-height:80%;"">Top 2 quadrants: Judge number on magnitude</p><p class = center-block-text style = ""font-size:16px; line-height:80%;"">high: M Key | low: Z Key</p><p class = center-block-text style = ""font-size:16px; line-height:80%;"">Bottom 2 quadrants: Judge number on parity</p><p class = center-block-text style = ""font-size:16px; line-height:80%;"">even: M Key | odd: Z Key</p></div>",,,,55347,0.0,practice-stop-feedback,31,poldrack-single-stim,,
32,,,,,,,,500.0,,,,,,stop_signal_with_predictable_task_switching,,,,,,0.0-0.0-32.0,-1.0,,,,none,,,,-1,500.0,<div class = bigbox><div class = quad_box><div class = decision-bottom-right><div class = fixation>+</div></div></div></div>,,,,55849,0.0,practice_fixation,32,poldrack-single-stim,,
33,400.0,400.0,400.0,500.0,<div class = bigbox><div class = quad_box><div class = decision-bottom-right><img class = center src='/static/experiments/stop_signal_with_predictable_task_switching/images/stopSignal.png'></img></div></div></div>,go,,2000.0,,90.0,0.0,0.0,11.0,stop_signal_with_predictable_task_switching,,,,,,0.0-0.0-33.0,-1.0,low,1.0,odd,"[77, 90]",switch,parity,,-1,1000.0,<div class = bigbox><div class = quad_box><div class = decision-bottom-right><div class = gng_number><div class = cue-text><img class = center src='/static/experiments/stop_signal_with_predictable_task_switching/images/1.png'></img></div></div></div></div></div>,,go,,57854,0.0,practice_trial,33,stop-signal,,3.0
34,,,,,,,,500.0,,,,,,stop_signal_with_predictable_task_switching,,,,,,0.0-0.0-34.0,-1.0,,,,none,,,,-1,500.0,"<div class = fb_box><div class = center-text><font size = 20>Respond Faster!</font></div></div><div class = prompt_box><p class = center-block-text style = ""font-size:16px; line-height:80%;"">Do not respond if a star appears!</p><p class = center-block-text style = ""font-size:16px; line-height:80%;"">Top 2 quadrants: Judge number on magnitude</p><p class = center-block-text style = ""font-size:16px; line-height:80%;"">high: M Key | low: Z Key</p><p class = center-block-text style = ""font-size:16px; line-height:80%;"">Bottom 2 quadrants: Judge number on parity</p><p class = center-block-text style = ""font-size:16px; line-height:80%;"">even: M Key | odd: Z Key</p></div>",,,,58358,0.0,practice-stop-feedback,34,poldrack-single-stim,,
35,,,,,,,,500.0,,,,,,stop_signal_with_predictable_task_switching,,,,,,0.0-0.0-35.0,-1.0,,,,none,,,,-1,500.0,<div class = bigbox><div class = quad_box><div class = decision-bottom-left><div class = fixation>+</div></div></div></div>,,,,58865,0.0,practice_fixation,35,poldrack-single-stim,,
36,400.0,400.0,400.0,500.0,<div class = bigbox><div class = quad_box><div class = decision-bottom-left><img class = center src='/static/experiments/stop_signal_with_predictable_task_switching/images/stopSignal.png'></img></div></div></div>,stop,,2000.0,,-1.0,0.0,0.0,12.0,stop_signal_with_predictable_task_switching,,,,,,0.0-0.0-36.0,90.0,high,7.0,odd,"[77, 90]",stay,parity,,636,1000.0,<div class = bigbox><div class = quad_box><div class = decision-bottom-left><div class = gng_number><div class = cue-text><img class = center src='/static/experiments/stop_signal_with_predictable_task_switching/images/7.png'></img></div></div></div></div></div>,0.0,stop,,60869,0.0,practice_trial,36,stop-signal,,4.0
37,,,,,,,,500.0,,,,,,stop_signal_with_predictable_task_switching,,,,,,0.0-0.0-37.0,-1.0,,,,none,,,,-1,500.0,"<div class = fb_box><div class = center-text><font size = 20>There was a star.</font></div></div><div class = prompt_box><p class = center-block-text style = ""font-size:16px; line-height:80%;"">Do not respond if a star appears!</p><p class = center-block-text style = ""font-size:16px; line-height:80%;"">Top 2 quadrants: Judge number on magnitude</p><p class = center-block-text style = ""font-size:16px; line-height:80%;"">high: M Key | low: Z Key</p><p class = center-block-text style = ""font-size:16px; line-height:80%;"">Bottom 2 quadrants: Judge number on parity</p><p class = center-block-text style = ""font-size:16px; line-height:80%;"">even: M Key | odd: Z Key</p></div>",,,,61375,0.0,practice-stop-feedback,37,poldrack-single-stim,,
38,,,,,,,,500.0,,,,,,stop_signal_with_predictable_task_switching,,,,,,0.0-0.0-38.0,-1.0,,,,none,,,,-1,500.0,<div class = bigbox><div class = quad_box><div class = decision-top-left><div class = fixation>+</div></div></div></div>,,,,61878,0.0,practice_fixation,38,poldrack-single-stim,,
39,350.0,400.0,400.0,500.0,<div class = bigbox><div class = quad_box><div class = decision-top-left><img class = center src='/static/experiments/stop_signal_with_predictable_task_switching/images/stopSignal.png'></img></div></div></div>,go,,2000.0,,77.0,0.0,0.0,13.0,stop_signal_with_predictable_task_switching,,,,,,0.0-0.0-39.0,90.0,high,9.0,odd,"[77, 90]",switch,magnitude,,605,1000.0,<div class = bigbox><div class = quad_box><div class = decision-top-left><div class = gng_number><div class = cue-text><img class = center src='/static/experiments/stop_signal_with_predictable_task_switching/images/9.png'></img></div></div></div></div></div>,,go,,63884,0.0,practice_trial,39,stop-signal,,1.0
40,,,,,,,,500.0,,,,,,stop_signal_with_predictable_task_switching,,,,,,0.0-0.0-40.0,-1.0,,,,none,,,,-1,500.0,"<div class = fb_box><div class = center-text><font size = 20>Incorrect</font></div></div><div class = prompt_box><p class = center-block-text style = ""font-size:16px; line-height:80%;"">Do not respond if a star appears!</p><p class = center-block-text style = ""font-size:16px; line-height:80%;"">Top 2 quadrants: Judge number on magnitude</p><p class = center-block-text style = ""font-size:16px; line-height:80%;"">high: M Key | low: Z Key</p><p class = center-block-text style = ""font-size:16px; line-height:80%;"">Bottom 2 quadrants: Judge number on parity</p><p class = center-block-text style = ""font-size:16px; line-height:80%;"">even: M Key | odd: Z Key</p></div>",,,,64391,0.0,practice-stop-feedback,40,poldrack-single-stim,,
41,,,,,,,,500.0,,,,,,stop_signal_with_predictable_task_switching,,,,,,0.0-0.0-41.0,-1.0,,,,none,,,,-1,500.0,<div class = bigbox><div class = quad_box><div class = decision-top-right><div class = fixation>+</div></div></div></div>,,,,64894,0.0,practice_fixation,41,poldrack-single-stim,,
42,350.0,400.0,350.0,500.0,<div class = bigbox><div class = quad_box><div class = decision-top-right><img class = center src='/static/experiments/stop_signal_with_predictable_task_switching/images/stopSignal.png'></img></div></div></div>,go,,2000.0,,90.0,1.0,0.0,14.0,stop_signal_with_predictable_task_switching,,,,,,0.0-0.0-42.0,90.0,low,2.0,even,"[77, 90]",stay,magnitude,,890,1000.0,<div class = bigbox><div class = quad_box><div class = decision-top-right><div class = gng_number><div class = cue-text><img class = center src='/static/experiments/stop_signal_with_predictable_task_switching/images/2.png'></img></div></div></div></div></div>,,go,,66899,0.0,practice_trial,42,stop-signal,,2.0
43,,,,,,,,500.0,,,,,,stop_signal_with_predictable_task_switching,,,,,,0.0-0.0-43.0,-1.0,,,,none,,,,-1,500.0,"<div class = fb_box><div class = center-text><font size = 20>Correct!</font></div></div><div class = prompt_box><p class = center-block-text style = ""font-size:16px; line-height:80%;"">Do not respond if a star appears!</p><p class = center-block-text style = ""font-size:16px; line-height:80%;"">Top 2 quadrants: Judge number on magnitude</p><p class = center-block-text style = ""font-size:16px; line-height:80%;"">high: M Key | low: Z Key</p><p class = center-block-text style = ""font-size:16px; line-height:80%;"">Bottom 2 quadrants: Judge number on parity</p><p class = center-block-text style = ""font-size:16px; line-height:80%;"">even: M Key | odd: Z Key</p></div>",,,,67408,0.0,practice-stop-feedback,43,poldrack-single-stim,,
44,,,,,,,,500.0,,,,,,stop_signal_with_predictable_task_switching,,,,,,0.0-0.0-44.0,-1.0,,,,none,,,,-1,500.0,<div class = bigbox><div class = quad_box><div class = decision-bottom-right><div class = fixation>+</div></div></div></div>,,,,67915,0.0,practice_fixation,44,poldrack-single-stim,,
45,350.0,400.0,400.0,500.0,<div class = bigbox><div class = quad_box><div class = decision-bottom-right><img class = center src='/static/experiments/stop_signal_with_predictable_task_switching/images/stopSignal.png'></img></div></div></div>,go,,2000.0,,90.0,1.0,0.0,15.0,stop_signal_with_predictable_task_switching,,,,,,0.0-0.0-45.0,90.0,high,7.0,odd,"[77, 90]",switch,parity,,591,1000.0,<div class = bigbox><div class = quad_box><div class = decision-bottom-right><div class = gng_number><div class = cue-text><img class = center src='/static/experiments/stop_signal_with_predictable_task_switching/images/7.png'></img></div></div></div></div></div>,,go,,69922,0.0,practice_trial,45,stop-signal,,3.0
46,,,,,,,,500.0,,,,,,stop_signal_with_predictable_task_switching,,,,,,0.0-0.0-46.0,-1.0,,,,none,,,,-1,500.0,"<div class = fb_box><div class = center-text><font size = 20>Correct!</font></div></div><div class = prompt_box><p class = center-block-text style = ""font-size:16px; line-height:80%;"">Do not respond if a star appears!</p><p class = center-block-text style = ""font-size:16px; line-height:80%;"">Top 2 quadrants: Judge number on magnitude</p><p class = center-block-text style = ""font-size:16px; line-height:80%;"">high: M Key | low: Z Key</p><p class = center-block-text style = ""font-size:16px; line-height:80%;"">Bottom 2 quadrants: Judge number on parity</p><p class = center-block-text style = ""font-size:16px; line-height:80%;"">even: M Key | odd: Z Key</p></div>",,,,70428,0.0,practice-stop-feedback,46,poldrack-single-stim,,
47,,,,,,,,500.0,,,,,,stop_signal_with_predictable_task_switching,,,,,,0.0-0.0-47.0,-1.0,,,,none,,,,-1,500.0,<div class = bigbox><div class = quad_box><div class = decision-bottom-left><div class = fixation>+</div></div></div></div>,,,,70936,0.0,practice_fixation,47,poldrack-single-stim,,
48,350.0,400.0,350.0,500.0,<div class = bigbox><div class = quad_box><div class = decision-bottom-left><img class = center src='/static/experiments/stop_signal_with_predictable_task_switching/images/stopSignal.png'></img></div></div></div>,go,,2000.0,,90.0,1.0,0.0,16.0,stop_signal_with_predictable_task_switching,,,,,,0.0-0.0-48.0,90.0,high,7.0,odd,"[77, 90]",stay,parity,,637,1000.0,<div class = bigbox><div class = quad_box><div class = decision-bottom-left><div class = gng_number><div class = cue-text><img class = center src='/static/experiments/stop_signal_with_predictable_task_switching/images/7.png'></img></div></div></div></div></div>,,go,,72940,0.0,practice_trial,48,stop-signal,,4.0
49,,,,,,,,500.0,,,,,,stop_signal_with_predictable_task_switching,,,,,,0.0-0.0-49.0,-1.0,,,,none,,,,-1,500.0,"<div class = fb_box><div class = center-text><font size = 20>Correct!</font></div></div><div class = prompt_box><p class = center-block-text style = ""font-size:16px; line-height:80%;"">Do not respond if a star appears!</p><p class = center-block-text style = ""font-size:16px; line-height:80%;"">Top 2 quadrants: Judge number on magnitude</p><p class = center-block-text style = ""font-size:16px; line-height:80%;"">high: M Key | low: Z Key</p><p class = center-block-text style = ""font-size:16px; line-height:80%;"">Bottom 2 quadrants: Judge number on parity</p><p class = center-block-text style = ""font-size:16px; line-height:80%;"">even: M Key | odd: Z Key</p></div>",,,,73447,0.0,practice-stop-feedback,49,poldrack-single-stim,,
50,,,,,,,,500.0,,,,,,stop_signal_with_predictable_task_switching,,,,,,0.0-0.0-50.0,-1.0,,,,none,,,,-1,500.0,<div class = bigbox><div class = quad_box><div class = decision-top-left><div class = fixation>+</div></div></div></div>,,,,73953,0.0,practice_fixation,50,poldrack-single-stim,,
51,350.0,400.0,400.0,500.0,<div class = bigbox><div class = quad_box><div class = decision-top-left><img class = center src='/static/experiments/stop_signal_with_predictable_task_switching/images/stopSignal.png'></img></div></div></div>,go,,2000.0,,77.0,0.0,0.0,17.0,stop_signal_with_predictable_task_switching,,,,,,0.0-0.0-51.0,90.0,high,7.0,odd,"[77, 90]",switch,magnitude,,589,1000.0,<div class = bigbox><div class = quad_box><div class = decision-top-left><div class = gng_number><div class = cue-text><img class = center src='/static/experiments/stop_signal_with_predictable_task_switching/images/7.png'></img></div></div></div></div></div>,,go,,75959,0.0,practice_trial,51,stop-signal,,1.0
52,,,,,,,,500.0,,,,,,stop_signal_with_predictable_task_switching,,,,,,0.0-0.0-52.0,-1.0,,,,none,,,,-1,500.0,"<div class = fb_box><div class = center-text><font size = 20>Incorrect</font></div></div><div class = prompt_box><p class = center-block-text style = ""font-size:16px; line-height:80%;"">Do not respond if a star appears!</p><p class = center-block-text style = ""font-size:16px; line-height:80%;"">Top 2 quadrants: Judge number on magnitude</p><p class = center-block-text style = ""font-size:16px; line-height:80%;"">high: M Key | low: Z Key</p><p class = center-block-text style = ""font-size:16px; line-height:80%;"">Bottom 2 quadrants: Judge number on parity</p><p class = center-block-text style = ""font-size:16px; line-height:80%;"">even: M Key | odd: Z Key</p></div>",,,,76465,0.0,practice-stop-feedback,52,poldrack-single-stim,,
53,,,,,,,,500.0,,,,,,stop_signal_with_predictable_task_switching,,,,,,0.0-0.0-53.0,-1.0,,,,none,,,,-1,500.0,<div class = bigbox><div class = quad_box><div class = decision-top-right><div class = fixation>+</div></div></div></div>,,,,76969,0.0,practice_fixation,53,poldrack-single-stim,,
54,350.0,400.0,350.0,500.0,<div class = bigbox><div class = quad_box><div class = decision-top-right><img class = center src='/static/experiments/stop_signal_with_predictable_task_switching/images/stopSignal.png'></img></div></div></div>,stop,,2000.0,,-1.0,1.0,0.0,18.0,stop_signal_with_predictable_task_switching,,,,,,0.0-0.0-54.0,-1.0,high,8.0,even,"[77, 90]",stay,magnitude,,-1,1000.0,<div class = bigbox><div class = quad_box><div class = decision-top-right><div class = gng_number><div class = cue-text><img class = center src='/static/experiments/stop_signal_with_predictable_task_switching/images/8.png'></img></div></div></div></div></div>,1.0,stop,,78974,0.0,practice_trial,54,stop-signal,,2.0
55,,,,,,,,500.0,,,,,,stop_signal_with_predictable_task_switching,,,,,,0.0-0.0-55.0,-1.0,,,,none,,,,-1,500.0,"<div class = fb_box><div class = center-text><font size = 20>Correct!</font></div></div><div class = prompt_box><p class = center-block-text style = ""font-size:16px; line-height:80%;"">Do not respond if a star appears!</p><p class = center-block-text style = ""font-size:16px; line-height:80%;"">Top 2 quadrants: Judge number on magnitude</p><p class = center-block-text style = ""font-size:16px; line-height:80%;"">high: M Key | low: Z Key</p><p class = center-block-text style = ""font-size:16px; line-height:80%;"">Bottom 2 quadrants: Judge number on parity</p><p class = center-block-text style = ""font-size:16px; line-height:80%;"">even: M Key | odd: Z Key</p></div>",,,,79478,0.0,practice-stop-feedback,55,poldrack-single-stim,,
56,,,,,,,,500.0,,,,,,stop_signal_with_predictable_task_switching,,,,,,0.0-0.0-56.0,-1.0,,,,none,,,,-1,500.0,<div class = bigbox><div class = quad_box><div class = decision-bottom-right><div class = fixation>+</div></div></div></div>,,,,79984,0.0,practice_fixation,56,poldrack-single-stim,,
57,400.0,400.0,400.0,500.0,<div class = bigbox><div class = quad_box><div class = decision-bottom-right><img class = center src='/static/experiments/stop_signal_with_predictable_task_switching/images/stopSignal.png'></img></div></div></div>,go,,2000.0,,90.0,1.0,0.0,19.0,stop_signal_with_predictable_task_switching,,,,,,0.0-0.0-57.0,90.0,low,1.0,odd,"[77, 90]",switch,parity,,627,1000.0,<div class = bigbox><div class = quad_box><div class = decision-bottom-right><div class = gng_number><div class = cue-text><img class = center src='/static/experiments/stop_signal_with_predictable_task_switching/images/1.png'></img></div></div></div></div></div>,,go,,81993,0.0,practice_trial,57,stop-signal,,3.0
58,,,,,,,,500.0,,,,,,stop_signal_with_predictable_task_switching,,,,,,0.0-0.0-58.0,-1.0,,,,none,,,,-1,500.0,"<div class = fb_box><div class = center-text><font size = 20>Correct!</font></div></div><div class = prompt_box><p class = center-block-text style = ""font-size:16px; line-height:80%;"">Do not respond if a star appears!</p><p class = center-block-text style = ""font-size:16px; line-height:80%;"">Top 2 quadrants: Judge number on magnitude</p><p class = center-block-text style = ""font-size:16px; line-height:80%;"">high: M Key | low: Z Key</p><p class = center-block-text style = ""font-size:16px; line-height:80%;"">Bottom 2 quadrants: Judge number on parity</p><p class = center-block-text style = ""font-size:16px; line-height:80%;"">even: M Key | odd: Z Key</p></div>",,,,82499,0.0,practice-stop-feedback,58,poldrack-single-stim,,
59,,,,,,,,500.0,,,,,,stop_signal_with_predictable_task_switching,,,,,,0.0-0.0-59.0,-1.0,,,,none,,,,-1,500.0,<div class = bigbox><div class = quad_box><div class = decision-bottom-left><div class = fixation>+</div></div></div></div>,,,,83007,0.0,practice_fixation,59,poldrack-single-stim,,
60,400.0,400.0,400.0,500.0,<div class = bigbox><div class = quad_box><div class = decision-bottom-left><img class = center src='/static/experiments/stop_signal_with_predictable_task_switching/images/stopSignal.png'></img></div></div></div>,go,,2000.0,,90.0,1.0,0.0,20.0,stop_signal_with_predictable_task_switching,,,,,,0.0-0.0-60.0,90.0,high,7.0,odd,"[77, 90]",stay,parity,,611,1000.0,<div class = bigbox><div class = quad_box><div class = decision-bottom-left><div class = gng_number><div class = cue-text><img class = center src='/static/experiments/stop_signal_with_predictable_task_switching/images/7.png'></img></div></div></div></div></div>,,go,,85015,0.0,practice_trial,60,stop-signal,,4.0
61,,,,,,,,500.0,,,,,,stop_signal_with_predictable_task_switching,,,,,,0.0-0.0-61.0,-1.0,,,,none,,,,-1,500.0,"<div class = fb_box><div class = center-text><font size = 20>Correct!</font></div></div><div class = prompt_box><p class = center-block-text style = ""font-size:16px; line-height:80%;"">Do not respond if a star appears!</p><p class = center-block-text style = ""font-size:16px; line-height:80%;"">Top 2 quadrants: Judge number on magnitude</p><p class = center-block-text style = ""font-size:16px; line-height:80%;"">high: M Key | low: Z Key</p><p class = center-block-text style = ""font-size:16px; line-height:80%;"">Bottom 2 quadrants: Judge number on parity</p><p class = center-block-text style = ""font-size:16px; line-height:80%;"">even: M Key | odd: Z Key</p></div>",,,,85522,0.0,practice-stop-feedback,61,poldrack-single-stim,,
62,,,,,,,,500.0,,,,,,stop_signal_with_predictable_task_switching,,,,,,0.0-0.0-62.0,-1.0,,,,none,,,,-1,500.0,<div class = bigbox><div class = quad_box><div class = decision-top-left><div class = fixation>+</div></div></div></div>,,,,86026,0.0,practice_fixation,62,poldrack-single-stim,,
63,400.0,400.0,400.0,500.0,<div class = bigbox><div class = quad_box><div class = decision-top-left><img class = center src='/static/experiments/stop_signal_with_predictable_task_switching/images/stopSignal.png'></img></div></div></div>,go,,2000.0,,77.0,1.0,0.0,21.0,stop_signal_with_predictable_task_switching,,,,,,0.0-0.0-63.0,77.0,high,6.0,even,"[77, 90]",switch,magnitude,,776,1000.0,<div class = bigbox><div class = quad_box><div class = decision-top-left><div class = gng_number><div class = cue-text><img class = center src='/static/experiments/stop_signal_with_predictable_task_switching/images/6.png'></img></div></div></div></div></div>,,go,,88029,0.0,practice_trial,63,stop-signal,,1.0
64,,,,,,,,500.0,,,,,,stop_signal_with_predictable_task_switching,,,,,,0.0-0.0-64.0,-1.0,,,,none,,,,-1,500.0,"<div class = fb_box><div class = center-text><font size = 20>Correct!</font></div></div><div class = prompt_box><p class = center-block-text style = ""font-size:16px; line-height:80%;"">Do not respond if a star appears!</p><p class = center-block-text style = ""font-size:16px; line-height:80%;"">Top 2 quadrants: Judge number on magnitude</p><p class = center-block-text style = ""font-size:16px; line-height:80%;"">high: M Key | low: Z Key</p><p class = center-block-text style = ""font-size:16px; line-height:80%;"">Bottom 2 quadrants: Judge number on parity</p><p class = center-block-text style = ""font-size:16px; line-height:80%;"">even: M Key | odd: Z Key</p></div>",,,,88532,0.0,practice-stop-feedback,64,poldrack-single-stim,,
65,,,,,,,,500.0,,,,,,stop_signal_with_predictable_task_switching,,,,,,0.0-0.0-65.0,-1.0,,,,none,,,,-1,500.0,<div class = bigbox><div class = quad_box><div class = decision-top-right><div class = fixation>+</div></div></div></div>,,,,89038,0.0,practice_fixation,65,poldrack-single-stim,,
66,400.0,400.0,400.0,500.0,<div class = bigbox><div class = quad_box><div class = decision-top-right><img class = center src='/static/experiments/stop_signal_with_predictable_task_switching/images/stopSignal.png'></img></div></div></div>,stop,,2000.0,,-1.0,0.0,0.0,22.0,stop_signal_with_predictable_task_switching,,,,,,0.0-0.0-66.0,90.0,low,4.0,even,"[77, 90]",stay,magnitude,,637,1000.0,<div class = bigbox><div class = quad_box><div class = decision-top-right><div class = gng_number><div class = cue-text><img class = center src='/static/experiments/stop_signal_with_predictable_task_switching/images/4.png'></img></div></div></div></div></div>,0.0,stop,,91044,0.0,practice_trial,66,stop-signal,,2.0
67,,,,,,,,500.0,,,,,,stop_signal_with_predictable_task_switching,,,,,,0.0-0.0-67.0,-1.0,,,,none,,,,-1,500.0,"<div class = fb_box><div class = center-text><font size = 20>There was a star.</font></div></div><div class = prompt_box><p class = center-block-text style = ""font-size:16px; line-height:80%;"">Do not respond if a star appears!</p><p class = center-block-text style = ""font-size:16px; line-height:80%;"">Top 2 quadrants: Judge number on magnitude</p><p class = center-block-text style = ""font-size:16px; line-height:80%;"">high: M Key | low: Z Key</p><p class = center-block-text style = ""font-size:16px; line-height:80%;"">Bottom 2 quadrants: Judge number on parity</p><p class = center-block-text style = ""font-size:16px; line-height:80%;"">even: M Key | odd: Z Key</p></div>",,,,91548,0.0,practice-stop-feedback,67,poldrack-single-stim,,
68,,,,,,,,500.0,,,,,,stop_signal_with_predictable_task_switching,,,,,,0.0-0.0-68.0,-1.0,,,,none,,,,-1,500.0,<div class = bigbox><div class = quad_box><div class = decision-bottom-right><div class = fixation>+</div></div></div></div>,,,,92054,0.0,practice_fixation,68,poldrack-single-stim,,
69,350.0,400.0,400.0,500.0,<div class = bigbox><div class = quad_box><div class = decision-bottom-right><img class = center src='/static/experiments/stop_signal_with_predictable_task_switching/images/stopSignal.png'></img></div></div></div>,go,,2000.0,,90.0,1.0,0.0,23.0,stop_signal_with_predictable_task_switching,,,,,,0.0-0.0-69.0,90.0,low,1.0,odd,"[77, 90]",switch,parity,,664,1000.0,<div class = bigbox><div class = quad_box><div class = decision-bottom-right><div class = gng_number><div class = cue-text><img class = center src='/static/experiments/stop_signal_with_predictable_task_switching/images/1.png'></img></div></div></div></div></div>,,go,,94057,0.0,practice_trial,69,stop-signal,,3.0
70,,,,,,,,500.0,,,,,,stop_signal_with_predictable_task_switching,,,,,,0.0-0.0-70.0,-1.0,,,,none,,,,-1,500.0,"<div class = fb_box><div class = center-text><font size = 20>Correct!</font></div></div><div class = prompt_box><p class = center-block-text style = ""font-size:16px; line-height:80%;"">Do not respond if a star appears!</p><p class = center-block-text style = ""font-size:16px; line-height:80%;"">Top 2 quadrants: Judge number on magnitude</p><p class = center-block-text style = ""font-size:16px; line-height:80%;"">high: M Key | low: Z Key</p><p class = center-block-text style = ""font-size:16px; line-height:80%;"">Bottom 2 quadrants: Judge number on parity</p><p class = center-block-text style = ""font-size:16px; line-height:80%;"">even: M Key | odd: Z Key</p></div>",,,,94560,0.0,practice-stop-feedback,70,poldrack-single-stim,,
71,,,,,,,,500.0,,,,,,stop_signal_with_predictable_task_switching,,,,,,0.0-0.0-71.0,-1.0,,,,none,,,,-1,500.0,<div class = bigbox><div class = quad_box><div class = decision-bottom-left><div class = fixation>+</div></div></div></div>,,,,95067,0.0,practice_fixation,71,poldrack-single-stim,,
72,350.0,400.0,350.0,500.0,<div class = bigbox><div class = quad_box><div class = decision-bottom-left><img class = center src='/static/experiments/stop_signal_with_predictable_task_switching/images/stopSignal.png'></img></div></div></div>,go,,2000.0,,90.0,1.0,0.0,24.0,stop_signal_with_predictable_task_switching,,,,,,0.0-0.0-72.0,90.0,low,3.0,odd,"[77, 90]",stay,parity,,517,1000.0,<div class = bigbox><div class = quad_box><div class = decision-bottom-left><div class = gng_number><div class = cue-text><img class = center src='/static/experiments/stop_signal_with_predictable_task_switching/images/3.png'></img></div></div></div></div></div>,,go,,97069,0.0,practice_trial,72,stop-signal,,4.0
73,,,,,,,,500.0,,,,,,stop_signal_with_predictable_task_switching,,,,,,0.0-0.0-73.0,-1.0,,,,none,,,,-1,500.0,"<div class = fb_box><div class = center-text><font size = 20>Correct!</font></div></div><div class = prompt_box><p class = center-block-text style = ""font-size:16px; line-height:80%;"">Do not respond if a star appears!</p><p class = center-block-text style = ""font-size:16px; line-height:80%;"">Top 2 quadrants: Judge number on magnitude</p><p class = center-block-text style = ""font-size:16px; line-height:80%;"">high: M Key | low: Z Key</p><p class = center-block-text style = ""font-size:16px; line-height:80%;"">Bottom 2 quadrants: Judge number on parity</p><p class = center-block-text style = ""font-size:16px; line-height:80%;"">even: M Key | odd: Z Key</p></div>",,,,97575,0.0,practice-stop-feedback,73,poldrack-single-stim,,
74,,,,,,,,500.0,,,,,,stop_signal_with_predictable_task_switching,,,,,,0.0-0.0-74.0,-1.0,,,,none,,,,-1,500.0,<div class = bigbox><div class = quad_box><div class = decision-top-left><div class = fixation>+</div></div></div></div>,,,,98078,0.0,practice_fixation,74,poldrack-single-stim,,
75,350.0,400.0,400.0,500.0,<div class = bigbox><div class = quad_box><div class = decision-top-left><img class = center src='/static/experiments/stop_signal_with_predictable_task_switching/images/stopSignal.png'></img></div></div></div>,stop,,2000.0,,-1.0,0.0,0.0,25.0,stop_signal_with_predictable_task_switching,,,,,,0.0-0.0-75.0,90.0,low,3.0,odd,"[77, 90]",switch,magnitude,,606,1000.0,<div class = bigbox><div class = quad_box><div class = decision-top-left><div class = gng_number><div class = cue-text><img class = center src='/static/experiments/stop_signal_with_predictable_task_switching/images/3.png'></img></div></div></div></div></div>,0.0,stop,,100081,0.0,practice_trial,75,stop-signal,,1.0
76,,,,,,,,500.0,,,,,,stop_signal_with_predictable_task_switching,,,,,,0.0-0.0-76.0,-1.0,,,,none,,,,-1,500.0,"<div class = fb_box><div class = center-text><font size = 20>There was a star.</font></div></div><div class = prompt_box><p class = center-block-text style = ""font-size:16px; line-height:80%;"">Do not respond if a star appears!</p><p class = center-block-text style = ""font-size:16px; line-height:80%;"">Top 2 quadrants: Judge number on magnitude</p><p class = center-block-text style = ""font-size:16px; line-height:80%;"">high: M Key | low: Z Key</p><p class = center-block-text style = ""font-size:16px; line-height:80%;"">Bottom 2 quadrants: Judge number on parity</p><p class = center-block-text style = ""font-size:16px; line-height:80%;"">even: M Key | odd: Z Key</p></div>",,,,100586,0.0,practice-stop-feedback,76,poldrack-single-stim,,
77,,,,,,,,3330.0,,,,,,stop_signal_with_predictable_task_switching,,,,,,0.0-0.1-0.1,13.0,,,,[13],,,,3330,3330.0,"<div class = bigbox><div class = picture_box><p class = block-text><br>Please take this time to read your feedback and to take a short break! Press enter to continue</p><p class = block-text>We are going to try practice again to see if you can achieve higher accuracy.  Remember: <br><ul style = ""text-align:left;""><li>Do not respond if a star appears!</li><li>Top 2 quadrants: Judge number on magnitude</li><li>high: M Key</li><li>low: Z Key</li><li>Bottom 2 quadrants: Judge number on parity</li><li>even: M Key</li><li>odd: Z Key</li></ul></p><p class = block-text>You have not been responding to some trials.  Please respond on every trial that requires a response.</p><p class = block-text>Redoing this practice. Press Enter to continue.</p></div></div>",,,,103926,0.0,feedback_block,77,poldrack-single-stim,,
78,,,,,,,,,,,,,,stop_signal_with_predictable_task_switching,,,,,,0.0-0.1-1.1,,,,,,,,,6733,,,,,,110660,,instruction,78,poldrack-instructions,"[{""page_index"":0,""viewing_time"":4837},{""page_index"":1,""viewing_time"":606},{""page_index"":2,""viewing_time"":1289}]",
79,,,,,,,,500.0,,,,,,stop_signal_with_predictable_task_switching,,,,,,0.0-0.1-2.1,-1.0,,,,none,,,,-1,500.0,<div class = bigbox><div class = quad_box><div class = decision-bottom-right><div class = fixation>+</div></div></div></div>,,,,112166,0.0,practice_fixation,79,poldrack-single-stim,,
80,350.0,350.0,,500.0,<div class = bigbox><div class = quad_box><div class = decision-bottom-right><img class = center src='/static/experiments/stop_signal_with_predictable_task_switching/images/stopSignal.png'></img></div></div></div>,stop,,2000.0,,-1.0,0.0,1.0,1.0,stop_signal_with_predictable_task_switching,,,,,,0.0-0.1-3.1,90.0,low,3.0,odd,"[77, 90]",N/A,parity,,848,1000.0,<div class = bigbox><div class = quad_box><div class = decision-bottom-right><div class = gng_number><div class = cue-text><img class = center src='/static/experiments/stop_signal_with_predictable_task_switching/images/3.png'></img></div></div></div></div></div>,,stop,,114174,0.0,practice_trial,80,stop-signal,,3.0
81,,,,,,,,500.0,,,,,,stop_signal_with_predictable_task_switching,,,,,,0.0-0.1-4.1,-1.0,,,,none,,,,-1,500.0,"<div class = fb_box><div class = center-text><font size = 20>There was a star.</font></div></div><div class = prompt_box><p class = center-block-text style = ""font-size:16px; line-height:80%;"">Do not respond if a star appears!</p><p class = center-block-text style = ""font-size:16px; line-height:80%;"">Top 2 quadrants: Judge number on magnitude</p><p class = center-block-text style = ""font-size:16px; line-height:80%;"">high: M Key | low: Z Key</p><p class = center-block-text style = ""font-size:16px; line-height:80%;"">Bottom 2 quadrants: Judge number on parity</p><p class = center-block-text style = ""font-size:16px; line-height:80%;"">even: M Key | odd: Z Key</p></div>",,,,114678,0.0,practice-stop-feedback,81,poldrack-single-stim,,
82,,,,,,,,500.0,,,,,,stop_signal_with_predictable_task_switching,,,,,,0.0-0.1-5.1,-1.0,,,,none,,,,-1,500.0,<div class = bigbox><div class = quad_box><div class = decision-bottom-left><div class = fixation>+</div></div></div></div>,,,,115180,0.0,practice_fixation,82,poldrack-single-stim,,
83,350.0,350.0,350.0,500.0,<div class = bigbox><div class = quad_box><div class = decision-bottom-left><img class = center src='/static/experiments/stop_signal_with_predictable_task_switching/images/stopSignal.png'></img></div></div></div>,go,,2000.0,,90.0,1.0,1.0,2.0,stop_signal_with_predictable_task_switching,,,,,,0.0-0.1-6.1,90.0,high,7.0,odd,"[77, 90]",stay,parity,,701,1000.0,<div class = bigbox><div class = quad_box><div class = decision-bottom-left><div class = gng_number><div class = cue-text><img class = center src='/static/experiments/stop_signal_with_predictable_task_switching/images/7.png'></img></div></div></div></div></div>,,go,,117185,0.0,practice_trial,83,stop-signal,,4.0
84,,,,,,,,500.0,,,,,,stop_signal_with_predictable_task_switching,,,,,,0.0-0.1-7.1,-1.0,,,,none,,,,-1,500.0,"<div class = fb_box><div class = center-text><font size = 20>Correct!</font></div></div><div class = prompt_box><p class = center-block-text style = ""font-size:16px; line-height:80%;"">Do not respond if a star appears!</p><p class = center-block-text style = ""font-size:16px; line-height:80%;"">Top 2 quadrants: Judge number on magnitude</p><p class = center-block-text style = ""font-size:16px; line-height:80%;"">high: M Key | low: Z Key</p><p class = center-block-text style = ""font-size:16px; line-height:80%;"">Bottom 2 quadrants: Judge number on parity</p><p class = center-block-text style = ""font-size:16px; line-height:80%;"">even: M Key | odd: Z Key</p></div>",,,,117688,0.0,practice-stop-feedback,84,poldrack-single-stim,,
85,,,,,,,,500.0,,,,,,stop_signal_with_predictable_task_switching,,,,,,0.0-0.1-8.1,-1.0,,,,none,,,,-1,500.0,<div class = bigbox><div class = quad_box><div class = decision-top-left><div class = fixation>+</div></div></div></div>,,,,118192,0.0,practice_fixation,85,poldrack-single-stim,,
86,350.0,350.0,350.0,500.0,<div class = bigbox><div class = quad_box><div class = decision-top-left><img class = center src='/static/experiments/stop_signal_with_predictable_task_switching/images/stopSignal.png'></img></div></div></div>,go,,2000.0,,90.0,0.0,1.0,3.0,stop_signal_with_predictable_task_switching,,,,,,0.0-0.1-9.1,77.0,low,4.0,even,"[77, 90]",switch,magnitude,,808,1000.0,<div class = bigbox><div class = quad_box><div class = decision-top-left><div class = gng_number><div class = cue-text><img class = center src='/static/experiments/stop_signal_with_predictable_task_switching/images/4.png'></img></div></div></div></div></div>,,go,,120198,0.0,practice_trial,86,stop-signal,,1.0
87,,,,,,,,500.0,,,,,,stop_signal_with_predictable_task_switching,,,,,,0.0-0.1-10.1,-1.0,,,,none,,,,-1,500.0,"<div class = fb_box><div class = center-text><font size = 20>Incorrect</font></div></div><div class = prompt_box><p class = center-block-text style = ""font-size:16px; line-height:80%;"">Do not respond if a star appears!</p><p class = center-block-text style = ""font-size:16px; line-height:80%;"">Top 2 quadrants: Judge number on magnitude</p><p class = center-block-text style = ""font-size:16px; line-height:80%;"">high: M Key | low: Z Key</p><p class = center-block-text style = ""font-size:16px; line-height:80%;"">Bottom 2 quadrants: Judge number on parity</p><p class = center-block-text style = ""font-size:16px; line-height:80%;"">even: M Key | odd: Z Key</p></div>",,,,120702,0.0,practice-stop-feedback,87,poldrack-single-stim,,
88,,,,,,,,500.0,,,,,,stop_signal_with_predictable_task_switching,,,,,,0.0-0.1-11.1,-1.0,,,,none,,,,-1,500.0,<div class = bigbox><div class = quad_box><div class = decision-top-right><div class = fixation>+</div></div></div></div>,,,,121206,0.0,practice_fixation,88,poldrack-single-stim,,
89,350.0,350.0,350.0,500.0,<div class = bigbox><div class = quad_box><div class = decision-top-right><img class = center src='/static/experiments/stop_signal_with_predictable_task_switching/images/stopSignal.png'></img></div></div></div>,stop,,2000.0,,-1.0,0.0,1.0,4.0,stop_signal_with_predictable_task_switching,,,,,,0.0-0.1-12.1,90.0,low,2.0,even,"[77, 90]",stay,magnitude,,903,1000.0,<div class = bigbox><div class = quad_box><div class = decision-top-right><div class = gng_number><div class = cue-text><img class = center src='/static/experiments/stop_signal_with_predictable_task_switching/images/2.png'></img></div></div></div></div></div>,0.0,stop,,123211,0.0,practice_trial,89,stop-signal,,2.0
90,,,,,,,,500.0,,,,,,stop_signal_with_predictable_task_switching,,,,,,0.0-0.1-13.1,-1.0,,,,none,,,,-1,500.0,"<div class = fb_box><div class = center-text><font size = 20>There was a star.</font></div></div><div class = prompt_box><p class = center-block-text style = ""font-size:16px; line-height:80%;"">Do not respond if a star appears!</p><p class = center-block-text style = ""font-size:16px; line-height:80%;"">Top 2 quadrants: Judge number on magnitude</p><p class = center-block-text style = ""font-size:16px; line-height:80%;"">high: M Key | low: Z Key</p><p class = center-block-text style = ""font-size:16px; line-height:80%;"">Bottom 2 quadrants: Judge number on parity</p><p class = center-block-text style = ""font-size:16px; line-height:80%;"">even: M Key | odd: Z Key</p></div>",,,,123716,0.0,practice-stop-feedback,90,poldrack-single-stim,,
91,,,,,,,,500.0,,,,,,stop_signal_with_predictable_task_switching,,,,,,0.0-0.1-14.1,-1.0,,,,none,,,,-1,500.0,<div class = bigbox><div class = quad_box><div class = decision-bottom-right><div class = fixation>+</div></div></div></div>,,,,124219,0.0,practice_fixation,91,poldrack-single-stim,,
92,300.0,350.0,350.0,500.0,<div class = bigbox><div class = quad_box><div class = decision-bottom-right><img class = center src='/static/experiments/stop_signal_with_predictable_task_switching/images/stopSignal.png'></img></div></div></div>,go,,2000.0,,90.0,1.0,1.0,5.0,stop_signal_with_predictable_task_switching,,,,,,0.0-0.1-15.1,90.0,high,7.0,odd,"[77, 90]",switch,parity,,693,1000.0,<div class = bigbox><div class = quad_box><div class = decision-bottom-right><div class = gng_number><div class = cue-text><img class = center src='/static/experiments/stop_signal_with_predictable_task_switching/images/7.png'></img></div></div></div></div></div>,,go,,126224,0.0,practice_trial,92,stop-signal,,3.0
93,,,,,,,,500.0,,,,,,stop_signal_with_predictable_task_switching,,,,,,0.0-0.1-16.1,-1.0,,,,none,,,,-1,500.0,"<div class = fb_box><div class = center-text><font size = 20>Correct!</font></div></div><div class = prompt_box><p class = center-block-text style = ""font-size:16px; line-height:80%;"">Do not respond if a star appears!</p><p class = center-block-text style = ""font-size:16px; line-height:80%;"">Top 2 quadrants: Judge number on magnitude</p><p class = center-block-text style = ""font-size:16px; line-height:80%;"">high: M Key | low: Z Key</p><p class = center-block-text style = ""font-size:16px; line-height:80%;"">Bottom 2 quadrants: Judge number on parity</p><p class = center-block-text style = ""font-size:16px; line-height:80%;"">even: M Key | odd: Z Key</p></div>",,,,126728,0.0,practice-stop-feedback,93,poldrack-single-stim,,
94,,,,,,,,500.0,,,,,,stop_signal_with_predictable_task_switching,,,,,,0.0-0.1-17.1,-1.0,,,,none,,,,-1,500.0,<div class = bigbox><div class = quad_box><div class = decision-bottom-left><div class = fixation>+</div></div></div></div>,,,,127234,0.0,practice_fixation,94,poldrack-single-stim,,
95,300.0,350.0,300.0,500.0,<div class = bigbox><div class = quad_box><div class = decision-bottom-left><img class = center src='/static/experiments/stop_signal_with_predictable_task_switching/images/stopSignal.png'></img></div></div></div>,go,,2000.0,,90.0,1.0,1.0,6.0,stop_signal_with_predictable_task_switching,,,,,,0.0-0.1-18.1,90.0,high,9.0,odd,"[77, 90]",stay,parity,,689,1000.0,<div class = bigbox><div class = quad_box><div class = decision-bottom-left><div class = gng_number><div class = cue-text><img class = center src='/static/experiments/stop_signal_with_predictable_task_switching/images/9.png'></img></div></div></div></div></div>,,go,,129239,0.0,practice_trial,95,stop-signal,,4.0
96,,,,,,,,500.0,,,,,,stop_signal_with_predictable_task_switching,,,,,,0.0-0.1-19.1,-1.0,,,,none,,,,-1,500.0,"<div class = fb_box><div class = center-text><font size = 20>Correct!</font></div></div><div class = prompt_box><p class = center-block-text style = ""font-size:16px; line-height:80%;"">Do not respond if a star appears!</p><p class = center-block-text style = ""font-size:16px; line-height:80%;"">Top 2 quadrants: Judge number on magnitude</p><p class = center-block-text style = ""font-size:16px; line-height:80%;"">high: M Key | low: Z Key</p><p class = center-block-text style = ""font-size:16px; line-height:80%;"">Bottom 2 quadrants: Judge number on parity</p><p class = center-block-text style = ""font-size:16px; line-height:80%;"">even: M Key | odd: Z Key</p></div>",,,,129743,0.0,practice-stop-feedback,96,poldrack-single-stim,,
97,,,,,,,,500.0,,,,,,stop_signal_with_predictable_task_switching,,,,,,0.0-0.1-20.1,-1.0,,,,none,,,,-1,500.0,<div class = bigbox><div class = quad_box><div class = decision-top-left><div class = fixation>+</div></div></div></div>,,,,130247,0.0,practice_fixation,97,poldrack-single-stim,,
98,300.0,350.0,350.0,500.0,<div class = bigbox><div class = quad_box><div class = decision-top-left><img class = center src='/static/experiments/stop_signal_with_predictable_task_switching/images/stopSignal.png'></img></div></div></div>,stop,,2000.0,,-1.0,0.0,1.0,7.0,stop_signal_with_predictable_task_switching,,,,,,0.0-0.1-21.1,90.0,high,7.0,odd,"[77, 90]",switch,magnitude,,556,1000.0,<div class = bigbox><div class = quad_box><div class = decision-top-left><div class = gng_number><div class = cue-text><img class = center src='/static/experiments/stop_signal_with_predictable_task_switching/images/7.png'></img></div></div></div></div></div>,0.0,stop,,132250,0.0,practice_trial,98,stop-signal,,1.0
99,,,,,,,,500.0,,,,,,stop_signal_with_predictable_task_switching,,,,,,0.0-0.1-22.1,-1.0,,,,none,,,,-1,500.0,"<div class = fb_box><div class = center-text><font size = 20>There was a star.</font></div></div><div class = prompt_box><p class = center-block-text style = ""font-size:16px; line-height:80%;"">Do not respond if a star appears!</p><p class = center-block-text style = ""font-size:16px; line-height:80%;"">Top 2 quadrants: Judge number on magnitude</p><p class = center-block-text style = ""font-size:16px; line-height:80%;"">high: M Key | low: Z Key</p><p class = center-block-text style = ""font-size:16px; line-height:80%;"">Bottom 2 quadrants: Judge number on parity</p><p class = center-block-text style = ""font-size:16px; line-height:80%;"">even: M Key | odd: Z Key</p></div>",,,,132757,0.0,practice-stop-feedback,99,poldrack-single-stim,,
100,,,,,,,,500.0,,,,,,stop_signal_with_predictable_task_switching,,,,,,0.0-0.1-23.1,-1.0,,,,none,,,,-1,500.0,<div class = bigbox><div class = quad_box><div class = decision-top-right><div class = fixation>+</div></div></div></div>,,,,133264,0.0,practice_fixation,100,poldrack-single-stim,,
101,300.0,300.0,300.0,500.0,<div class = bigbox><div class = quad_box><div class = decision-top-right><img class = center src='/static/experiments/stop_signal_with_predictable_task_switching/images/stopSignal.png'></img></div></div></div>,go,,2000.0,,90.0,1.0,1.0,8.0,stop_signal_with_predictable_task_switching,,,,,,0.0-0.1-24.1,90.0,low,2.0,even,"[77, 90]",stay,magnitude,,633,1000.0,<div class = bigbox><div class = quad_box><div class = decision-top-right><div class = gng_number><div class = cue-text><img class = center src='/static/experiments/stop_signal_with_predictable_task_switching/images/2.png'></img></div></div></div></div></div>,,go,,135267,0.0,practice_trial,101,stop-signal,,2.0
102,,,,,,,,500.0,,,,,,stop_signal_with_predictable_task_switching,,,,,,0.0-0.1-25.1,-1.0,,,,none,,,,-1,500.0,"<div class = fb_box><div class = center-text><font size = 20>Correct!</font></div></div><div class = prompt_box><p class = center-block-text style = ""font-size:16px; line-height:80%;"">Do not respond if a star appears!</p><p class = center-block-text style = ""font-size:16px; line-height:80%;"">Top 2 quadrants: Judge number on magnitude</p><p class = center-block-text style = ""font-size:16px; line-height:80%;"">high: M Key | low: Z Key</p><p class = center-block-text style = ""font-size:16px; line-height:80%;"">Bottom 2 quadrants: Judge number on parity</p><p class = center-block-text style = ""font-size:16px; line-height:80%;"">even: M Key | odd: Z Key</p></div>",,,,135775,0.0,practice-stop-feedback,102,poldrack-single-stim,,
103,,,,,,,,500.0,,,,,,stop_signal_with_predictable_task_switching,,,,,,0.0-0.1-26.1,-1.0,,,,none,,,,-1,500.0,<div class = bigbox><div class = quad_box><div class = decision-bottom-right><div class = fixation>+</div></div></div></div>,,,,136282,0.0,practice_fixation,103,poldrack-single-stim,,
104,300.0,300.0,300.0,500.0,<div class = bigbox><div class = quad_box><div class = decision-bottom-right><img class = center src='/static/experiments/stop_signal_with_predictable_task_switching/images/stopSignal.png'></img></div></div></div>,stop,,2000.0,,-1.0,1.0,1.0,9.0,stop_signal_with_predictable_task_switching,,,,,,0.0-0.1-27.1,-1.0,low,2.0,even,"[77, 90]",switch,parity,,-1,1000.0,<div class = bigbox><div class = quad_box><div class = decision-bottom-right><div class = gng_number><div class = cue-text><img class = center src='/static/experiments/stop_signal_with_predictable_task_switching/images/2.png'></img></div></div></div></div></div>,1.0,stop,,138287,0.0,practice_trial,104,stop-signal,,3.0
105,,,,,,,,500.0,,,,,,stop_signal_with_predictable_task_switching,,,,,,0.0-0.1-28.1,-1.0,,,,none,,,,-1,500.0,"<div class = fb_box><div class = center-text><font size = 20>Correct!</font></div></div><div class = prompt_box><p class = center-block-text style = ""font-size:16px; line-height:80%;"">Do not respond if a star appears!</p><p class = center-block-text style = ""font-size:16px; line-height:80%;"">Top 2 quadrants: Judge number on magnitude</p><p class = center-block-text style = ""font-size:16px; line-height:80%;"">high: M Key | low: Z Key</p><p class = center-block-text style = ""font-size:16px; line-height:80%;"">Bottom 2 quadrants: Judge number on parity</p><p class = center-block-text style = ""font-size:16px; line-height:80%;"">even: M Key | odd: Z Key</p></div>",,,,138794,0.0,practice-stop-feedback,105,poldrack-single-stim,,
106,,,,,,,,500.0,,,,,,stop_signal_with_predictable_task_switching,,,,,,0.0-0.1-29.1,-1.0,,,,none,,,,-1,500.0,<div class = bigbox><div class = quad_box><div class = decision-bottom-left><div class = fixation>+</div></div></div></div>,,,,139297,0.0,practice_fixation,106,poldrack-single-stim,,
107,300.0,350.0,300.0,500.0,<div class = bigbox><div class = quad_box><div class = decision-bottom-left><img class = center src='/static/experiments/stop_signal_with_predictable_task_switching/images/stopSignal.png'></img></div></div></div>,stop,,2000.0,,-1.0,1.0,1.0,10.0,stop_signal_with_predictable_task_switching,,,,,,0.0-0.1-30.1,-1.0,low,2.0,even,"[77, 90]",stay,parity,,-1,1000.0,<div class = bigbox><div class = quad_box><div class = decision-bottom-left><div class = gng_number><div class = cue-text><img class = center src='/static/experiments/stop_signal_with_predictable_task_switching/images/2.png'></img></div></div></div></div></div>,1.0,stop,,141301,0.0,practice_trial,107,stop-signal,,4.0
108,,,,,,,,500.0,,,,,,stop_signal_with_predictable_task_switching,,,,,,0.0-0.1-31.1,-1.0,,,,none,,,,-1,500.0,"<div class = fb_box><div class = center-text><font size = 20>Correct!</font></div></div><div class = prompt_box><p class = center-block-text style = ""font-size:16px; line-height:80%;"">Do not respond if a star appears!</p><p class = center-block-text style = ""font-size:16px; line-height:80%;"">Top 2 quadrants: Judge number on magnitude</p><p class = center-block-text style = ""font-size:16px; line-height:80%;"">high: M Key | low: Z Key</p><p class = center-block-text style = ""font-size:16px; line-height:80%;"">Bottom 2 quadrants: Judge number on parity</p><p class = center-block-text style = ""font-size:16px; line-height:80%;"">even: M Key | odd: Z Key</p></div>",,,,141806,0.0,practice-stop-feedback,108,poldrack-single-stim,,
109,,,,,,,,500.0,,,,,,stop_signal_with_predictable_task_switching,,,,,,0.0-0.1-32.1,-1.0,,,,none,,,,-1,500.0,<div class = bigbox><div class = quad_box><div class = decision-top-left><div class = fixation>+</div></div></div></div>,,,,142313,0.0,practice_fixation,109,poldrack-single-stim,,
110,350.0,350.0,350.0,500.0,<div class = bigbox><div class = quad_box><div class = decision-top-left><img class = center src='/static/experiments/stop_signal_with_predictable_task_switching/images/stopSignal.png'></img></div></div></div>,stop,,2000.0,,-1.0,1.0,1.0,11.0,stop_signal_with_predictable_task_switching,,,,,,0.0-0.1-33.1,-1.0,high,9.0,odd,"[77, 90]",switch,magnitude,,-1,1000.0,<div class = bigbox><div class = quad_box><div class = decision-top-left><div class = gng_number><div class = cue-text><img class = center src='/static/experiments/stop_signal_with_predictable_task_switching/images/9.png'></img></div></div></div></div></div>,1.0,stop,,144316,0.0,practice_trial,110,stop-signal,,1.0
111,,,,,,,,500.0,,,,,,stop_signal_with_predictable_task_switching,,,,,,0.0-0.1-34.1,-1.0,,,,none,,,,-1,500.0,"<div class = fb_box><div class = center-text><font size = 20>Correct!</font></div></div><div class = prompt_box><p class = center-block-text style = ""font-size:16px; line-height:80%;"">Do not respond if a star appears!</p><p class = center-block-text style = ""font-size:16px; line-height:80%;"">Top 2 quadrants: Judge number on magnitude</p><p class = center-block-text style = ""font-size:16px; line-height:80%;"">high: M Key | low: Z Key</p><p class = center-block-text style = ""font-size:16px; line-height:80%;"">Bottom 2 quadrants: Judge number on parity</p><p class = center-block-text style = ""font-size:16px; line-height:80%;"">even: M Key | odd: Z Key</p></div>",,,,144821,0.0,practice-stop-feedback,111,poldrack-single-stim,,
112,,,,,,,,500.0,,,,,,stop_signal_with_predictable_task_switching,,,,,,0.0-0.1-35.1,-1.0,,,,none,,,,-1,500.0,<div class = bigbox><div class = quad_box><div class = decision-top-right><div class = fixation>+</div></div></div></div>,,,,145328,0.0,practice_fixation,112,poldrack-single-stim,,
113,350.0,400.0,350.0,500.0,<div class = bigbox><div class = quad_box><div class = decision-top-right><img class = center src='/static/experiments/stop_signal_with_predictable_task_switching/images/stopSignal.png'></img></div></div></div>,go,,2000.0,,90.0,1.0,1.0,12.0,stop_signal_with_predictable_task_switching,,,,,,0.0-0.1-36.1,90.0,low,1.0,odd,"[77, 90]",stay,magnitude,,865,1000.0,<div class = bigbox><div class = quad_box><div class = decision-top-right><div class = gng_number><div class = cue-text><img class = center src='/static/experiments/stop_signal_with_predictable_task_switching/images/1.png'></img></div></div></div></div></div>,,go,,147332,0.0,practice_trial,113,stop-signal,,2.0
114,,,,,,,,500.0,,,,,,stop_signal_with_predictable_task_switching,,,,,,0.0-0.1-37.1,-1.0,,,,none,,,,-1,500.0,"<div class = fb_box><div class = center-text><font size = 20>Correct!</font></div></div><div class = prompt_box><p class = center-block-text style = ""font-size:16px; line-height:80%;"">Do not respond if a star appears!</p><p class = center-block-text style = ""font-size:16px; line-height:80%;"">Top 2 quadrants: Judge number on magnitude</p><p class = center-block-text style = ""font-size:16px; line-height:80%;"">high: M Key | low: Z Key</p><p class = center-block-text style = ""font-size:16px; line-height:80%;"">Bottom 2 quadrants: Judge number on parity</p><p class = center-block-text style = ""font-size:16px; line-height:80%;"">even: M Key | odd: Z Key</p></div>",,,,147839,0.0,practice-stop-feedback,114,poldrack-single-stim,,
115,,,,,,,,500.0,,,,,,stop_signal_with_predictable_task_switching,,,,,,0.0-0.1-38.1,-1.0,,,,none,,,,-1,500.0,<div class = bigbox><div class = quad_box><div class = decision-bottom-right><div class = fixation>+</div></div></div></div>,,,,148342,0.0,practice_fixation,115,poldrack-single-stim,,
116,350.0,400.0,400.0,500.0,<div class = bigbox><div class = quad_box><div class = decision-bottom-right><img class = center src='/static/experiments/stop_signal_with_predictable_task_switching/images/stopSignal.png'></img></div></div></div>,go,,2000.0,,90.0,1.0,1.0,13.0,stop_signal_with_predictable_task_switching,,,,,,0.0-0.1-39.1,90.0,high,7.0,odd,"[77, 90]",switch,parity,,842,1000.0,<div class = bigbox><div class = quad_box><div class = decision-bottom-right><div class = gng_number><div class = cue-text><img class = center src='/static/experiments/stop_signal_with_predictable_task_switching/images/7.png'></img></div></div></div></div></div>,,go,,150344,0.0,practice_trial,116,stop-signal,,3.0
117,,,,,,,,500.0,,,,,,stop_signal_with_predictable_task_switching,,,,,,0.0-0.1-40.1,-1.0,,,,none,,,,-1,500.0,"<div class = fb_box><div class = center-text><font size = 20>Correct!</font></div></div><div class = prompt_box><p class = center-block-text style = ""font-size:16px; line-height:80%;"">Do not respond if a star appears!</p><p class = center-block-text style = ""font-size:16px; line-height:80%;"">Top 2 quadrants: Judge number on magnitude</p><p class = center-block-text style = ""font-size:16px; line-height:80%;"">high: M Key | low: Z Key</p><p class = center-block-text style = ""font-size:16px; line-height:80%;"">Bottom 2 quadrants: Judge number on parity</p><p class = center-block-text style = ""font-size:16px; line-height:80%;"">even: M Key | odd: Z Key</p></div>",,,,150848,0.0,practice-stop-feedback,117,poldrack-single-stim,,
118,,,,,,,,500.0,,,,,,stop_signal_with_predictable_task_switching,,,,,,0.0-0.1-41.1,-1.0,,,,none,,,,-1,500.0,<div class = bigbox><div class = quad_box><div class = decision-bottom-left><div class = fixation>+</div></div></div></div>,,,,151356,0.0,practice_fixation,118,poldrack-single-stim,,
119,350.0,400.0,350.0,500.0,<div class = bigbox><div class = quad_box><div class = decision-bottom-left><img class = center src='/static/experiments/stop_signal_with_predictable_task_switching/images/stopSignal.png'></img></div></div></div>,go,,2000.0,,90.0,1.0,1.0,14.0,stop_signal_with_predictable_task_switching,,,,,,0.0-0.1-42.1,90.0,low,1.0,odd,"[77, 90]",stay,parity,,331,1000.0,<div class = bigbox><div class = quad_box><div class = decision-bottom-left><div class = gng_number><div class = cue-text><img class = center src='/static/experiments/stop_signal_with_predictable_task_switching/images/1.png'></img></div></div></div></div></div>,,go,,153362,0.0,practice_trial,119,stop-signal,,4.0
120,,,,,,,,500.0,,,,,,stop_signal_with_predictable_task_switching,,,,,,0.0-0.1-43.1,-1.0,,,,none,,,,-1,500.0,"<div class = fb_box><div class = center-text><font size = 20>Correct!</font></div></div><div class = prompt_box><p class = center-block-text style = ""font-size:16px; line-height:80%;"">Do not respond if a star appears!</p><p class = center-block-text style = ""font-size:16px; line-height:80%;"">Top 2 quadrants: Judge number on magnitude</p><p class = center-block-text style = ""font-size:16px; line-height:80%;"">high: M Key | low: Z Key</p><p class = center-block-text style = ""font-size:16px; line-height:80%;"">Bottom 2 quadrants: Judge number on parity</p><p class = center-block-text style = ""font-size:16px; line-height:80%;"">even: M Key | odd: Z Key</p></div>",,,,153869,0.0,practice-stop-feedback,120,poldrack-single-stim,,
121,,,,,,,,500.0,,,,,,stop_signal_with_predictable_task_switching,,,,,,0.0-0.1-44.1,-1.0,,,,none,,,,-1,500.0,<div class = bigbox><div class = quad_box><div class = decision-top-left><div class = fixation>+</div></div></div></div>,,,,154374,0.0,practice_fixation,121,poldrack-single-stim,,
122,350.0,400.0,400.0,500.0,<div class = bigbox><div class = quad_box><div class = decision-top-left><img class = center src='/static/experiments/stop_signal_with_predictable_task_switching/images/stopSignal.png'></img></div></div></div>,go,,2000.0,,77.0,0.0,1.0,15.0,stop_signal_with_predictable_task_switching,,,,,,0.0-0.1-45.1,90.0,high,9.0,odd,"[77, 90]",switch,magnitude,,699,1000.0,<div class = bigbox><div class = quad_box><div class = decision-top-left><div class = gng_number><div class = cue-text><img class = center src='/static/experiments/stop_signal_with_predictable_task_switching/images/9.png'></img></div></div></div></div></div>,,go,,156378,0.0,practice_trial,122,stop-signal,,1.0
123,,,,,,,,500.0,,,,,,stop_signal_with_predictable_task_switching,,,,,,0.0-0.1-46.1,-1.0,,,,none,,,,-1,500.0,"<div class = fb_box><div class = center-text><font size = 20>Incorrect</font></div></div><div class = prompt_box><p class = center-block-text style = ""font-size:16px; line-height:80%;"">Do not respond if a star appears!</p><p class = center-block-text style = ""font-size:16px; line-height:80%;"">Top 2 quadrants: Judge number on magnitude</p><p class = center-block-text style = ""font-size:16px; line-height:80%;"">high: M Key | low: Z Key</p><p class = center-block-text style = ""font-size:16px; line-height:80%;"">Bottom 2 quadrants: Judge number on parity</p><p class = center-block-text style = ""font-size:16px; line-height:80%;"">even: M Key | odd: Z Key</p></div>",,,,156885,0.0,practice-stop-feedback,123,poldrack-single-stim,,
124,,,,,,,,500.0,,,,,,stop_signal_with_predictable_task_switching,,,,,,0.0-0.1-47.1,-1.0,,,,none,,,,-1,500.0,<div class = bigbox><div class = quad_box><div class = decision-top-right><div class = fixation>+</div></div></div></div>,,,,157392,0.0,practice_fixation,124,poldrack-single-stim,,
125,350.0,400.0,350.0,500.0,<div class = bigbox><div class = quad_box><div class = decision-top-right><img class = center src='/static/experiments/stop_signal_with_predictable_task_switching/images/stopSignal.png'></img></div></div></div>,go,,2000.0,,77.0,1.0,1.0,16.0,stop_signal_with_predictable_task_switching,,,,,,0.0-0.1-48.1,77.0,high,8.0,even,"[77, 90]",stay,magnitude,,626,1000.0,<div class = bigbox><div class = quad_box><div class = decision-top-right><div class = gng_number><div class = cue-text><img class = center src='/static/experiments/stop_signal_with_predictable_task_switching/images/8.png'></img></div></div></div></div></div>,,go,,159398,0.0,practice_trial,125,stop-signal,,2.0
126,,,,,,,,500.0,,,,,,stop_signal_with_predictable_task_switching,,,,,,0.0-0.1-49.1,-1.0,,,,none,,,,-1,500.0,"<div class = fb_box><div class = center-text><font size = 20>Correct!</font></div></div><div class = prompt_box><p class = center-block-text style = ""font-size:16px; line-height:80%;"">Do not respond if a star appears!</p><p class = center-block-text style = ""font-size:16px; line-height:80%;"">Top 2 quadrants: Judge number on magnitude</p><p class = center-block-text style = ""font-size:16px; line-height:80%;"">high: M Key | low: Z Key</p><p class = center-block-text style = ""font-size:16px; line-height:80%;"">Bottom 2 quadrants: Judge number on parity</p><p class = center-block-text style = ""font-size:16px; line-height:80%;"">even: M Key | odd: Z Key</p></div>",,,,159905,0.0,practice-stop-feedback,126,poldrack-single-stim,,
127,,,,,,,,500.0,,,,,,stop_signal_with_predictable_task_switching,,,,,,0.0-0.1-50.1,-1.0,,,,none,,,,-1,500.0,<div class = bigbox><div class = quad_box><div class = decision-bottom-right><div class = fixation>+</div></div></div></div>,,,,160408,0.0,practice_fixation,127,poldrack-single-stim,,
128,350.0,400.0,400.0,500.0,<div class = bigbox><div class = quad_box><div class = decision-bottom-right><img class = center src='/static/experiments/stop_signal_with_predictable_task_switching/images/stopSignal.png'></img></div></div></div>,go,,2000.0,,77.0,0.0,1.0,17.0,stop_signal_with_predictable_task_switching,,,,,,0.0-0.1-51.1,90.0,high,8.0,even,"[77, 90]",switch,parity,,767,1000.0,<div class = bigbox><div class = quad_box><div class = decision-bottom-right><div class = gng_number><div class = cue-text><img class = center src='/static/experiments/stop_signal_with_predictable_task_switching/images/8.png'></img></div></div></div></div></div>,,go,,162415,0.0,practice_trial,128,stop-signal,,3.0
129,,,,,,,,500.0,,,,,,stop_signal_with_predictable_task_switching,,,,,,0.0-0.1-52.1,-1.0,,,,none,,,,-1,500.0,"<div class = fb_box><div class = center-text><font size = 20>Incorrect</font></div></div><div class = prompt_box><p class = center-block-text style = ""font-size:16px; line-height:80%;"">Do not respond if a star appears!</p><p class = center-block-text style = ""font-size:16px; line-height:80%;"">Top 2 quadrants: Judge number on magnitude</p><p class = center-block-text style = ""font-size:16px; line-height:80%;"">high: M Key | low: Z Key</p><p class = center-block-text style = ""font-size:16px; line-height:80%;"">Bottom 2 quadrants: Judge number on parity</p><p class = center-block-text style = ""font-size:16px; line-height:80%;"">even: M Key | odd: Z Key</p></div>",,,,162921,0.0,practice-stop-feedback,129,poldrack-single-stim,,
130,,,,,,,,500.0,,,,,,stop_signal_with_predictable_task_switching,,,,,,0.0-0.1-53.1,-1.0,,,,none,,,,-1,500.0,<div class = bigbox><div class = quad_box><div class = decision-bottom-left><div class = fixation>+</div></div></div></div>,,,,163428,0.0,practice_fixation,130,poldrack-single-stim,,
131,350.0,400.0,350.0,500.0,<div class = bigbox><div class = quad_box><div class = decision-bottom-left><img class = center src='/static/experiments/stop_signal_with_predictable_task_switching/images/stopSignal.png'></img></div></div></div>,go,,2000.0,,90.0,1.0,1.0,18.0,stop_signal_with_predictable_task_switching,,,,,,0.0-0.1-54.1,90.0,high,7.0,odd,"[77, 90]",stay,parity,,523,1000.0,<div class = bigbox><div class = quad_box><div class = decision-bottom-left><div class = gng_number><div class = cue-text><img class = center src='/static/experiments/stop_signal_with_predictable_task_switching/images/7.png'></img></div></div></div></div></div>,,go,,165435,0.0,practice_trial,131,stop-signal,,4.0
132,,,,,,,,500.0,,,,,,stop_signal_with_predictable_task_switching,,,,,,0.0-0.1-55.1,-1.0,,,,none,,,,-1,500.0,"<div class = fb_box><div class = center-text><font size = 20>Correct!</font></div></div><div class = prompt_box><p class = center-block-text style = ""font-size:16px; line-height:80%;"">Do not respond if a star appears!</p><p class = center-block-text style = ""font-size:16px; line-height:80%;"">Top 2 quadrants: Judge number on magnitude</p><p class = center-block-text style = ""font-size:16px; line-height:80%;"">high: M Key | low: Z Key</p><p class = center-block-text style = ""font-size:16px; line-height:80%;"">Bottom 2 quadrants: Judge number on parity</p><p class = center-block-text style = ""font-size:16px; line-height:80%;"">even: M Key | odd: Z Key</p></div>",,,,165939,0.0,practice-stop-feedback,132,poldrack-single-stim,,
133,,,,,,,,500.0,,,,,,stop_signal_with_predictable_task_switching,,,,,,0.0-0.1-56.1,-1.0,,,,none,,,,-1,500.0,<div class = bigbox><div class = quad_box><div class = decision-top-left><div class = fixation>+</div></div></div></div>,,,,166446,0.0,practice_fixation,133,poldrack-single-stim,,
134,350.0,400.0,400.0,500.0,<div class = bigbox><div class = quad_box><div class = decision-top-left><img class = center src='/static/experiments/stop_signal_with_predictable_task_switching/images/stopSignal.png'></img></div></div></div>,go,,2000.0,,77.0,0.0,1.0,19.0,stop_signal_with_predictable_task_switching,,,,,,0.0-0.1-57.1,90.0,high,7.0,odd,"[77, 90]",switch,magnitude,,761,1000.0,<div class = bigbox><div class = quad_box><div class = decision-top-left><div class = gng_number><div class = cue-text><img class = center src='/static/experiments/stop_signal_with_predictable_task_switching/images/7.png'></img></div></div></div></div></div>,,go,,168449,0.0,practice_trial,134,stop-signal,,1.0
135,,,,,,,,500.0,,,,,,stop_signal_with_predictable_task_switching,,,,,,0.0-0.1-58.1,-1.0,,,,none,,,,-1,500.0,"<div class = fb_box><div class = center-text><font size = 20>Incorrect</font></div></div><div class = prompt_box><p class = center-block-text style = ""font-size:16px; line-height:80%;"">Do not respond if a star appears!</p><p class = center-block-text style = ""font-size:16px; line-height:80%;"">Top 2 quadrants: Judge number on magnitude</p><p class = center-block-text style = ""font-size:16px; line-height:80%;"">high: M Key | low: Z Key</p><p class = center-block-text style = ""font-size:16px; line-height:80%;"">Bottom 2 quadrants: Judge number on parity</p><p class = center-block-text style = ""font-size:16px; line-height:80%;"">even: M Key | odd: Z Key</p></div>",,,,168956,0.0,practice-stop-feedback,135,poldrack-single-stim,,
136,,,,,,,,500.0,,,,,,stop_signal_with_predictable_task_switching,,,,,,0.0-0.1-59.1,-1.0,,,,none,,,,-1,500.0,<div class = bigbox><div class = quad_box><div class = decision-top-right><div class = fixation>+</div></div></div></div>,,,,169463,0.0,practice_fixation,136,poldrack-single-stim,,
137,350.0,400.0,350.0,500.0,<div class = bigbox><div class = quad_box><div class = decision-top-right><img class = center src='/static/experiments/stop_signal_with_predictable_task_switching/images/stopSignal.png'></img></div></div></div>,go,,2000.0,,77.0,1.0,1.0,20.0,stop_signal_with_predictable_task_switching,,,,,,0.0-0.1-60.1,77.0,high,7.0,odd,"[77, 90]",stay,magnitude,,896,1000.0,<div class = bigbox><div class = quad_box><div class = decision-top-right><div class = gng_number><div class = cue-text><img class = center src='/static/experiments/stop_signal_with_predictable_task_switching/images/7.png'></img></div></div></div></div></div>,,go,,171468,0.0,practice_trial,137,stop-signal,,2.0
138,,,,,,,,500.0,,,,,,stop_signal_with_predictable_task_switching,,,,,,0.0-0.1-61.1,-1.0,,,,none,,,,-1,500.0,"<div class = fb_box><div class = center-text><font size = 20>Correct!</font></div></div><div class = prompt_box><p class = center-block-text style = ""font-size:16px; line-height:80%;"">Do not respond if a star appears!</p><p class = center-block-text style = ""font-size:16px; line-height:80%;"">Top 2 quadrants: Judge number on magnitude</p><p class = center-block-text style = ""font-size:16px; line-height:80%;"">high: M Key | low: Z Key</p><p class = center-block-text style = ""font-size:16px; line-height:80%;"">Bottom 2 quadrants: Judge number on parity</p><p class = center-block-text style = ""font-size:16px; line-height:80%;"">even: M Key | odd: Z Key</p></div>",,,,171975,0.0,practice-stop-feedback,138,poldrack-single-stim,,
139,,,,,,,,500.0,,,,,,stop_signal_with_predictable_task_switching,,,,,,0.0-0.1-62.1,-1.0,,,,none,,,,-1,500.0,<div class = bigbox><div class = quad_box><div class = decision-bottom-right><div class = fixation>+</div></div></div></div>,,,,172478,0.0,practice_fixation,139,poldrack-single-stim,,
140,350.0,400.0,400.0,500.0,<div class = bigbox><div class = quad_box><div class = decision-bottom-right><img class = center src='/static/experiments/stop_signal_with_predictable_task_switching/images/stopSignal.png'></img></div></div></div>,stop,,2000.0,,-1.0,1.0,1.0,21.0,stop_signal_with_predictable_task_switching,,,,,,0.0-0.1-63.1,-1.0,low,4.0,even,"[77, 90]",switch,parity,,-1,1000.0,<div class = bigbox><div class = quad_box><div class = decision-bottom-right><div class = gng_number><div class = cue-text><img class = center src='/static/experiments/stop_signal_with_predictable_task_switching/images/4.png'></img></div></div></div></div></div>,1.0,stop,,174484,0.0,practice_trial,140,stop-signal,,3.0
141,,,,,,,,500.0,,,,,,stop_signal_with_predictable_task_switching,,,,,,0.0-0.1-64.1,-1.0,,,,none,,,,-1,500.0,"<div class = fb_box><div class = center-text><font size = 20>Correct!</font></div></div><div class = prompt_box><p class = center-block-text style = ""font-size:16px; line-height:80%;"">Do not respond if a star appears!</p><p class = center-block-text style = ""font-size:16px; line-height:80%;"">Top 2 quadrants: Judge number on magnitude</p><p class = center-block-text style = ""font-size:16px; line-height:80%;"">high: M Key | low: Z Key</p><p class = center-block-text style = ""font-size:16px; line-height:80%;"">Bottom 2 quadrants: Judge number on parity</p><p class = center-block-text style = ""font-size:16px; line-height:80%;"">even: M Key | odd: Z Key</p></div>",,,,174989,0.0,practice-stop-feedback,141,poldrack-single-stim,,
142,,,,,,,,500.0,,,,,,stop_signal_with_predictable_task_switching,,,,,,0.0-0.1-65.1,-1.0,,,,none,,,,-1,500.0,<div class = bigbox><div class = quad_box><div class = decision-bottom-left><div class = fixation>+</div></div></div></div>,,,,175496,0.0,practice_fixation,142,poldrack-single-stim,,
143,350.0,450.0,350.0,500.0,<div class = bigbox><div class = quad_box><div class = decision-bottom-left><img class = center src='/static/experiments/stop_signal_with_predictable_task_switching/images/stopSignal.png'></img></div></div></div>,stop,,2000.0,,-1.0,1.0,1.0,22.0,stop_signal_with_predictable_task_switching,,,,,,0.0-0.1-66.1,-1.0,low,4.0,even,"[77, 90]",stay,parity,,-1,1000.0,<div class = bigbox><div class = quad_box><div class = decision-bottom-left><div class = gng_number><div class = cue-text><img class = center src='/static/experiments/stop_signal_with_predictable_task_switching/images/4.png'></img></div></div></div></div></div>,1.0,stop,,177502,0.0,practice_trial,143,stop-signal,,4.0
144,,,,,,,,500.0,,,,,,stop_signal_with_predictable_task_switching,,,,,,0.0-0.1-67.1,-1.0,,,,none,,,,-1,500.0,"<div class = fb_box><div class = center-text><font size = 20>Correct!</font></div></div><div class = prompt_box><p class = center-block-text style = ""font-size:16px; line-height:80%;"">Do not respond if a star appears!</p><p class = center-block-text style = ""font-size:16px; line-height:80%;"">Top 2 quadrants: Judge number on magnitude</p><p class = center-block-text style = ""font-size:16px; line-height:80%;"">high: M Key | low: Z Key</p><p class = center-block-text style = ""font-size:16px; line-height:80%;"">Bottom 2 quadrants: Judge number on parity</p><p class = center-block-text style = ""font-size:16px; line-height:80%;"">even: M Key | odd: Z Key</p></div>",,,,178006,0.0,practice-stop-feedback,144,poldrack-single-stim,,
145,,,,,,,,500.0,,,,,,stop_signal_with_predictable_task_switching,,,,,,0.0-0.1-68.1,-1.0,,,,none,,,,-1,500.0,<div class = bigbox><div class = quad_box><div class = decision-top-left><div class = fixation>+</div></div></div></div>,,,,178509,0.0,practice_fixation,145,poldrack-single-stim,,
146,400.0,450.0,450.0,500.0,<div class = bigbox><div class = quad_box><div class = decision-top-left><img class = center src='/static/experiments/stop_signal_with_predictable_task_switching/images/stopSignal.png'></img></div></div></div>,go,,2000.0,,90.0,1.0,1.0,23.0,stop_signal_with_predictable_task_switching,,,,,,0.0-0.1-69.1,90.0,low,3.0,odd,"[77, 90]",switch,magnitude,,554,1000.0,<div class = bigbox><div class = quad_box><div class = decision-top-left><div class = gng_number><div class = cue-text><img class = center src='/static/experiments/stop_signal_with_predictable_task_switching/images/3.png'></img></div></div></div></div></div>,,go,,180518,0.0,practice_trial,146,stop-signal,,1.0
147,,,,,,,,500.0,,,,,,stop_signal_with_predictable_task_switching,,,,,,0.0-0.1-70.1,-1.0,,,,none,,,,-1,500.0,"<div class = fb_box><div class = center-text><font size = 20>Correct!</font></div></div><div class = prompt_box><p class = center-block-text style = ""font-size:16px; line-height:80%;"">Do not respond if a star appears!</p><p class = center-block-text style = ""font-size:16px; line-height:80%;"">Top 2 quadrants: Judge number on magnitude</p><p class = center-block-text style = ""font-size:16px; line-height:80%;"">high: M Key | low: Z Key</p><p class = center-block-text style = ""font-size:16px; line-height:80%;"">Bottom 2 quadrants: Judge number on parity</p><p class = center-block-text style = ""font-size:16px; line-height:80%;"">even: M Key | odd: Z Key</p></div>",,,,181023,0.0,practice-stop-feedback,147,poldrack-single-stim,,
148,,,,,,,,500.0,,,,,,stop_signal_with_predictable_task_switching,,,,,,0.0-0.1-71.1,-1.0,,,,none,,,,-1,500.0,<div class = bigbox><div class = quad_box><div class = decision-top-right><div class = fixation>+</div></div></div></div>,,,,181529,0.0,practice_fixation,148,poldrack-single-stim,,
149,400.0,450.0,400.0,500.0,<div class = bigbox><div class = quad_box><div class = decision-top-right><img class = center src='/static/experiments/stop_signal_with_predictable_task_switching/images/stopSignal.png'></img></div></div></div>,stop,,2000.0,,-1.0,0.0,1.0,24.0,stop_signal_with_predictable_task_switching,,,,,,0.0-0.1-72.1,77.0,high,9.0,odd,"[77, 90]",stay,magnitude,,689,1000.0,<div class = bigbox><div class = quad_box><div class = decision-top-right><div class = gng_number><div class = cue-text><img class = center src='/static/experiments/stop_signal_with_predictable_task_switching/images/9.png'></img></div></div></div></div></div>,0.0,stop,,183535,0.0,practice_trial,149,stop-signal,,2.0
150,,,,,,,,500.0,,,,,,stop_signal_with_predictable_task_switching,,,,,,0.0-0.1-73.1,-1.0,,,,none,,,,-1,500.0,"<div class = fb_box><div class = center-text><font size = 20>There was a star.</font></div></div><div class = prompt_box><p class = center-block-text style = ""font-size:16px; line-height:80%;"">Do not respond if a star appears!</p><p class = center-block-text style = ""font-size:16px; line-height:80%;"">Top 2 quadrants: Judge number on magnitude</p><p class = center-block-text style = ""font-size:16px; line-height:80%;"">high: M Key | low: Z Key</p><p class = center-block-text style = ""font-size:16px; line-height:80%;"">Bottom 2 quadrants: Judge number on parity</p><p class = center-block-text style = ""font-size:16px; line-height:80%;"">even: M Key | odd: Z Key</p></div>",,,,184039,0.0,practice-stop-feedback,150,poldrack-single-stim,,
151,,,,,,,,500.0,,,,,,stop_signal_with_predictable_task_switching,,,,,,0.0-0.1-74.1,-1.0,,,,none,,,,-1,500.0,<div class = bigbox><div class = quad_box><div class = decision-bottom-right><div class = fixation>+</div></div></div></div>,,,,184544,0.0,practice_fixation,151,poldrack-single-stim,,
152,350.0,450.0,450.0,500.0,<div class = bigbox><div class = quad_box><div class = decision-bottom-right><img class = center src='/static/experiments/stop_signal_with_predictable_task_switching/images/stopSignal.png'></img></div></div></div>,go,,2000.0,,77.0,0.0,1.0,25.0,stop_signal_with_predictable_task_switching,,,,,,0.0-0.1-75.1,90.0,high,8.0,even,"[77, 90]",switch,parity,,709,1000.0,<div class = bigbox><div class = quad_box><div class = decision-bottom-right><div class = gng_number><div class = cue-text><img class = center src='/static/experiments/stop_signal_with_predictable_task_switching/images/8.png'></img></div></div></div></div></div>,,go,,186550,0.0,practice_trial,152,stop-signal,,3.0
153,,,,,,,,500.0,,,,,,stop_signal_with_predictable_task_switching,,,,,,0.0-0.1-76.1,-1.0,,,,none,,,,-1,500.0,"<div class = fb_box><div class = center-text><font size = 20>Incorrect</font></div></div><div class = prompt_box><p class = center-block-text style = ""font-size:16px; line-height:80%;"">Do not respond if a star appears!</p><p class = center-block-text style = ""font-size:16px; line-height:80%;"">Top 2 quadrants: Judge number on magnitude</p><p class = center-block-text style = ""font-size:16px; line-height:80%;"">high: M Key | low: Z Key</p><p class = center-block-text style = ""font-size:16px; line-height:80%;"">Bottom 2 quadrants: Judge number on parity</p><p class = center-block-text style = ""font-size:16px; line-height:80%;"">even: M Key | odd: Z Key</p></div>",,,,187054,0.0,practice-stop-feedback,153,poldrack-single-stim,,
154,,,,,,,,4050.0,,,,,,stop_signal_with_predictable_task_switching,,,,,,0.0-0.2-0.2,13.0,,,,[13],,,,4050,4050.0,"<div class = bigbox><div class = picture_box><p class = block-text><br>Please take this time to read your feedback and to take a short break! Press enter to continue</p><p class = block-text>We are going to try practice again to see if you can achieve higher accuracy.  Remember: <br><ul style = ""text-align:left;""><li>Do not respond if a star appears!</li><li>Top 2 quadrants: Judge number on magnitude</li><li>high: M Key</li><li>low: Z Key</li><li>Bottom 2 quadrants: Judge number on parity</li><li>even: M Key</li><li>odd: Z Key</li></ul></p><p class = block-text>Redoing this practice. Press Enter to continue.</p></div></div>",,,,191108,0.0,feedback_block,154,poldrack-single-stim,,
155,,,,,,,,,,,,,,stop_signal_with_predictable_task_switching,,,,,,0.0-0.2-1.2,,,,,,,,,4853,,,,,,195962,,instruction,155,poldrack-instructions,"[{""page_index"":0,""viewing_time"":2599},{""page_index"":1,""viewing_time"":1038},{""page_index"":2,""viewing_time"":1215}]",
156,,,,,,,,500.0,,,,,,stop_signal_with_predictable_task_switching,,,,,,0.0-0.2-2.2,-1.0,,,,none,,,,-1,500.0,<div class = bigbox><div class = quad_box><div class = decision-top-left><div class = fixation>+</div></div></div></div>,,,,197468,0.0,practice_fixation,156,poldrack-single-stim,,
157,350.0,450.0,,500.0,<div class = bigbox><div class = quad_box><div class = decision-top-left><img class = center src='/static/experiments/stop_signal_with_predictable_task_switching/images/stopSignal.png'></img></div></div></div>,go,,2000.0,,90.0,1.0,2.0,1.0,stop_signal_with_predictable_task_switching,,,,,,0.0-0.2-3.2,90.0,low,1.0,odd,"[77, 90]",N/A,magnitude,,472,1000.0,<div class = bigbox><div class = quad_box><div class = decision-top-left><div class = gng_number><div class = cue-text><img class = center src='/static/experiments/stop_signal_with_predictable_task_switching/images/1.png'></img></div></div></div></div></div>,,go,,199474,0.0,practice_trial,157,stop-signal,,1.0
158,,,,,,,,500.0,,,,,,stop_signal_with_predictable_task_switching,,,,,,0.0-0.2-4.2,-1.0,,,,none,,,,-1,500.0,"<div class = fb_box><div class = center-text><font size = 20>Correct!</font></div></div><div class = prompt_box><p class = center-block-text style = ""font-size:16px; line-height:80%;"">Do not respond if a star appears!</p><p class = center-block-text style = ""font-size:16px; line-height:80%;"">Top 2 quadrants: Judge number on magnitude</p><p class = center-block-text style = ""font-size:16px; line-height:80%;"">high: M Key | low: Z Key</p><p class = center-block-text style = ""font-size:16px; line-height:80%;"">Bottom 2 quadrants: Judge number on parity</p><p class = center-block-text style = ""font-size:16px; line-height:80%;"">even: M Key | odd: Z Key</p></div>",,,,199978,0.0,practice-stop-feedback,158,poldrack-single-stim,,
159,,,,,,,,500.0,,,,,,stop_signal_with_predictable_task_switching,,,,,,0.0-0.2-5.2,-1.0,,,,none,,,,-1,500.0,<div class = bigbox><div class = quad_box><div class = decision-top-right><div class = fixation>+</div></div></div></div>,,,,200485,0.0,practice_fixation,159,poldrack-single-stim,,
160,350.0,450.0,350.0,500.0,<div class = bigbox><div class = quad_box><div class = decision-top-right><img class = center src='/static/experiments/stop_signal_with_predictable_task_switching/images/stopSignal.png'></img></div></div></div>,stop,,2000.0,,-1.0,1.0,2.0,2.0,stop_signal_with_predictable_task_switching,,,,,,0.0-0.2-6.2,-1.0,low,1.0,odd,"[77, 90]",stay,magnitude,,-1,1000.0,<div class = bigbox><div class = quad_box><div class = decision-top-right><div class = gng_number><div class = cue-text><img class = center src='/static/experiments/stop_signal_with_predictable_task_switching/images/1.png'></img></div></div></div></div></div>,1.0,stop,,202490,0.0,practice_trial,160,stop-signal,,2.0
161,,,,,,,,500.0,,,,,,stop_signal_with_predictable_task_switching,,,,,,0.0-0.2-7.2,-1.0,,,,none,,,,-1,500.0,"<div class = fb_box><div class = center-text><font size = 20>Correct!</font></div></div><div class = prompt_box><p class = center-block-text style = ""font-size:16px; line-height:80%;"">Do not respond if a star appears!</p><p class = center-block-text style = ""font-size:16px; line-height:80%;"">Top 2 quadrants: Judge number on magnitude</p><p class = center-block-text style = ""font-size:16px; line-height:80%;"">high: M Key | low: Z Key</p><p class = center-block-text style = ""font-size:16px; line-height:80%;"">Bottom 2 quadrants: Judge number on parity</p><p class = center-block-text style = ""font-size:16px; line-height:80%;"">even: M Key | odd: Z Key</p></div>",,,,202996,0.0,practice-stop-feedback,161,poldrack-single-stim,,
162,,,,,,,,500.0,,,,,,stop_signal_with_predictable_task_switching,,,,,,0.0-0.2-8.2,-1.0,,,,none,,,,-1,500.0,<div class = bigbox><div class = quad_box><div class = decision-bottom-right><div class = fixation>+</div></div></div></div>,,,,203503,0.0,practice_fixation,162,poldrack-single-stim,,
163,400.0,450.0,450.0,500.0,<div class = bigbox><div class = quad_box><div class = decision-bottom-right><img class = center src='/static/experiments/stop_signal_with_predictable_task_switching/images/stopSignal.png'></img></div></div></div>,go,,2000.0,,90.0,1.0,2.0,3.0,stop_signal_with_predictable_task_switching,,,,,,0.0-0.2-9.2,90.0,low,3.0,odd,"[77, 90]",switch,parity,,634,1000.0,<div class = bigbox><div class = quad_box><div class = decision-bottom-right><div class = gng_number><div class = cue-text><img class = center src='/static/experiments/stop_signal_with_predictable_task_switching/images/3.png'></img></div></div></div></div></div>,,go,,205507,0.0,practice_trial,163,stop-signal,,3.0
