,SSD_go,SSD_nogo,SS_delay,SS_duration,SS_stimulus,SS_trial_type,att_check_percent,block_duration,correct,correct_response,correct_trial,current_block,current_trial,exp_id,final_accuracy,final_avg_rt,final_credit_var,final_missed_percent,final_responses_ok,go_acc,go_nogo_condition,internal_node_id,key_press,possible_responses,responses,rt,stim,stim_duration,stim_style,stimulus,stop_acc,stop_signal_condition,text,time_elapsed,timing_post_trial,trial_id,trial_index,trial_type,view_history
0,,,,,,,,1930.0,,,,,,stop_signal_with_go_no_go,,,,,,,,0.0-0.0-0.0,13.0,[13],,1930,,1930.0,,"<div class = bigbox><div class = picture_box><p class = block-text><font color=""white"">Welcome to the experiment. This experiment will take around 15 minutes. Press <i>enter</i> to begin.</font></p></div></div>",,,,1932,0.0,practice-no-stop-feedback,0,poldrack-single-stim,
1,,,,,,,,,,,,,,stop_signal_with_go_no_go,,,,,,,,0.0-0.0-1.0,,,,802572,,,,,,,,804505,,instruction,1,poldrack-instructions,"[{""page_index"":0,""viewing_time"":771443},{""page_index"":1,""viewing_time"":4598},{""page_index"":2,""viewing_time"":24035},{""page_index"":3,""viewing_time"":2495}]"
2,,,,,,,,500.0,,,,,,stop_signal_with_go_no_go,,,,,,,,0.0-0.0-2.0,-1.0,none,,-1,,500.0,,<div class = centerbox><div class = fixation>+</div></div>,,,,805014,0.0,prompt_fixation,2,poldrack-single-stim,
3,350.0,350.0,350.0,500.0,<div class = bigbox><div class = centerbox><div class = starbox><img class = center src='/static/experiments/stop_signal_with_go_no_go/images/stopSignal.png'></img></div></div></div>,go,,2000.0,,90.0,0.0,0.0,1.0,stop_signal_with_go_no_go,,,,,,0.0,go,0.0-0.0-3.0,77.0,"[90, 77]",,849,square,1000.0,solid,<div class = bigbox><div class = centerbox><div class = gng_number><div class = cue-text><img class = center src='/static/experiments/stop_signal_with_go_no_go/images/solid_square.png'></img></div></div></div></div>,,go,,807018,0.0,practice_trial,3,stop-signal,
4,,,,,,,,500.0,,,,,,stop_signal_with_go_no_go,,,,,,,,0.0-0.0-4.0,-1.0,none,,-1,,500.0,,"<div class = fb_box><div class = center-text><font size = 20>Incorrect</font></div></div><div class = prompt_box><p class = center-block-text style = ""font-size:16px; line-height:80%%;"">square: Z key</p><p class = center-block-text style = ""font-size:16px; line-height:80%%;"">circle: M key</p><p class = center-block-text style = ""font-size:16px; line-height:80%%;"">Do not respond if a star appears!</p><p class = center-block-text style = ""font-size:16px; line-height:80%%;"">Do not respond if the shape is outlined!</p></div>",,,,807521,0.0,practice-stop-feedback,4,poldrack-single-stim,
5,,,,,,,,500.0,,,,,,stop_signal_with_go_no_go,,,,,,,,0.0-0.0-5.0,-1.0,none,,-1,,500.0,,<div class = centerbox><div class = fixation>+</div></div>,,,,808024,0.0,prompt_fixation,5,poldrack-single-stim,
6,350.0,350.0,350.0,500.0,<div class = bigbox><div class = centerbox><div class = starbox><img class = center src='/static/experiments/stop_signal_with_go_no_go/images/stopSignal.png'></img></div></div></div>,go,,2000.0,,77.0,0.0,0.0,2.0,stop_signal_with_go_no_go,,,,,,0.0,go,0.0-0.0-6.0,90.0,"[90, 77]",,690,circle,1000.0,solid,<div class = bigbox><div class = centerbox><div class = gng_number><div class = cue-text><img class = center src='/static/experiments/stop_signal_with_go_no_go/images/solid_circle.png'></img></div></div></div></div>,,go,,810026,0.0,practice_trial,6,stop-signal,
7,,,,,,,,500.0,,,,,,stop_signal_with_go_no_go,,,,,,,,0.0-0.0-7.0,-1.0,none,,-1,,500.0,,"<div class = fb_box><div class = center-text><font size = 20>Incorrect</font></div></div><div class = prompt_box><p class = center-block-text style = ""font-size:16px; line-height:80%%;"">square: Z key</p><p class = center-block-text style = ""font-size:16px; line-height:80%%;"">circle: M key</p><p class = center-block-text style = ""font-size:16px; line-height:80%%;"">Do not respond if a star appears!</p><p class = center-block-text style = ""font-size:16px; line-height:80%%;"">Do not respond if the shape is outlined!</p></div>",,,,810530,0.0,practice-stop-feedback,7,poldrack-single-stim,
8,,,,,,,,500.0,,,,,,stop_signal_with_go_no_go,,,,,,,,0.0-0.0-8.0,-1.0,none,,-1,,500.0,,<div class = centerbox><div class = fixation>+</div></div>,,,,811034,0.0,prompt_fixation,8,poldrack-single-stim,
9,350.0,350.0,350.0,500.0,<div class = bigbox><div class = centerbox><div class = starbox><img class = center src='/static/experiments/stop_signal_with_go_no_go/images/stopSignal.png'></img></div></div></div>,go,,2000.0,,90.0,1.0,0.0,3.0,stop_signal_with_go_no_go,,,,,,1.0,go,0.0-0.0-9.0,90.0,"[90, 77]",,515,square,1000.0,solid,<div class = bigbox><div class = centerbox><div class = gng_number><div class = cue-text><img class = center src='/static/experiments/stop_signal_with_go_no_go/images/solid_square.png'></img></div></div></div></div>,,go,,813038,0.0,practice_trial,9,stop-signal,
10,,,,,,,,500.0,,,,,,stop_signal_with_go_no_go,,,,,,,,0.0-0.0-10.0,-1.0,none,,-1,,500.0,,"<div class = fb_box><div class = center-text><font size = 20>Correct!</font></div></div><div class = prompt_box><p class = center-block-text style = ""font-size:16px; line-height:80%%;"">square: Z key</p><p class = center-block-text style = ""font-size:16px; line-height:80%%;"">circle: M key</p><p class = center-block-text style = ""font-size:16px; line-height:80%%;"">Do not respond if a star appears!</p><p class = center-block-text style = ""font-size:16px; line-height:80%%;"">Do not respond if the shape is outlined!</p></div>",,,,813542,0.0,practice-stop-feedback,10,poldrack-single-stim,
11,,,,,,,,500.0,,,,,,stop_signal_with_go_no_go,,,,,,,,0.0-0.0-11.0,-1.0,none,,-1,,500.0,,<div class = centerbox><div class = fixation>+</div></div>,,,,814045,0.0,prompt_fixation,11,poldrack-single-stim,
12,350.0,350.0,350.0,500.0,<div class = bigbox><div class = centerbox><div class = starbox><img class = center src='/static/experiments/stop_signal_with_go_no_go/images/stopSignal.png'></img></div></div></div>,stop,,2000.0,,-1.0,0.0,0.0,4.0,stop_signal_with_go_no_go,,,,,,,go,0.0-0.0-12.0,77.0,"[90, 77]",,540,square,1000.0,solid,<div class = bigbox><div class = centerbox><div class = gng_number><div class = cue-text><img class = center src='/static/experiments/stop_signal_with_go_no_go/images/solid_square.png'></img></div></div></div></div>,0.0,stop,,816048,0.0,practice_trial,12,stop-signal,
13,,,,,,,,500.0,,,,,,stop_signal_with_go_no_go,,,,,,,,0.0-0.0-13.0,-1.0,none,,-1,,500.0,,"<div class = fb_box><div class = center-text><font size = 20>There was a star.</font></div></div><div class = prompt_box><p class = center-block-text style = ""font-size:16px; line-height:80%%;"">square: Z key</p><p class = center-block-text style = ""font-size:16px; line-height:80%%;"">circle: M key</p><p class = center-block-text style = ""font-size:16px; line-height:80%%;"">Do not respond if a star appears!</p><p class = center-block-text style = ""font-size:16px; line-height:80%%;"">Do not respond if the shape is outlined!</p></div>",,,,816551,0.0,practice-stop-feedback,13,poldrack-single-stim,
14,,,,,,,,500.0,,,,,,stop_signal_with_go_no_go,,,,,,,,0.0-0.0-14.0,-1.0,none,,-1,,500.0,,<div class = centerbox><div class = fixation>+</div></div>,,,,817052,0.0,prompt_fixation,14,poldrack-single-stim,
15,300.0,350.0,300.0,500.0,<div class = bigbox><div class = centerbox><div class = starbox><img class = center src='/static/experiments/stop_signal_with_go_no_go/images/stopSignal.png'></img></div></div></div>,stop,,2000.0,,-1.0,0.0,0.0,5.0,stop_signal_with_go_no_go,,,,,,,go,0.0-0.0-15.0,90.0,"[90, 77]",,551,square,1000.0,solid,<div class = bigbox><div class = centerbox><div class = gng_number><div class = cue-text><img class = center src='/static/experiments/stop_signal_with_go_no_go/images/solid_square.png'></img></div></div></div></div>,0.0,stop,,819054,0.0,practice_trial,15,stop-signal,
16,,,,,,,,500.0,,,,,,stop_signal_with_go_no_go,,,,,,,,0.0-0.0-16.0,-1.0,none,,-1,,500.0,,"<div class = fb_box><div class = center-text><font size = 20>There was a star.</font></div></div><div class = prompt_box><p class = center-block-text style = ""font-size:16px; line-height:80%%;"">square: Z key</p><p class = center-block-text style = ""font-size:16px; line-height:80%%;"">circle: M key</p><p class = center-block-text style = ""font-size:16px; line-height:80%%;"">Do not respond if a star appears!</p><p class = center-block-text style = ""font-size:16px; line-height:80%%;"">Do not respond if the shape is outlined!</p></div>",,,,819557,0.0,practice-stop-feedback,16,poldrack-single-stim,
17,,,,,,,,500.0,,,,,,stop_signal_with_go_no_go,,,,,,,,0.0-0.0-17.0,-1.0,none,,-1,,500.0,,<div class = centerbox><div class = fixation>+</div></div>,,,,820058,0.0,prompt_fixation,17,poldrack-single-stim,
18,250.0,350.0,250.0,500.0,<div class = bigbox><div class = centerbox><div class = starbox><img class = center src='/static/experiments/stop_signal_with_go_no_go/images/stopSignal.png'></img></div></div></div>,stop,,2000.0,,-1.0,0.0,0.0,6.0,stop_signal_with_go_no_go,,,,,,,go,0.0-0.0-18.0,77.0,"[90, 77]",,704,circle,1000.0,solid,<div class = bigbox><div class = centerbox><div class = gng_number><div class = cue-text><img class = center src='/static/experiments/stop_signal_with_go_no_go/images/solid_circle.png'></img></div></div></div></div>,0.0,stop,,822062,0.0,practice_trial,18,stop-signal,
19,,,,,,,,500.0,,,,,,stop_signal_with_go_no_go,,,,,,,,0.0-0.0-19.0,-1.0,none,,-1,,500.0,,"<div class = fb_box><div class = center-text><font size = 20>There was a star.</font></div></div><div class = prompt_box><p class = center-block-text style = ""font-size:16px; line-height:80%%;"">square: Z key</p><p class = center-block-text style = ""font-size:16px; line-height:80%%;"">circle: M key</p><p class = center-block-text style = ""font-size:16px; line-height:80%%;"">Do not respond if a star appears!</p><p class = center-block-text style = ""font-size:16px; line-height:80%%;"">Do not respond if the shape is outlined!</p></div>",,,,822566,0.0,practice-stop-feedback,19,poldrack-single-stim,
20,,,,,,,,500.0,,,,,,stop_signal_with_go_no_go,,,,,,,,0.0-0.0-20.0,-1.0,none,,-1,,500.0,,<div class = centerbox><div class = fixation>+</div></div>,,,,823069,0.0,prompt_fixation,20,poldrack-single-stim,
21,200.0,350.0,200.0,500.0,<div class = bigbox><div class = centerbox><div class = starbox><img class = center src='/static/experiments/stop_signal_with_go_no_go/images/stopSignal.png'></img></div></div></div>,go,,2000.0,,77.0,1.0,0.0,7.0,stop_signal_with_go_no_go,,,,,,1.0,go,0.0-0.0-21.0,77.0,"[90, 77]",,703,circle,1000.0,solid,<div class = bigbox><div class = centerbox><div class = gng_number><div class = cue-text><img class = center src='/static/experiments/stop_signal_with_go_no_go/images/solid_circle.png'></img></div></div></div></div>,,go,,825072,0.0,practice_trial,21,stop-signal,
22,,,,,,,,500.0,,,,,,stop_signal_with_go_no_go,,,,,,,,0.0-0.0-22.0,-1.0,none,,-1,,500.0,,"<div class = fb_box><div class = center-text><font size = 20>Correct!</font></div></div><div class = prompt_box><p class = center-block-text style = ""font-size:16px; line-height:80%%;"">square: Z key</p><p class = center-block-text style = ""font-size:16px; line-height:80%%;"">circle: M key</p><p class = center-block-text style = ""font-size:16px; line-height:80%%;"">Do not respond if a star appears!</p><p class = center-block-text style = ""font-size:16px; line-height:80%%;"">Do not respond if the shape is outlined!</p></div>",,,,825576,0.0,practice-stop-feedback,22,poldrack-single-stim,
23,,,,,,,,500.0,,,,,,stop_signal_with_go_no_go,,,,,,,,0.0-0.0-23.0,-1.0,none,,-1,,500.0,,<div class = centerbox><div class = fixation>+</div></div>,,,,826078,0.0,prompt_fixation,23,poldrack-single-stim,
24,200.0,350.0,200.0,500.0,<div class = bigbox><div class = centerbox><div class = starbox><img class = center src='/static/experiments/stop_signal_with_go_no_go/images/stopSignal.png'></img></div></div></div>,go,,2000.0,,90.0,1.0,0.0,8.0,stop_signal_with_go_no_go,,,,,,1.0,go,0.0-0.0-24.0,90.0,"[90, 77]",,533,square,1000.0,solid,<div class = bigbox><div class = centerbox><div class = gng_number><div class = cue-text><img class = center src='/static/experiments/stop_signal_with_go_no_go/images/solid_square.png'></img></div></div></div></div>,,go,,828080,0.0,practice_trial,24,stop-signal,
25,,,,,,,,500.0,,,,,,stop_signal_with_go_no_go,,,,,,,,0.0-0.0-25.0,-1.0,none,,-1,,500.0,,"<div class = fb_box><div class = center-text><font size = 20>Correct!</font></div></div><div class = prompt_box><p class = center-block-text style = ""font-size:16px; line-height:80%%;"">square: Z key</p><p class = center-block-text style = ""font-size:16px; line-height:80%%;"">circle: M key</p><p class = center-block-text style = ""font-size:16px; line-height:80%%;"">Do not respond if a star appears!</p><p class = center-block-text style = ""font-size:16px; line-height:80%%;"">Do not respond if the shape is outlined!</p></div>",,,,828583,0.0,practice-stop-feedback,25,poldrack-single-stim,
26,,,,,,,,500.0,,,,,,stop_signal_with_go_no_go,,,,,,,,0.0-0.0-26.0,-1.0,none,,-1,,500.0,,<div class = centerbox><div class = fixation>+</div></div>,,,,829084,0.0,prompt_fixation,26,poldrack-single-stim,
27,200.0,350.0,200.0,500.0,<div class = bigbox><div class = centerbox><div class = starbox><img class = center src='/static/experiments/stop_signal_with_go_no_go/images/stopSignal.png'></img></div></div></div>,go,,2000.0,,90.0,1.0,0.0,9.0,stop_signal_with_go_no_go,,,,,,1.0,go,0.0-0.0-27.0,90.0,"[90, 77]",,802,square,1000.0,solid,<div class = bigbox><div class = centerbox><div class = gng_number><div class = cue-text><img class = center src='/static/experiments/stop_signal_with_go_no_go/images/solid_square.png'></img></div></div></div></div>,,go,,831088,0.0,practice_trial,27,stop-signal,
28,,,,,,,,500.0,,,,,,stop_signal_with_go_no_go,,,,,,,,0.0-0.0-28.0,-1.0,none,,-1,,500.0,,"<div class = fb_box><div class = center-text><font size = 20>Correct!</font></div></div><div class = prompt_box><p class = center-block-text style = ""font-size:16px; line-height:80%%;"">square: Z key</p><p class = center-block-text style = ""font-size:16px; line-height:80%%;"">circle: M key</p><p class = center-block-text style = ""font-size:16px; line-height:80%%;"">Do not respond if a star appears!</p><p class = center-block-text style = ""font-size:16px; line-height:80%%;"">Do not respond if the shape is outlined!</p></div>",,,,831591,0.0,practice-stop-feedback,28,poldrack-single-stim,
29,,,,,,,,500.0,,,,,,stop_signal_with_go_no_go,,,,,,,,0.0-0.0-29.0,-1.0,none,,-1,,500.0,,<div class = centerbox><div class = fixation>+</div></div>,,,,832093,0.0,prompt_fixation,29,poldrack-single-stim,
30,200.0,350.0,200.0,500.0,<div class = bigbox><div class = centerbox><div class = starbox><img class = center src='/static/experiments/stop_signal_with_go_no_go/images/stopSignal.png'></img></div></div></div>,stop,,2000.0,,-1.0,0.0,0.0,10.0,stop_signal_with_go_no_go,,,,,,,go,0.0-0.0-30.0,90.0,"[90, 77]",,394,square,1000.0,solid,<div class = bigbox><div class = centerbox><div class = gng_number><div class = cue-text><img class = center src='/static/experiments/stop_signal_with_go_no_go/images/solid_square.png'></img></div></div></div></div>,0.0,stop,,834096,0.0,practice_trial,30,stop-signal,
31,,,,,,,,500.0,,,,,,stop_signal_with_go_no_go,,,,,,,,0.0-0.0-31.0,-1.0,none,,-1,,500.0,,"<div class = fb_box><div class = center-text><font size = 20>There was a star.</font></div></div><div class = prompt_box><p class = center-block-text style = ""font-size:16px; line-height:80%%;"">square: Z key</p><p class = center-block-text style = ""font-size:16px; line-height:80%%;"">circle: M key</p><p class = center-block-text style = ""font-size:16px; line-height:80%%;"">Do not respond if a star appears!</p><p class = center-block-text style = ""font-size:16px; line-height:80%%;"">Do not respond if the shape is outlined!</p></div>",,,,834599,0.0,practice-stop-feedback,31,poldrack-single-stim,
32,,,,,,,,500.0,,,,,,stop_signal_with_go_no_go,,,,,,,,0.0-0.0-32.0,-1.0,none,,-1,,500.0,,<div class = centerbox><div class = fixation>+</div></div>,,,,835101,0.0,prompt_fixation,32,poldrack-single-stim,
33,150.0,350.0,350.0,500.0,<div class = bigbox><div class = centerbox><div class = starbox><img class = center src='/static/experiments/stop_signal_with_go_no_go/images/stopSignal.png'></img></div></div></div>,go,,2000.0,,-1.0,1.0,0.0,11.0,stop_signal_with_go_no_go,,,,,,1.0,nogo,0.0-0.0-33.0,-1.0,"[90, 77]",,-1,circle,1000.0,outlined,<div class = bigbox><div class = centerbox><div class = gng_number><div class = cue-text><img class = center src='/static/experiments/stop_signal_with_go_no_go/images/outlined_circle.png'></img></div></div></div></div>,,go,,837104,0.0,practice_trial,33,stop-signal,
34,,,,,,,,500.0,,,,,,stop_signal_with_go_no_go,,,,,,,,0.0-0.0-34.0,-1.0,none,,-1,,500.0,,"<div class = fb_box><div class = center-text><font size = 20>Correct!</font></div></div><div class = prompt_box><p class = center-block-text style = ""font-size:16px; line-height:80%%;"">square: Z key</p><p class = center-block-text style = ""font-size:16px; line-height:80%%;"">circle: M key</p><p class = center-block-text style = ""font-size:16px; line-height:80%%;"">Do not respond if a star appears!</p><p class = center-block-text style = ""font-size:16px; line-height:80%%;"">Do not respond if the shape is outlined!</p></div>",,,,837607,0.0,practice-stop-feedback,34,poldrack-single-stim,
35,,,,,,,,500.0,,,,,,stop_signal_with_go_no_go,,,,,,,,0.0-0.0-35.0,-1.0,none,,-1,,500.0,,<div class = centerbox><div class = fixation>+</div></div>,,,,838109,0.0,prompt_fixation,35,poldrack-single-stim,
36,150.0,350.0,350.0,500.0,<div class = bigbox><div class = centerbox><div class = starbox><img class = center src='/static/experiments/stop_signal_with_go_no_go/images/stopSignal.png'></img></div></div></div>,go,,2000.0,,-1.0,1.0,0.0,12.0,stop_signal_with_go_no_go,,,,,,1.0,nogo,0.0-0.0-36.0,-1.0,"[90, 77]",,-1,circle,1000.0,outlined,<div class = bigbox><div class = centerbox><div class = gng_number><div class = cue-text><img class = center src='/static/experiments/stop_signal_with_go_no_go/images/outlined_circle.png'></img></div></div></div></div>,,go,,840112,0.0,practice_trial,36,stop-signal,
37,,,,,,,,500.0,,,,,,stop_signal_with_go_no_go,,,,,,,,0.0-0.0-37.0,-1.0,none,,-1,,500.0,,"<div class = fb_box><div class = center-text><font size = 20>Correct!</font></div></div><div class = prompt_box><p class = center-block-text style = ""font-size:16px; line-height:80%%;"">square: Z key</p><p class = center-block-text style = ""font-size:16px; line-height:80%%;"">circle: M key</p><p class = center-block-text style = ""font-size:16px; line-height:80%%;"">Do not respond if a star appears!</p><p class = center-block-text style = ""font-size:16px; line-height:80%%;"">Do not respond if the shape is outlined!</p></div>",,,,840616,0.0,practice-stop-feedback,37,poldrack-single-stim,
38,,,,,,,,500.0,,,,,,stop_signal_with_go_no_go,,,,,,,,0.0-0.0-38.0,-1.0,none,,-1,,500.0,,<div class = centerbox><div class = fixation>+</div></div>,,,,841120,0.0,prompt_fixation,38,poldrack-single-stim,
39,150.0,350.0,150.0,500.0,<div class = bigbox><div class = centerbox><div class = starbox><img class = center src='/static/experiments/stop_signal_with_go_no_go/images/stopSignal.png'></img></div></div></div>,go,,2000.0,,77.0,1.0,0.0,13.0,stop_signal_with_go_no_go,,,,,,1.0,go,0.0-0.0-39.0,77.0,"[90, 77]",,733,circle,1000.0,solid,<div class = bigbox><div class = centerbox><div class = gng_number><div class = cue-text><img class = center src='/static/experiments/stop_signal_with_go_no_go/images/solid_circle.png'></img></div></div></div></div>,,go,,843122,0.0,practice_trial,39,stop-signal,
40,,,,,,,,500.0,,,,,,stop_signal_with_go_no_go,,,,,,,,0.0-0.0-40.0,-1.0,none,,-1,,500.0,,"<div class = fb_box><div class = center-text><font size = 20>Correct!</font></div></div><div class = prompt_box><p class = center-block-text style = ""font-size:16px; line-height:80%%;"">square: Z key</p><p class = center-block-text style = ""font-size:16px; line-height:80%%;"">circle: M key</p><p class = center-block-text style = ""font-size:16px; line-height:80%%;"">Do not respond if a star appears!</p><p class = center-block-text style = ""font-size:16px; line-height:80%%;"">Do not respond if the shape is outlined!</p></div>",,,,843624,0.0,practice-stop-feedback,40,poldrack-single-stim,
41,,,,,,,,500.0,,,,,,stop_signal_with_go_no_go,,,,,,,,0.0-0.0-41.0,-1.0,none,,-1,,500.0,,<div class = centerbox><div class = fixation>+</div></div>,,,,844126,0.0,prompt_fixation,41,poldrack-single-stim,
42,150.0,350.0,150.0,500.0,<div class = bigbox><div class = centerbox><div class = starbox><img class = center src='/static/experiments/stop_signal_with_go_no_go/images/stopSignal.png'></img></div></div></div>,stop,,2000.0,,-1.0,1.0,0.0,14.0,stop_signal_with_go_no_go,,,,,,,go,0.0-0.0-42.0,-1.0,"[90, 77]",,-1,circle,1000.0,solid,<div class = bigbox><div class = centerbox><div class = gng_number><div class = cue-text><img class = center src='/static/experiments/stop_signal_with_go_no_go/images/solid_circle.png'></img></div></div></div></div>,1.0,stop,,846129,0.0,practice_trial,42,stop-signal,
43,,,,,,,,500.0,,,,,,stop_signal_with_go_no_go,,,,,,,,0.0-0.0-43.0,-1.0,none,,-1,,500.0,,"<div class = fb_box><div class = center-text><font size = 20>Correct!</font></div></div><div class = prompt_box><p class = center-block-text style = ""font-size:16px; line-height:80%%;"">square: Z key</p><p class = center-block-text style = ""font-size:16px; line-height:80%%;"">circle: M key</p><p class = center-block-text style = ""font-size:16px; line-height:80%%;"">Do not respond if a star appears!</p><p class = center-block-text style = ""font-size:16px; line-height:80%%;"">Do not respond if the shape is outlined!</p></div>",,,,846631,0.0,practice-stop-feedback,43,poldrack-single-stim,
44,,,,,,,,500.0,,,,,,stop_signal_with_go_no_go,,,,,,,,0.0-0.0-44.0,-1.0,none,,-1,,500.0,,<div class = centerbox><div class = fixation>+</div></div>,,,,847133,0.0,prompt_fixation,44,poldrack-single-stim,
45,200.0,350.0,350.0,500.0,<div class = bigbox><div class = centerbox><div class = starbox><img class = center src='/static/experiments/stop_signal_with_go_no_go/images/stopSignal.png'></img></div></div></div>,stop,,2000.0,,-1.0,1.0,0.0,15.0,stop_signal_with_go_no_go,,,,,,,nogo,0.0-0.0-45.0,-1.0,"[90, 77]",,-1,square,1000.0,outlined,<div class = bigbox><div class = centerbox><div class = gng_number><div class = cue-text><img class = center src='/static/experiments/stop_signal_with_go_no_go/images/outlined_square.png'></img></div></div></div></div>,1.0,stop,,849135,0.0,practice_trial,45,stop-signal,
46,,,,,,,,500.0,,,,,,stop_signal_with_go_no_go,,,,,,,,0.0-0.0-46.0,-1.0,none,,-1,,500.0,,"<div class = fb_box><div class = center-text><font size = 20>Correct!</font></div></div><div class = prompt_box><p class = center-block-text style = ""font-size:16px; line-height:80%%;"">square: Z key</p><p class = center-block-text style = ""font-size:16px; line-height:80%%;"">circle: M key</p><p class = center-block-text style = ""font-size:16px; line-height:80%%;"">Do not respond if a star appears!</p><p class = center-block-text style = ""font-size:16px; line-height:80%%;"">Do not respond if the shape is outlined!</p></div>",,,,849637,0.0,practice-stop-feedback,46,poldrack-single-stim,
47,,,,,,,,500.0,,,,,,stop_signal_with_go_no_go,,,,,,,,0.0-0.0-47.0,-1.0,none,,-1,,500.0,,<div class = centerbox><div class = fixation>+</div></div>,,,,850139,0.0,prompt_fixation,47,poldrack-single-stim,
48,200.0,400.0,400.0,500.0,<div class = bigbox><div class = centerbox><div class = starbox><img class = center src='/static/experiments/stop_signal_with_go_no_go/images/stopSignal.png'></img></div></div></div>,go,,2000.0,,-1.0,1.0,0.0,16.0,stop_signal_with_go_no_go,,,,,,1.0,nogo,0.0-0.0-48.0,-1.0,"[90, 77]",,-1,square,1000.0,outlined,<div class = bigbox><div class = centerbox><div class = gng_number><div class = cue-text><img class = center src='/static/experiments/stop_signal_with_go_no_go/images/outlined_square.png'></img></div></div></div></div>,,go,,852143,0.0,practice_trial,48,stop-signal,
49,,,,,,,,500.0,,,,,,stop_signal_with_go_no_go,,,,,,,,0.0-0.0-49.0,-1.0,none,,-1,,500.0,,"<div class = fb_box><div class = center-text><font size = 20>Correct!</font></div></div><div class = prompt_box><p class = center-block-text style = ""font-size:16px; line-height:80%%;"">square: Z key</p><p class = center-block-text style = ""font-size:16px; line-height:80%%;"">circle: M key</p><p class = center-block-text style = ""font-size:16px; line-height:80%%;"">Do not respond if a star appears!</p><p class = center-block-text style = ""font-size:16px; line-height:80%%;"">Do not respond if the shape is outlined!</p></div>",,,,852646,0.0,practice-stop-feedback,49,poldrack-single-stim,
50,,,,,,,,500.0,,,,,,stop_signal_with_go_no_go,,,,,,,,0.0-0.0-50.0,-1.0,none,,-1,,500.0,,<div class = centerbox><div class = fixation>+</div></div>,,,,853149,0.0,prompt_fixation,50,poldrack-single-stim,
51,200.0,400.0,200.0,500.0,<div class = bigbox><div class = centerbox><div class = starbox><img class = center src='/static/experiments/stop_signal_with_go_no_go/images/stopSignal.png'></img></div></div></div>,go,,2000.0,,77.0,1.0,0.0,17.0,stop_signal_with_go_no_go,,,,,,1.0,go,0.0-0.0-51.0,77.0,"[90, 77]",,702,circle,1000.0,solid,<div class = bigbox><div class = centerbox><div class = gng_number><div class = cue-text><img class = center src='/static/experiments/stop_signal_with_go_no_go/images/solid_circle.png'></img></div></div></div></div>,,go,,855151,0.0,practice_trial,51,stop-signal,
52,,,,,,,,500.0,,,,,,stop_signal_with_go_no_go,,,,,,,,0.0-0.0-52.0,-1.0,none,,-1,,500.0,,"<div class = fb_box><div class = center-text><font size = 20>Correct!</font></div></div><div class = prompt_box><p class = center-block-text style = ""font-size:16px; line-height:80%%;"">square: Z key</p><p class = center-block-text style = ""font-size:16px; line-height:80%%;"">circle: M key</p><p class = center-block-text style = ""font-size:16px; line-height:80%%;"">Do not respond if a star appears!</p><p class = center-block-text style = ""font-size:16px; line-height:80%%;"">Do not respond if the shape is outlined!</p></div>",,,,855654,0.0,practice-stop-feedback,52,poldrack-single-stim,
53,,,,,,,,500.0,,,,,,stop_signal_with_go_no_go,,,,,,,,0.0-0.0-53.0,-1.0,none,,-1,,500.0,,<div class = centerbox><div class = fixation>+</div></div>,,,,856158,0.0,prompt_fixation,53,poldrack-single-stim,
54,200.0,400.0,200.0,500.0,<div class = bigbox><div class = centerbox><div class = starbox><img class = center src='/static/experiments/stop_signal_with_go_no_go/images/stopSignal.png'></img></div></div></div>,stop,,2000.0,,-1.0,1.0,0.0,18.0,stop_signal_with_go_no_go,,,,,,,go,0.0-0.0-54.0,-1.0,"[90, 77]",,-1,circle,1000.0,solid,<div class = bigbox><div class = centerbox><div class = gng_number><div class = cue-text><img class = center src='/static/experiments/stop_signal_with_go_no_go/images/solid_circle.png'></img></div></div></div></div>,1.0,stop,,858161,0.0,practice_trial,54,stop-signal,
55,,,,,,,,500.0,,,,,,stop_signal_with_go_no_go,,,,,,,,0.0-0.0-55.0,-1.0,none,,-1,,500.0,,"<div class = fb_box><div class = center-text><font size = 20>Correct!</font></div></div><div class = prompt_box><p class = center-block-text style = ""font-size:16px; line-height:80%%;"">square: Z key</p><p class = center-block-text style = ""font-size:16px; line-height:80%%;"">circle: M key</p><p class = center-block-text style = ""font-size:16px; line-height:80%%;"">Do not respond if a star appears!</p><p class = center-block-text style = ""font-size:16px; line-height:80%%;"">Do not respond if the shape is outlined!</p></div>",,,,858663,0.0,practice-stop-feedback,55,poldrack-single-stim,
56,,,,,,,,500.0,,,,,,stop_signal_with_go_no_go,,,,,,,,0.0-0.0-56.0,-1.0,none,,-1,,500.0,,<div class = centerbox><div class = fixation>+</div></div>,,,,859165,0.0,prompt_fixation,56,poldrack-single-stim,
57,250.0,400.0,250.0,500.0,<div class = bigbox><div class = centerbox><div class = starbox><img class = center src='/static/experiments/stop_signal_with_go_no_go/images/stopSignal.png'></img></div></div></div>,go,,2000.0,,90.0,1.0,0.0,19.0,stop_signal_with_go_no_go,,,,,,1.0,go,0.0-0.0-57.0,90.0,"[90, 77]",,896,square,1000.0,solid,<div class = bigbox><div class = centerbox><div class = gng_number><div class = cue-text><img class = center src='/static/experiments/stop_signal_with_go_no_go/images/solid_square.png'></img></div></div></div></div>,,go,,861169,0.0,practice_trial,57,stop-signal,
58,,,,,,,,500.0,,,,,,stop_signal_with_go_no_go,,,,,,,,0.0-0.0-58.0,-1.0,none,,-1,,500.0,,"<div class = fb_box><div class = center-text><font size = 20>Correct!</font></div></div><div class = prompt_box><p class = center-block-text style = ""font-size:16px; line-height:80%%;"">square: Z key</p><p class = center-block-text style = ""font-size:16px; line-height:80%%;"">circle: M key</p><p class = center-block-text style = ""font-size:16px; line-height:80%%;"">Do not respond if a star appears!</p><p class = center-block-text style = ""font-size:16px; line-height:80%%;"">Do not respond if the shape is outlined!</p></div>",,,,861673,0.0,practice-stop-feedback,58,poldrack-single-stim,
59,,,,,,,,500.0,,,,,,stop_signal_with_go_no_go,,,,,,,,0.0-0.0-59.0,-1.0,none,,-1,,500.0,,<div class = centerbox><div class = fixation>+</div></div>,,,,862176,0.0,prompt_fixation,59,poldrack-single-stim,
60,250.0,400.0,250.0,500.0,<div class = bigbox><div class = centerbox><div class = starbox><img class = center src='/static/experiments/stop_signal_with_go_no_go/images/stopSignal.png'></img></div></div></div>,go,,2000.0,,90.0,1.0,0.0,20.0,stop_signal_with_go_no_go,,,,,,1.0,go,0.0-0.0-60.0,90.0,"[90, 77]",,638,square,1000.0,solid,<div class = bigbox><div class = centerbox><div class = gng_number><div class = cue-text><img class = center src='/static/experiments/stop_signal_with_go_no_go/images/solid_square.png'></img></div></div></div></div>,,go,,864180,0.0,practice_trial,60,stop-signal,
61,,,,,,,,500.0,,,,,,stop_signal_with_go_no_go,,,,,,,,0.0-0.0-61.0,-1.0,none,,-1,,500.0,,"<div class = fb_box><div class = center-text><font size = 20>Correct!</font></div></div><div class = prompt_box><p class = center-block-text style = ""font-size:16px; line-height:80%%;"">square: Z key</p><p class = center-block-text style = ""font-size:16px; line-height:80%%;"">circle: M key</p><p class = center-block-text style = ""font-size:16px; line-height:80%%;"">Do not respond if a star appears!</p><p class = center-block-text style = ""font-size:16px; line-height:80%%;"">Do not respond if the shape is outlined!</p></div>",,,,864683,0.0,practice-stop-feedback,61,poldrack-single-stim,
62,,,,,,,,500.0,,,,,,stop_signal_with_go_no_go,,,,,,,,0.0-0.0-62.0,-1.0,none,,-1,,500.0,,<div class = centerbox><div class = fixation>+</div></div>,,,,865184,0.0,prompt_fixation,62,poldrack-single-stim,
63,250.0,400.0,250.0,500.0,<div class = bigbox><div class = centerbox><div class = starbox><img class = center src='/static/experiments/stop_signal_with_go_no_go/images/stopSignal.png'></img></div></div></div>,go,,2000.0,,90.0,1.0,0.0,21.0,stop_signal_with_go_no_go,,,,,,1.0,go,0.0-0.0-63.0,90.0,"[90, 77]",,735,square,1000.0,solid,<div class = bigbox><div class = centerbox><div class = gng_number><div class = cue-text><img class = center src='/static/experiments/stop_signal_with_go_no_go/images/solid_square.png'></img></div></div></div></div>,,go,,867186,0.0,practice_trial,63,stop-signal,
64,,,,,,,,500.0,,,,,,stop_signal_with_go_no_go,,,,,,,,0.0-0.0-64.0,-1.0,none,,-1,,500.0,,"<div class = fb_box><div class = center-text><font size = 20>Correct!</font></div></div><div class = prompt_box><p class = center-block-text style = ""font-size:16px; line-height:80%%;"">square: Z key</p><p class = center-block-text style = ""font-size:16px; line-height:80%%;"">circle: M key</p><p class = center-block-text style = ""font-size:16px; line-height:80%%;"">Do not respond if a star appears!</p><p class = center-block-text style = ""font-size:16px; line-height:80%%;"">Do not respond if the shape is outlined!</p></div>",,,,867689,0.0,practice-stop-feedback,64,poldrack-single-stim,
65,,,,,,,,500.0,,,,,,stop_signal_with_go_no_go,,,,,,,,0.0-0.0-65.0,-1.0,none,,-1,,500.0,,<div class = centerbox><div class = fixation>+</div></div>,,,,868191,0.0,prompt_fixation,65,poldrack-single-stim,
66,250.0,400.0,250.0,500.0,<div class = bigbox><div class = centerbox><div class = starbox><img class = center src='/static/experiments/stop_signal_with_go_no_go/images/stopSignal.png'></img></div></div></div>,stop,,2000.0,,-1.0,1.0,0.0,22.0,stop_signal_with_go_no_go,,,,,,,go,0.0-0.0-66.0,-1.0,"[90, 77]",,-1,circle,1000.0,solid,<div class = bigbox><div class = centerbox><div class = gng_number><div class = cue-text><img class = center src='/static/experiments/stop_signal_with_go_no_go/images/solid_circle.png'></img></div></div></div></div>,1.0,stop,,870195,0.0,practice_trial,66,stop-signal,
67,,,,,,,,500.0,,,,,,stop_signal_with_go_no_go,,,,,,,,0.0-0.0-67.0,-1.0,none,,-1,,500.0,,"<div class = fb_box><div class = center-text><font size = 20>Correct!</font></div></div><div class = prompt_box><p class = center-block-text style = ""font-size:16px; line-height:80%%;"">square: Z key</p><p class = center-block-text style = ""font-size:16px; line-height:80%%;"">circle: M key</p><p class = center-block-text style = ""font-size:16px; line-height:80%%;"">Do not respond if a star appears!</p><p class = center-block-text style = ""font-size:16px; line-height:80%%;"">Do not respond if the shape is outlined!</p></div>",,,,870698,0.0,practice-stop-feedback,67,poldrack-single-stim,
68,,,,,,,,500.0,,,,,,stop_signal_with_go_no_go,,,,,,,,0.0-0.0-68.0,-1.0,none,,-1,,500.0,,<div class = centerbox><div class = fixation>+</div></div>,,,,871202,0.0,prompt_fixation,68,poldrack-single-stim,
69,300.0,400.0,400.0,500.0,<div class = bigbox><div class = centerbox><div class = starbox><img class = center src='/static/experiments/stop_signal_with_go_no_go/images/stopSignal.png'></img></div></div></div>,stop,,2000.0,,-1.0,1.0,0.0,23.0,stop_signal_with_go_no_go,,,,,,,nogo,0.0-0.0-69.0,-1.0,"[90, 77]",,-1,circle,1000.0,outlined,<div class = bigbox><div class = centerbox><div class = gng_number><div class = cue-text><img class = center src='/static/experiments/stop_signal_with_go_no_go/images/outlined_circle.png'></img></div></div></div></div>,1.0,stop,,873204,0.0,practice_trial,69,stop-signal,
70,,,,,,,,500.0,,,,,,stop_signal_with_go_no_go,,,,,,,,0.0-0.0-70.0,-1.0,none,,-1,,500.0,,"<div class = fb_box><div class = center-text><font size = 20>Correct!</font></div></div><div class = prompt_box><p class = center-block-text style = ""font-size:16px; line-height:80%%;"">square: Z key</p><p class = center-block-text style = ""font-size:16px; line-height:80%%;"">circle: M key</p><p class = center-block-text style = ""font-size:16px; line-height:80%%;"">Do not respond if a star appears!</p><p class = center-block-text style = ""font-size:16px; line-height:80%%;"">Do not respond if the shape is outlined!</p></div>",,,,873706,0.0,practice-stop-feedback,70,poldrack-single-stim,
71,,,,,,,,500.0,,,,,,stop_signal_with_go_no_go,,,,,,,,0.0-0.0-71.0,-1.0,none,,-1,,500.0,,<div class = centerbox><div class = fixation>+</div></div>,,,,874209,0.0,prompt_fixation,71,poldrack-single-stim,
72,300.0,450.0,300.0,500.0,<div class = bigbox><div class = centerbox><div class = starbox><img class = center src='/static/experiments/stop_signal_with_go_no_go/images/stopSignal.png'></img></div></div></div>,stop,,2000.0,,-1.0,1.0,0.0,24.0,stop_signal_with_go_no_go,,,,,,,go,0.0-0.0-72.0,-1.0,"[90, 77]",,-1,square,1000.0,solid,<div class = bigbox><div class = centerbox><div class = gng_number><div class = cue-text><img class = center src='/static/experiments/stop_signal_with_go_no_go/images/solid_square.png'></img></div></div></div></div>,1.0,stop,,876211,0.0,practice_trial,72,stop-signal,
73,,,,,,,,500.0,,,,,,stop_signal_with_go_no_go,,,,,,,,0.0-0.0-73.0,-1.0,none,,-1,,500.0,,"<div class = fb_box><div class = center-text><font size = 20>Correct!</font></div></div><div class = prompt_box><p class = center-block-text style = ""font-size:16px; line-height:80%%;"">square: Z key</p><p class = center-block-text style = ""font-size:16px; line-height:80%%;"">circle: M key</p><p class = center-block-text style = ""font-size:16px; line-height:80%%;"">Do not respond if a star appears!</p><p class = center-block-text style = ""font-size:16px; line-height:80%%;"">Do not respond if the shape is outlined!</p></div>",,,,876714,0.0,practice-stop-feedback,73,poldrack-single-stim,
74,,,,,,,,500.0,,,,,,stop_signal_with_go_no_go,,,,,,,,0.0-0.0-74.0,-1.0,none,,-1,,500.0,,<div class = centerbox><div class = fixation>+</div></div>,,,,877215,0.0,prompt_fixation,74,poldrack-single-stim,
75,350.0,450.0,350.0,500.0,<div class = bigbox><div class = centerbox><div class = starbox><img class = center src='/static/experiments/stop_signal_with_go_no_go/images/stopSignal.png'></img></div></div></div>,go,,2000.0,,77.0,0.0,0.0,25.0,stop_signal_with_go_no_go,,,,,,0.0,go,0.0-0.0-75.0,90.0,"[90, 77]",,662,circle,1000.0,solid,<div class = bigbox><div class = centerbox><div class = gng_number><div class = cue-text><img class = center src='/static/experiments/stop_signal_with_go_no_go/images/solid_circle.png'></img></div></div></div></div>,,go,,879217,0.0,practice_trial,75,stop-signal,
76,,,,,,,,500.0,,,,,,stop_signal_with_go_no_go,,,,,,,,0.0-0.0-76.0,-1.0,none,,-1,,500.0,,"<div class = fb_box><div class = center-text><font size = 20>Incorrect</font></div></div><div class = prompt_box><p class = center-block-text style = ""font-size:16px; line-height:80%%;"">square: Z key</p><p class = center-block-text style = ""font-size:16px; line-height:80%%;"">circle: M key</p><p class = center-block-text style = ""font-size:16px; line-height:80%%;"">Do not respond if a star appears!</p><p class = center-block-text style = ""font-size:16px; line-height:80%%;"">Do not respond if the shape is outlined!</p></div>",,,,879720,0.0,practice-stop-feedback,76,poldrack-single-stim,
77,,,,,,,,500.0,,,,,,stop_signal_with_go_no_go,,,,,,,,0.0-0.0-77.0,-1.0,none,,-1,,500.0,,<div class = centerbox><div class = fixation>+</div></div>,,,,880223,0.0,prompt_fixation,77,poldrack-single-stim,
78,350.0,450.0,350.0,500.0,<div class = bigbox><div class = centerbox><div class = starbox><img class = center src='/static/experiments/stop_signal_with_go_no_go/images/stopSignal.png'></img></div></div></div>,go,,2000.0,,90.0,1.0,0.0,26.0,stop_signal_with_go_no_go,,,,,,1.0,go,0.0-0.0-78.0,90.0,"[90, 77]",,732,square,1000.0,solid,<div class = bigbox><div class = centerbox><div class = gng_number><div class = cue-text><img class = center src='/static/experiments/stop_signal_with_go_no_go/images/solid_square.png'></img></div></div></div></div>,,go,,882226,0.0,practice_trial,78,stop-signal,
79,,,,,,,,500.0,,,,,,stop_signal_with_go_no_go,,,,,,,,0.0-0.0-79.0,-1.0,none,,-1,,500.0,,"<div class = fb_box><div class = center-text><font size = 20>Correct!</font></div></div><div class = prompt_box><p class = center-block-text style = ""font-size:16px; line-height:80%%;"">square: Z key</p><p class = center-block-text style = ""font-size:16px; line-height:80%%;"">circle: M key</p><p class = center-block-text style = ""font-size:16px; line-height:80%%;"">Do not respond if a star appears!</p><p class = center-block-text style = ""font-size:16px; line-height:80%%;"">Do not respond if the shape is outlined!</p></div>",,,,882728,0.0,practice-stop-feedback,79,poldrack-single-stim,
80,,,,,,,,500.0,,,,,,stop_signal_with_go_no_go,,,,,,,,0.0-0.0-80.0,-1.0,none,,-1,,500.0,,<div class = centerbox><div class = fixation>+</div></div>,,,,883230,0.0,prompt_fixation,80,poldrack-single-stim,
81,350.0,450.0,350.0,500.0,<div class = bigbox><div class = centerbox><div class = starbox><img class = center src='/static/experiments/stop_signal_with_go_no_go/images/stopSignal.png'></img></div></div></div>,go,,2000.0,,77.0,1.0,0.0,27.0,stop_signal_with_go_no_go,,,,,,1.0,go,0.0-0.0-81.0,77.0,"[90, 77]",,742,circle,1000.0,solid,<div class = bigbox><div class = centerbox><div class = gng_number><div class = cue-text><img class = center src='/static/experiments/stop_signal_with_go_no_go/images/solid_circle.png'></img></div></div></div></div>,,go,,885232,0.0,practice_trial,81,stop-signal,
82,,,,,,,,500.0,,,,,,stop_signal_with_go_no_go,,,,,,,,0.0-0.0-82.0,-1.0,none,,-1,,500.0,,"<div class = fb_box><div class = center-text><font size = 20>Correct!</font></div></div><div class = prompt_box><p class = center-block-text style = ""font-size:16px; line-height:80%%;"">square: Z key</p><p class = center-block-text style = ""font-size:16px; line-height:80%%;"">circle: M key</p><p class = center-block-text style = ""font-size:16px; line-height:80%%;"">Do not respond if a star appears!</p><p class = center-block-text style = ""font-size:16px; line-height:80%%;"">Do not respond if the shape is outlined!</p></div>",,,,885733,0.0,practice-stop-feedback,82,poldrack-single-stim,
83,,,,,,,,500.0,,,,,,stop_signal_with_go_no_go,,,,,,,,0.0-0.0-83.0,-1.0,none,,-1,,500.0,,<div class = centerbox><div class = fixation>+</div></div>,,,,886235,0.0,prompt_fixation,83,poldrack-single-stim,
84,350.0,450.0,350.0,500.0,<div class = bigbox><div class = centerbox><div class = starbox><img class = center src='/static/experiments/stop_signal_with_go_no_go/images/stopSignal.png'></img></div></div></div>,go,,2000.0,,77.0,1.0,0.0,28.0,stop_signal_with_go_no_go,,,,,,1.0,go,0.0-0.0-84.0,77.0,"[90, 77]",,677,circle,1000.0,solid,<div class = bigbox><div class = centerbox><div class = gng_number><div class = cue-text><img class = center src='/static/experiments/stop_signal_with_go_no_go/images/solid_circle.png'></img></div></div></div></div>,,go,,888237,0.0,practice_trial,84,stop-signal,
85,,,,,,,,500.0,,,,,,stop_signal_with_go_no_go,,,,,,,,0.0-0.0-85.0,-1.0,none,,-1,,500.0,,"<div class = fb_box><div class = center-text><font size = 20>Correct!</font></div></div><div class = prompt_box><p class = center-block-text style = ""font-size:16px; line-height:80%%;"">square: Z key</p><p class = center-block-text style = ""font-size:16px; line-height:80%%;"">circle: M key</p><p class = center-block-text style = ""font-size:16px; line-height:80%%;"">Do not respond if a star appears!</p><p class = center-block-text style = ""font-size:16px; line-height:80%%;"">Do not respond if the shape is outlined!</p></div>",,,,888739,0.0,practice-stop-feedback,85,poldrack-single-stim,
86,,,,,,,,500.0,,,,,,stop_signal_with_go_no_go,,,,,,,,0.0-0.0-86.0,-1.0,none,,-1,,500.0,,<div class = centerbox><div class = fixation>+</div></div>,,,,889241,0.0,prompt_fixation,86,poldrack-single-stim,
87,350.0,450.0,350.0,500.0,<div class = bigbox><div class = centerbox><div class = starbox><img class = center src='/static/experiments/stop_signal_with_go_no_go/images/stopSignal.png'></img></div></div></div>,go,,2000.0,,77.0,1.0,0.0,29.0,stop_signal_with_go_no_go,,,,,,1.0,go,0.0-0.0-87.0,77.0,"[90, 77]",,626,circle,1000.0,solid,<div class = bigbox><div class = centerbox><div class = gng_number><div class = cue-text><img class = center src='/static/experiments/stop_signal_with_go_no_go/images/solid_circle.png'></img></div></div></div></div>,,go,,891244,0.0,practice_trial,87,stop-signal,
88,,,,,,,,500.0,,,,,,stop_signal_with_go_no_go,,,,,,,,0.0-0.0-88.0,-1.0,none,,-1,,500.0,,"<div class = fb_box><div class = center-text><font size = 20>Correct!</font></div></div><div class = prompt_box><p class = center-block-text style = ""font-size:16px; line-height:80%%;"">square: Z key</p><p class = center-block-text style = ""font-size:16px; line-height:80%%;"">circle: M key</p><p class = center-block-text style = ""font-size:16px; line-height:80%%;"">Do not respond if a star appears!</p><p class = center-block-text style = ""font-size:16px; line-height:80%%;"">Do not respond if the shape is outlined!</p></div>",,,,891745,0.0,practice-stop-feedback,88,poldrack-single-stim,
89,,,,,,,,500.0,,,,,,stop_signal_with_go_no_go,,,,,,,,0.0-0.0-89.0,-1.0,none,,-1,,500.0,,<div class = centerbox><div class = fixation>+</div></div>,,,,892247,0.0,prompt_fixation,89,poldrack-single-stim,
90,350.0,450.0,350.0,500.0,<div class = bigbox><div class = centerbox><div class = starbox><img class = center src='/static/experiments/stop_signal_with_go_no_go/images/stopSignal.png'></img></div></div></div>,go,,2000.0,,77.0,1.0,0.0,30.0,stop_signal_with_go_no_go,,,,,,1.0,go,0.0-0.0-90.0,77.0,"[90, 77]",,681,circle,1000.0,solid,<div class = bigbox><div class = centerbox><div class = gng_number><div class = cue-text><img class = center src='/static/experiments/stop_signal_with_go_no_go/images/solid_circle.png'></img></div></div></div></div>,,go,,894250,0.0,practice_trial,90,stop-signal,
91,,,,,,,,500.0,,,,,,stop_signal_with_go_no_go,,,,,,,,0.0-0.0-91.0,-1.0,none,,-1,,500.0,,"<div class = fb_box><div class = center-text><font size = 20>Correct!</font></div></div><div class = prompt_box><p class = center-block-text style = ""font-size:16px; line-height:80%%;"">square: Z key</p><p class = center-block-text style = ""font-size:16px; line-height:80%%;"">circle: M key</p><p class = center-block-text style = ""font-size:16px; line-height:80%%;"">Do not respond if a star appears!</p><p class = center-block-text style = ""font-size:16px; line-height:80%%;"">Do not respond if the shape is outlined!</p></div>",,,,894754,0.0,practice-stop-feedback,91,poldrack-single-stim,
92,,,,,,,,500.0,,,,,,stop_signal_with_go_no_go,,,,,,,,0.0-0.0-92.0,-1.0,none,,-1,,500.0,,<div class = centerbox><div class = fixation>+</div></div>,,,,895257,0.0,prompt_fixation,92,poldrack-single-stim,
93,350.0,450.0,350.0,500.0,<div class = bigbox><div class = centerbox><div class = starbox><img class = center src='/static/experiments/stop_signal_with_go_no_go/images/stopSignal.png'></img></div></div></div>,go,,2000.0,,77.0,1.0,0.0,31.0,stop_signal_with_go_no_go,,,,,,1.0,go,0.0-0.0-93.0,77.0,"[90, 77]",,643,circle,1000.0,solid,<div class = bigbox><div class = centerbox><div class = gng_number><div class = cue-text><img class = center src='/static/experiments/stop_signal_with_go_no_go/images/solid_circle.png'></img></div></div></div></div>,,go,,897260,0.0,practice_trial,93,stop-signal,
94,,,,,,,,500.0,,,,,,stop_signal_with_go_no_go,,,,,,,,0.0-0.0-94.0,-1.0,none,,-1,,500.0,,"<div class = fb_box><div class = center-text><font size = 20>Correct!</font></div></div><div class = prompt_box><p class = center-block-text style = ""font-size:16px; line-height:80%%;"">square: Z key</p><p class = center-block-text style = ""font-size:16px; line-height:80%%;"">circle: M key</p><p class = center-block-text style = ""font-size:16px; line-height:80%%;"">Do not respond if a star appears!</p><p class = center-block-text style = ""font-size:16px; line-height:80%%;"">Do not respond if the shape is outlined!</p></div>",,,,897761,0.0,practice-stop-feedback,94,poldrack-single-stim,
95,,,,,,,,500.0,,,,,,stop_signal_with_go_no_go,,,,,,,,0.0-0.0-95.0,-1.0,none,,-1,,500.0,,<div class = centerbox><div class = fixation>+</div></div>,,,,898263,0.0,prompt_fixation,95,poldrack-single-stim,
96,350.0,450.0,350.0,500.0,<div class = bigbox><div class = centerbox><div class = starbox><img class = center src='/static/experiments/stop_signal_with_go_no_go/images/stopSignal.png'></img></div></div></div>,go,,2000.0,,90.0,1.0,0.0,32.0,stop_signal_with_go_no_go,,,,,,1.0,go,0.0-0.0-96.0,90.0,"[90, 77]",,819,square,1000.0,solid,<div class = bigbox><div class = centerbox><div class = gng_number><div class = cue-text><img class = center src='/static/experiments/stop_signal_with_go_no_go/images/solid_square.png'></img></div></div></div></div>,,go,,900264,0.0,practice_trial,96,stop-signal,
97,,,,,,,,500.0,,,,,,stop_signal_with_go_no_go,,,,,,,,0.0-0.0-97.0,-1.0,none,,-1,,500.0,,"<div class = fb_box><div class = center-text><font size = 20>Correct!</font></div></div><div class = prompt_box><p class = center-block-text style = ""font-size:16px; line-height:80%%;"">square: Z key</p><p class = center-block-text style = ""font-size:16px; line-height:80%%;"">circle: M key</p><p class = center-block-text style = ""font-size:16px; line-height:80%%;"">Do not respond if a star appears!</p><p class = center-block-text style = ""font-size:16px; line-height:80%%;"">Do not respond if the shape is outlined!</p></div>",,,,900766,0.0,practice-stop-feedback,97,poldrack-single-stim,
98,,,,,,,,500.0,,,,,,stop_signal_with_go_no_go,,,,,,,,0.0-0.0-98.0,-1.0,none,,-1,,500.0,,<div class = centerbox><div class = fixation>+</div></div>,,,,901268,0.0,prompt_fixation,98,poldrack-single-stim,
99,350.0,450.0,350.0,500.0,<div class = bigbox><div class = centerbox><div class = starbox><img class = center src='/static/experiments/stop_signal_with_go_no_go/images/stopSignal.png'></img></div></div></div>,go,,2000.0,,90.0,1.0,0.0,33.0,stop_signal_with_go_no_go,,,,,,1.0,go,0.0-0.0-99.0,90.0,"[90, 77]",,720,square,1000.0,solid,<div class = bigbox><div class = centerbox><div class = gng_number><div class = cue-text><img class = center src='/static/experiments/stop_signal_with_go_no_go/images/solid_square.png'></img></div></div></div></div>,,go,,903270,0.0,practice_trial,99,stop-signal,
100,,,,,,,,500.0,,,,,,stop_signal_with_go_no_go,,,,,,,,0.0-0.0-100.0,-1.0,none,,-1,,500.0,,"<div class = fb_box><div class = center-text><font size = 20>Correct!</font></div></div><div class = prompt_box><p class = center-block-text style = ""font-size:16px; line-height:80%%;"">square: Z key</p><p class = center-block-text style = ""font-size:16px; line-height:80%%;"">circle: M key</p><p class = center-block-text style = ""font-size:16px; line-height:80%%;"">Do not respond if a star appears!</p><p class = center-block-text style = ""font-size:16px; line-height:80%%;"">Do not respond if the shape is outlined!</p></div>",,,,903773,0.0,practice-stop-feedback,100,poldrack-single-stim,
101,,,,,,,,500.0,,,,,,stop_signal_with_go_no_go,,,,,,,,0.0-0.0-101.0,-1.0,none,,-1,,500.0,,<div class = centerbox><div class = fixation>+</div></div>,,,,904276,0.0,prompt_fixation,101,poldrack-single-stim,
102,350.0,450.0,350.0,500.0,<div class = bigbox><div class = centerbox><div class = starbox><img class = center src='/static/experiments/stop_signal_with_go_no_go/images/stopSignal.png'></img></div></div></div>,go,,2000.0,,77.0,1.0,0.0,34.0,stop_signal_with_go_no_go,,,,,,1.0,go,0.0-0.0-102.0,77.0,"[90, 77]",,762,circle,1000.0,solid,<div class = bigbox><div class = centerbox><div class = gng_number><div class = cue-text><img class = center src='/static/experiments/stop_signal_with_go_no_go/images/solid_circle.png'></img></div></div></div></div>,,go,,906277,0.0,practice_trial,102,stop-signal,
103,,,,,,,,500.0,,,,,,stop_signal_with_go_no_go,,,,,,,,0.0-0.0-103.0,-1.0,none,,-1,,500.0,,"<div class = fb_box><div class = center-text><font size = 20>Correct!</font></div></div><div class = prompt_box><p class = center-block-text style = ""font-size:16px; line-height:80%%;"">square: Z key</p><p class = center-block-text style = ""font-size:16px; line-height:80%%;"">circle: M key</p><p class = center-block-text style = ""font-size:16px; line-height:80%%;"">Do not respond if a star appears!</p><p class = center-block-text style = ""font-size:16px; line-height:80%%;"">Do not respond if the shape is outlined!</p></div>",,,,906779,0.0,practice-stop-feedback,103,poldrack-single-stim,
104,,,,,,,,500.0,,,,,,stop_signal_with_go_no_go,,,,,,,,0.0-0.0-104.0,-1.0,none,,-1,,500.0,,<div class = centerbox><div class = fixation>+</div></div>,,,,907282,0.0,prompt_fixation,104,poldrack-single-stim,
105,350.0,450.0,350.0,500.0,<div class = bigbox><div class = centerbox><div class = starbox><img class = center src='/static/experiments/stop_signal_with_go_no_go/images/stopSignal.png'></img></div></div></div>,go,,2000.0,,90.0,1.0,0.0,35.0,stop_signal_with_go_no_go,,,,,,1.0,go,0.0-0.0-105.0,90.0,"[90, 77]",,689,square,1000.0,solid,<div class = bigbox><div class = centerbox><div class = gng_number><div class = cue-text><img class = center src='/static/experiments/stop_signal_with_go_no_go/images/solid_square.png'></img></div></div></div></div>,,go,,909286,0.0,practice_trial,105,stop-signal,
106,,,,,,,,500.0,,,,,,stop_signal_with_go_no_go,,,,,,,,0.0-0.0-106.0,-1.0,none,,-1,,500.0,,"<div class = fb_box><div class = center-text><font size = 20>Correct!</font></div></div><div class = prompt_box><p class = center-block-text style = ""font-size:16px; line-height:80%%;"">square: Z key</p><p class = center-block-text style = ""font-size:16px; line-height:80%%;"">circle: M key</p><p class = center-block-text style = ""font-size:16px; line-height:80%%;"">Do not respond if a star appears!</p><p class = center-block-text style = ""font-size:16px; line-height:80%%;"">Do not respond if the shape is outlined!</p></div>",,,,909790,0.0,practice-stop-feedback,106,poldrack-single-stim,
107,,,,,,,,500.0,,,,,,stop_signal_with_go_no_go,,,,,,,,0.0-0.0-107.0,-1.0,none,,-1,,500.0,,<div class = centerbox><div class = fixation>+</div></div>,,,,910292,0.0,prompt_fixation,107,poldrack-single-stim,
108,350.0,450.0,350.0,500.0,<div class = bigbox><div class = centerbox><div class = starbox><img class = center src='/static/experiments/stop_signal_with_go_no_go/images/stopSignal.png'></img></div></div></div>,stop,,2000.0,,-1.0,1.0,0.0,36.0,stop_signal_with_go_no_go,,,,,,,go,0.0-0.0-108.0,-1.0,"[90, 77]",,-1,circle,1000.0,solid,<div class = bigbox><div class = centerbox><div class = gng_number><div class = cue-text><img class = center src='/static/experiments/stop_signal_with_go_no_go/images/solid_circle.png'></img></div></div></div></div>,1.0,stop,,912295,0.0,practice_trial,108,stop-signal,
109,,,,,,,,500.0,,,,,,stop_signal_with_go_no_go,,,,,,,,0.0-0.0-109.0,-1.0,none,,-1,,500.0,,"<div class = fb_box><div class = center-text><font size = 20>Correct!</font></div></div><div class = prompt_box><p class = center-block-text style = ""font-size:16px; line-height:80%%;"">square: Z key</p><p class = center-block-text style = ""font-size:16px; line-height:80%%;"">circle: M key</p><p class = center-block-text style = ""font-size:16px; line-height:80%%;"">Do not respond if a star appears!</p><p class = center-block-text style = ""font-size:16px; line-height:80%%;"">Do not respond if the shape is outlined!</p></div>",,,,912797,0.0,practice-stop-feedback,109,poldrack-single-stim,
110,,,,,,,,500.0,,,,,,stop_signal_with_go_no_go,,,,,,,,0.0-0.0-110.0,-1.0,none,,-1,,500.0,,<div class = centerbox><div class = fixation>+</div></div>,,,,913299,0.0,prompt_fixation,110,poldrack-single-stim,
111,400.0,450.0,450.0,500.0,<div class = bigbox><div class = centerbox><div class = starbox><img class = center src='/static/experiments/stop_signal_with_go_no_go/images/stopSignal.png'></img></div></div></div>,go,,2000.0,,-1.0,1.0,0.0,37.0,stop_signal_with_go_no_go,,,,,,1.0,nogo,0.0-0.0-111.0,-1.0,"[90, 77]",,-1,square,1000.0,outlined,<div class = bigbox><div class = centerbox><div class = gng_number><div class = cue-text><img class = center src='/static/experiments/stop_signal_with_go_no_go/images/outlined_square.png'></img></div></div></div></div>,,go,,915301,0.0,practice_trial,111,stop-signal,
112,,,,,,,,500.0,,,,,,stop_signal_with_go_no_go,,,,,,,,0.0-0.0-112.0,-1.0,none,,-1,,500.0,,"<div class = fb_box><div class = center-text><font size = 20>Correct!</font></div></div><div class = prompt_box><p class = center-block-text style = ""font-size:16px; line-height:80%%;"">square: Z key</p><p class = center-block-text style = ""font-size:16px; line-height:80%%;"">circle: M key</p><p class = center-block-text style = ""font-size:16px; line-height:80%%;"">Do not respond if a star appears!</p><p class = center-block-text style = ""font-size:16px; line-height:80%%;"">Do not respond if the shape is outlined!</p></div>",,,,915805,0.0,practice-stop-feedback,112,poldrack-single-stim,
113,,,,,,,,500.0,,,,,,stop_signal_with_go_no_go,,,,,,,,0.0-0.0-113.0,-1.0,none,,-1,,500.0,,<div class = centerbox><div class = fixation>+</div></div>,,,,916308,0.0,prompt_fixation,113,poldrack-single-stim,
114,400.0,450.0,400.0,500.0,<div class = bigbox><div class = centerbox><div class = starbox><img class = center src='/static/experiments/stop_signal_with_go_no_go/images/stopSignal.png'></img></div></div></div>,stop,,2000.0,,-1.0,1.0,0.0,38.0,stop_signal_with_go_no_go,,,,,,,go,0.0-0.0-114.0,-1.0,"[90, 77]",,-1,square,1000.0,solid,<div class = bigbox><div class = centerbox><div class = gng_number><div class = cue-text><img class = center src='/static/experiments/stop_signal_with_go_no_go/images/solid_square.png'></img></div></div></div></div>,1.0,stop,,918313,0.0,practice_trial,114,stop-signal,
115,,,,,,,,500.0,,,,,,stop_signal_with_go_no_go,,,,,,,,0.0-0.0-115.0,-1.0,none,,-1,,500.0,,"<div class = fb_box><div class = center-text><font size = 20>Correct!</font></div></div><div class = prompt_box><p class = center-block-text style = ""font-size:16px; line-height:80%%;"">square: Z key</p><p class = center-block-text style = ""font-size:16px; line-height:80%%;"">circle: M key</p><p class = center-block-text style = ""font-size:16px; line-height:80%%;"">Do not respond if a star appears!</p><p class = center-block-text style = ""font-size:16px; line-height:80%%;"">Do not respond if the shape is outlined!</p></div>",,,,918815,0.0,practice-stop-feedback,115,poldrack-single-stim,
116,,,,,,,,500.0,,,,,,stop_signal_with_go_no_go,,,,,,,,0.0-0.0-116.0,-1.0,none,,-1,,500.0,,<div class = centerbox><div class = fixation>+</div></div>,,,,919319,0.0,prompt_fixation,116,poldrack-single-stim,
117,450.0,450.0,450.0,500.0,<div class = bigbox><div class = centerbox><div class = starbox><img class = center src='/static/experiments/stop_signal_with_go_no_go/images/stopSignal.png'></img></div></div></div>,go,,2000.0,,77.0,1.0,0.0,39.0,stop_signal_with_go_no_go,,,,,,1.0,go,0.0-0.0-117.0,77.0,"[90, 77]",,697,circle,1000.0,solid,<div class = bigbox><div class = centerbox><div class = gng_number><div class = cue-text><img class = center src='/static/experiments/stop_signal_with_go_no_go/images/solid_circle.png'></img></div></div></div></div>,,go,,921321,0.0,practice_trial,117,stop-signal,
118,,,,,,,,500.0,,,,,,stop_signal_with_go_no_go,,,,,,,,0.0-0.0-118.0,-1.0,none,,-1,,500.0,,"<div class = fb_box><div class = center-text><font size = 20>Correct!</font></div></div><div class = prompt_box><p class = center-block-text style = ""font-size:16px; line-height:80%%;"">square: Z key</p><p class = center-block-text style = ""font-size:16px; line-height:80%%;"">circle: M key</p><p class = center-block-text style = ""font-size:16px; line-height:80%%;"">Do not respond if a star appears!</p><p class = center-block-text style = ""font-size:16px; line-height:80%%;"">Do not respond if the shape is outlined!</p></div>",,,,921823,0.0,practice-stop-feedback,118,poldrack-single-stim,
119,,,,,,,,500.0,,,,,,stop_signal_with_go_no_go,,,,,,,,0.0-0.0-119.0,-1.0,none,,-1,,500.0,,<div class = centerbox><div class = fixation>+</div></div>,,,,922325,0.0,prompt_fixation,119,poldrack-single-stim,
120,450.0,450.0,450.0,500.0,<div class = bigbox><div class = centerbox><div class = starbox><img class = center src='/static/experiments/stop_signal_with_go_no_go/images/stopSignal.png'></img></div></div></div>,go,,2000.0,,90.0,1.0,0.0,40.0,stop_signal_with_go_no_go,,,,,,1.0,go,0.0-0.0-120.0,90.0,"[90, 77]",,701,square,1000.0,solid,<div class = bigbox><div class = centerbox><div class = gng_number><div class = cue-text><img class = center src='/static/experiments/stop_signal_with_go_no_go/images/solid_square.png'></img></div></div></div></div>,,go,,924326,0.0,practice_trial,120,stop-signal,
121,,,,,,,,500.0,,,,,,stop_signal_with_go_no_go,,,,,,,,0.0-0.0-121.0,-1.0,none,,-1,,500.0,,"<div class = fb_box><div class = center-text><font size = 20>Correct!</font></div></div><div class = prompt_box><p class = center-block-text style = ""font-size:16px; line-height:80%%;"">square: Z key</p><p class = center-block-text style = ""font-size:16px; line-height:80%%;"">circle: M key</p><p class = center-block-text style = ""font-size:16px; line-height:80%%;"">Do not respond if a star appears!</p><p class = center-block-text style = ""font-size:16px; line-height:80%%;"">Do not respond if the shape is outlined!</p></div>",,,,924828,0.0,practice-stop-feedback,121,poldrack-single-stim,
122,,,,,,,,500.0,,,,,,stop_signal_with_go_no_go,,,,,,,,0.0-0.0-122.0,-1.0,none,,-1,,500.0,,<div class = centerbox><div class = fixation>+</div></div>,,,,925330,0.0,prompt_fixation,122,poldrack-single-stim,
123,450.0,450.0,450.0,500.0,<div class = bigbox><div class = centerbox><div class = starbox><img class = center src='/static/experiments/stop_signal_with_go_no_go/images/stopSignal.png'></img></div></div></div>,stop,,2000.0,,-1.0,1.0,0.0,41.0,stop_signal_with_go_no_go,,,,,,,go,0.0-0.0-123.0,-1.0,"[90, 77]",,-1,circle,1000.0,solid,<div class = bigbox><div class = centerbox><div class = gng_number><div class = cue-text><img class = center src='/static/experiments/stop_signal_with_go_no_go/images/solid_circle.png'></img></div></div></div></div>,1.0,stop,,927332,0.0,practice_trial,123,stop-signal,
124,,,,,,,,500.0,,,,,,stop_signal_with_go_no_go,,,,,,,,0.0-0.0-124.0,-1.0,none,,-1,,500.0,,"<div class = fb_box><div class = center-text><font size = 20>Correct!</font></div></div><div class = prompt_box><p class = center-block-text style = ""font-size:16px; line-height:80%%;"">square: Z key</p><p class = center-block-text style = ""font-size:16px; line-height:80%%;"">circle: M key</p><p class = center-block-text style = ""font-size:16px; line-height:80%%;"">Do not respond if a star appears!</p><p class = center-block-text style = ""font-size:16px; line-height:80%%;"">Do not respond if the shape is outlined!</p></div>",,,,927834,0.0,practice-stop-feedback,124,poldrack-single-stim,
125,,,,,,,,500.0,,,,,,stop_signal_with_go_no_go,,,,,,,,0.0-0.0-125.0,-1.0,none,,-1,,500.0,,<div class = centerbox><div class = fixation>+</div></div>,,,,928336,0.0,prompt_fixation,125,poldrack-single-stim,
126,500.0,450.0,500.0,500.0,<div class = bigbox><div class = centerbox><div class = starbox><img class = center src='/static/experiments/stop_signal_with_go_no_go/images/stopSignal.png'></img></div></div></div>,stop,,2000.0,,-1.0,1.0,0.0,42.0,stop_signal_with_go_no_go,,,,,,,go,0.0-0.0-126.0,-1.0,"[90, 77]",,-1,square,1000.0,solid,<div class = bigbox><div class = centerbox><div class = gng_number><div class = cue-text><img class = center src='/static/experiments/stop_signal_with_go_no_go/images/solid_square.png'></img></div></div></div></div>,1.0,stop,,930339,0.0,practice_trial,126,stop-signal,
127,,,,,,,,500.0,,,,,,stop_signal_with_go_no_go,,,,,,,,0.0-0.0-127.0,-1.0,none,,-1,,500.0,,"<div class = fb_box><div class = center-text><font size = 20>Correct!</font></div></div><div class = prompt_box><p class = center-block-text style = ""font-size:16px; line-height:80%%;"">square: Z key</p><p class = center-block-text style = ""font-size:16px; line-height:80%%;"">circle: M key</p><p class = center-block-text style = ""font-size:16px; line-height:80%%;"">Do not respond if a star appears!</p><p class = center-block-text style = ""font-size:16px; line-height:80%%;"">Do not respond if the shape is outlined!</p></div>",,,,930844,0.0,practice-stop-feedback,127,poldrack-single-stim,
128,,,,,,,,9634.0,,,,,,stop_signal_with_go_no_go,,,,,,,,0.0-1.0,13.0,[13],,9634,,9634.0,,"<div class = bigbox><div class = picture_box><p class = block-text><font color=""white""><br>Please take this time to read your feedback and to take a short break. Press enter to continue.</p><p class = block-text>Done with this practice.</font></p></div></div>",,,,940482,0.0,practice-no-stop-feedback,128,poldrack-single-stim,
129,,,,,,,,1053.0,,,,,,stop_signal_with_go_no_go,,,,,,,,0.0-2.0,13.0,[13],,1053,,1053.0,,"<div class = centerbox><p class = block-text>We will now begin the test portion.</p><p class = block-text>You will see a shape on every trial. Please respond to each shape as quickly and accurately as possible!</p><p class = block-text>If the shape is a square, press the Z key. If the shape is a circle, press the M key.</p><p class = block-text>Do not respond if you see a star! Do not respond if the shape is outlined!</p><p class = block-text>You will no longer receive the rule prompt, so remember the instructions before you continue. Press Enter to begin.</p></div>",,,,941536,0.0,test_intro,129,poldrack-single-stim,
130,,,,,,,,1304.0,,,,,,stop_signal_with_go_no_go,,,,,,,,0.0-3.0-0.0,13.0,[13],,1304,,1304.0,,"<div class = bigbox><div class = picture_box><p class = block-text><font color=""white"">We will now start the test session. Please concentrate on responding quickly and accurately to each stimulus.</font></p></div></div>",,,,942842,0.0,practice-no-stop-feedback,130,poldrack-single-stim,
131,,,,,,,,1651.0,False,77.0,,,,stop_signal_with_go_no_go,,,,,,,,0.0-3.0-1.0-0.0,69.0,[],,1651,,1651.0,,"<p>If (4 + 12) / 4 is greater than 3 press the ""M"" key. Otherwise press the ""Z"" key.</p>",,,,944494,200.0,attention_check,131,attention-check,
132,,,,,,,,500.0,,,,,,stop_signal_with_go_no_go,,,,,,,,0.0-3.0-2.0,-1.0,none,,-1,,500.0,,<div class = centerbox><div class = fixation>+</div></div>,,,,945197,0.0,fixation,132,poldrack-single-stim,
133,550.0,450.0,550.0,500.0,<div class = bigbox><div class = centerbox><div class = starbox><img class = center src='/static/experiments/stop_signal_with_go_no_go/images/stopSignal.png'></img></div></div></div>,stop,,2000.0,,-1.0,1.0,0.0,1.0,stop_signal_with_go_no_go,,,,,,,go,0.0-3.0-3.0,-1.0,"[90, 77]",,-1,circle,1000.0,solid,<div class = bigbox><div class = centerbox><div class = gng_number><div class = cue-text><img class = center src='/static/experiments/stop_signal_with_go_no_go/images/solid_circle.png'></img></div></div></div></div>,1.0,stop,,947199,0.0,test_trial,133,stop-signal,
134,,,,,,,,500.0,,,,,,stop_signal_with_go_no_go,,,,,,,,0.0-3.0-4.0,-1.0,none,,-1,,500.0,,<div class = centerbox><div class = fixation>+</div></div>,,,,947702,0.0,fixation,134,poldrack-single-stim,
135,600.0,450.0,600.0,500.0,<div class = bigbox><div class = centerbox><div class = starbox><img class = center src='/static/experiments/stop_signal_with_go_no_go/images/stopSignal.png'></img></div></div></div>,go,,2000.0,,77.0,1.0,0.0,2.0,stop_signal_with_go_no_go,,,,,,1.0,go,0.0-3.0-5.0,77.0,"[90, 77]",,858,circle,1000.0,solid,<div class = bigbox><div class = centerbox><div class = gng_number><div class = cue-text><img class = center src='/static/experiments/stop_signal_with_go_no_go/images/solid_circle.png'></img></div></div></div></div>,,go,,949703,0.0,test_trial,135,stop-signal,
136,,,,,,,,500.0,,,,,,stop_signal_with_go_no_go,,,,,,,,0.0-3.0-6.0,-1.0,none,,-1,,500.0,,<div class = centerbox><div class = fixation>+</div></div>,,,,950205,0.0,fixation,136,poldrack-single-stim,
137,600.0,450.0,600.0,500.0,<div class = bigbox><div class = centerbox><div class = starbox><img class = center src='/static/experiments/stop_signal_with_go_no_go/images/stopSignal.png'></img></div></div></div>,go,,2000.0,,77.0,1.0,0.0,3.0,stop_signal_with_go_no_go,,,,,,1.0,go,0.0-3.0-7.0,77.0,"[90, 77]",,636,circle,1000.0,solid,<div class = bigbox><div class = centerbox><div class = gng_number><div class = cue-text><img class = center src='/static/experiments/stop_signal_with_go_no_go/images/solid_circle.png'></img></div></div></div></div>,,go,,952208,0.0,test_trial,137,stop-signal,
138,,,,,,,,500.0,,,,,,stop_signal_with_go_no_go,,,,,,,,0.0-3.0-8.0,-1.0,none,,-1,,500.0,,<div class = centerbox><div class = fixation>+</div></div>,,,,952709,0.0,fixation,138,poldrack-single-stim,
139,600.0,450.0,600.0,500.0,<div class = bigbox><div class = centerbox><div class = starbox><img class = center src='/static/experiments/stop_signal_with_go_no_go/images/stopSignal.png'></img></div></div></div>,stop,,2000.0,,-1.0,0.0,0.0,4.0,stop_signal_with_go_no_go,,,,,,,go,0.0-3.0-9.0,90.0,"[90, 77]",,711,square,1000.0,solid,<div class = bigbox><div class = centerbox><div class = gng_number><div class = cue-text><img class = center src='/static/experiments/stop_signal_with_go_no_go/images/solid_square.png'></img></div></div></div></div>,0.0,stop,,954713,0.0,test_trial,139,stop-signal,
140,,,,,,,,500.0,,,,,,stop_signal_with_go_no_go,,,,,,,,0.0-3.0-10.0,-1.0,none,,-1,,500.0,,<div class = centerbox><div class = fixation>+</div></div>,,,,955217,0.0,fixation,140,poldrack-single-stim,
141,550.0,450.0,550.0,500.0,<div class = bigbox><div class = centerbox><div class = starbox><img class = center src='/static/experiments/stop_signal_with_go_no_go/images/stopSignal.png'></img></div></div></div>,go,,2000.0,,90.0,1.0,0.0,5.0,stop_signal_with_go_no_go,,,,,,1.0,go,0.0-3.0-11.0,90.0,"[90, 77]",,612,square,1000.0,solid,<div class = bigbox><div class = centerbox><div class = gng_number><div class = cue-text><img class = center src='/static/experiments/stop_signal_with_go_no_go/images/solid_square.png'></img></div></div></div></div>,,go,,957220,0.0,test_trial,141,stop-signal,
142,,,,,,,,500.0,,,,,,stop_signal_with_go_no_go,,,,,,,,0.0-3.0-12.0,-1.0,none,,-1,,500.0,,<div class = centerbox><div class = fixation>+</div></div>,,,,957723,0.0,fixation,142,poldrack-single-stim,
143,550.0,450.0,550.0,500.0,<div class = bigbox><div class = centerbox><div class = starbox><img class = center src='/static/experiments/stop_signal_with_go_no_go/images/stopSignal.png'></img></div></div></div>,go,,2000.0,,77.0,1.0,0.0,6.0,stop_signal_with_go_no_go,,,,,,1.0,go,0.0-3.0-13.0,77.0,"[90, 77]",,605,circle,1000.0,solid,<div class = bigbox><div class = centerbox><div class = gng_number><div class = cue-text><img class = center src='/static/experiments/stop_signal_with_go_no_go/images/solid_circle.png'></img></div></div></div></div>,,go,,959725,0.0,test_trial,143,stop-signal,
144,,,,,,,,500.0,,,,,,stop_signal_with_go_no_go,,,,,,,,0.0-3.0-14.0,-1.0,none,,-1,,500.0,,<div class = centerbox><div class = fixation>+</div></div>,,,,960227,0.0,fixation,144,poldrack-single-stim,
145,550.0,450.0,550.0,500.0,<div class = bigbox><div class = centerbox><div class = starbox><img class = center src='/static/experiments/stop_signal_with_go_no_go/images/stopSignal.png'></img></div></div></div>,go,,2000.0,,77.0,1.0,0.0,7.0,stop_signal_with_go_no_go,,,,,,1.0,go,0.0-3.0-15.0,77.0,"[90, 77]",,558,circle,1000.0,solid,<div class = bigbox><div class = centerbox><div class = gng_number><div class = cue-text><img class = center src='/static/experiments/stop_signal_with_go_no_go/images/solid_circle.png'></img></div></div></div></div>,,go,,962230,0.0,test_trial,145,stop-signal,
146,,,,,,,,500.0,,,,,,stop_signal_with_go_no_go,,,,,,,,0.0-3.0-16.0,-1.0,none,,-1,,500.0,,<div class = centerbox><div class = fixation>+</div></div>,,,,962733,0.0,fixation,146,poldrack-single-stim,
147,550.0,450.0,550.0,500.0,<div class = bigbox><div class = centerbox><div class = starbox><img class = center src='/static/experiments/stop_signal_with_go_no_go/images/stopSignal.png'></img></div></div></div>,stop,,2000.0,,-1.0,0.0,0.0,8.0,stop_signal_with_go_no_go,,,,,,,go,0.0-3.0-17.0,90.0,"[90, 77]",,599,square,1000.0,solid,<div class = bigbox><div class = centerbox><div class = gng_number><div class = cue-text><img class = center src='/static/experiments/stop_signal_with_go_no_go/images/solid_square.png'></img></div></div></div></div>,0.0,stop,,964735,0.0,test_trial,147,stop-signal,
148,,,,,,,,500.0,,,,,,stop_signal_with_go_no_go,,,,,,,,0.0-3.0-18.0,-1.0,none,,-1,,500.0,,<div class = centerbox><div class = fixation>+</div></div>,,,,965237,0.0,fixation,148,poldrack-single-stim,
149,500.0,450.0,500.0,500.0,<div class = bigbox><div class = centerbox><div class = starbox><img class = center src='/static/experiments/stop_signal_with_go_no_go/images/stopSignal.png'></img></div></div></div>,go,,2000.0,,90.0,1.0,0.0,9.0,stop_signal_with_go_no_go,,,,,,1.0,go,0.0-3.0-19.0,90.0,"[90, 77]",,702,square,1000.0,solid,<div class = bigbox><div class = centerbox><div class = gng_number><div class = cue-text><img class = center src='/static/experiments/stop_signal_with_go_no_go/images/solid_square.png'></img></div></div></div></div>,,go,,967239,0.0,test_trial,149,stop-signal,
150,,,,,,,,500.0,,,,,,stop_signal_with_go_no_go,,,,,,,,0.0-3.0-20.0,-1.0,none,,-1,,500.0,,<div class = centerbox><div class = fixation>+</div></div>,,,,967741,0.0,fixation,150,poldrack-single-stim,
151,500.0,450.0,500.0,500.0,<div class = bigbox><div class = centerbox><div class = starbox><img class = center src='/static/experiments/stop_signal_with_go_no_go/images/stopSignal.png'></img></div></div></div>,stop,,2000.0,,-1.0,0.0,0.0,10.0,stop_signal_with_go_no_go,,,,,,,go,0.0-3.0-21.0,77.0,"[90, 77]",,670,circle,1000.0,solid,<div class = bigbox><div class = centerbox><div class = gng_number><div class = cue-text><img class = center src='/static/experiments/stop_signal_with_go_no_go/images/solid_circle.png'></img></div></div></div></div>,0.0,stop,,969745,0.0,test_trial,151,stop-signal,
152,,,,,,,,500.0,,,,,,stop_signal_with_go_no_go,,,,,,,,0.0-3.0-22.0,-1.0,none,,-1,,500.0,,<div class = centerbox><div class = fixation>+</div></div>,,,,970248,0.0,fixation,152,poldrack-single-stim,
153,450.0,450.0,450.0,500.0,<div class = bigbox><div class = centerbox><div class = starbox><img class = center src='/static/experiments/stop_signal_with_go_no_go/images/stopSignal.png'></img></div></div></div>,go,,2000.0,,77.0,1.0,0.0,11.0,stop_signal_with_go_no_go,,,,,,1.0,go,0.0-3.0-23.0,77.0,"[90, 77]",,641,circle,1000.0,solid,<div class = bigbox><div class = centerbox><div class = gng_number><div class = cue-text><img class = center src='/static/experiments/stop_signal_with_go_no_go/images/solid_circle.png'></img></div></div></div></div>,,go,,972251,0.0,test_trial,153,stop-signal,
154,,,,,,,,500.0,,,,,,stop_signal_with_go_no_go,,,,,,,,0.0-3.0-24.0,-1.0,none,,-1,,500.0,,<div class = centerbox><div class = fixation>+</div></div>,,,,972754,0.0,fixation,154,poldrack-single-stim,
155,450.0,450.0,450.0,500.0,<div class = bigbox><div class = centerbox><div class = starbox><img class = center src='/static/experiments/stop_signal_with_go_no_go/images/stopSignal.png'></img></div></div></div>,go,,2000.0,,90.0,1.0,0.0,12.0,stop_signal_with_go_no_go,,,,,,1.0,go,0.0-3.0-25.0,90.0,"[90, 77]",,731,square,1000.0,solid,<div class = bigbox><div class = centerbox><div class = gng_number><div class = cue-text><img class = center src='/static/experiments/stop_signal_with_go_no_go/images/solid_square.png'></img></div></div></div></div>,,go,,974755,0.0,test_trial,155,stop-signal,
156,,,,,,,,500.0,,,,,,stop_signal_with_go_no_go,,,,,,,,0.0-3.0-26.0,-1.0,none,,-1,,500.0,,<div class = centerbox><div class = fixation>+</div></div>,,,,975257,0.0,fixation,156,poldrack-single-stim,
157,450.0,450.0,450.0,500.0,<div class = bigbox><div class = centerbox><div class = starbox><img class = center src='/static/experiments/stop_signal_with_go_no_go/images/stopSignal.png'></img></div></div></div>,stop,,2000.0,,-1.0,0.0,0.0,13.0,stop_signal_with_go_no_go,,,,,,,go,0.0-3.0-27.0,77.0,"[90, 77]",,610,circle,1000.0,solid,<div class = bigbox><div class = centerbox><div class = gng_number><div class = cue-text><img class = center src='/static/experiments/stop_signal_with_go_no_go/images/solid_circle.png'></img></div></div></div></div>,0.0,stop,,977260,0.0,test_trial,157,stop-signal,
158,,,,,,,,500.0,,,,,,stop_signal_with_go_no_go,,,,,,,,0.0-3.0-28.0,-1.0,none,,-1,,500.0,,<div class = centerbox><div class = fixation>+</div></div>,,,,977761,0.0,fixation,158,poldrack-single-stim,
159,400.0,450.0,400.0,500.0,<div class = bigbox><div class = centerbox><div class = starbox><img class = center src='/static/experiments/stop_signal_with_go_no_go/images/stopSignal.png'></img></div></div></div>,stop,,2000.0,,-1.0,1.0,0.0,14.0,stop_signal_with_go_no_go,,,,,,,go,0.0-3.0-29.0,-1.0,"[90, 77]",,-1,circle,1000.0,solid,<div class = bigbox><div class = centerbox><div class = gng_number><div class = cue-text><img class = center src='/static/experiments/stop_signal_with_go_no_go/images/solid_circle.png'></img></div></div></div></div>,1.0,stop,,979765,0.0,test_trial,159,stop-signal,
160,,,,,,,,500.0,,,,,,stop_signal_with_go_no_go,,,,,,,,0.0-3.0-30.0,-1.0,none,,-1,,500.0,,<div class = centerbox><div class = fixation>+</div></div>,,,,980267,0.0,fixation,160,poldrack-single-stim,
161,450.0,450.0,450.0,500.0,<div class = bigbox><div class = centerbox><div class = starbox><img class = center src='/static/experiments/stop_signal_with_go_no_go/images/stopSignal.png'></img></div></div></div>,go,,2000.0,,90.0,1.0,0.0,15.0,stop_signal_with_go_no_go,,,,,,1.0,go,0.0-3.0-31.0,90.0,"[90, 77]",,661,square,1000.0,solid,<div class = bigbox><div class = centerbox><div class = gng_number><div class = cue-text><img class = center src='/static/experiments/stop_signal_with_go_no_go/images/solid_square.png'></img></div></div></div></div>,,go,,982269,0.0,test_trial,161,stop-signal,
162,,,,,,,,500.0,,,,,,stop_signal_with_go_no_go,,,,,,,,0.0-3.0-32.0,-1.0,none,,-1,,500.0,,<div class = centerbox><div class = fixation>+</div></div>,,,,982771,0.0,fixation,162,poldrack-single-stim,
163,450.0,450.0,450.0,500.0,<div class = bigbox><div class = centerbox><div class = starbox><img class = center src='/static/experiments/stop_signal_with_go_no_go/images/stopSignal.png'></img></div></div></div>,go,,2000.0,,77.0,1.0,0.0,16.0,stop_signal_with_go_no_go,,,,,,1.0,go,0.0-3.0-33.0,77.0,"[90, 77]",,601,circle,1000.0,solid,<div class = bigbox><div class = centerbox><div class = gng_number><div class = cue-text><img class = center src='/static/experiments/stop_signal_with_go_no_go/images/solid_circle.png'></img></div></div></div></div>,,go,,984773,0.0,test_trial,163,stop-signal,
164,,,,,,,,500.0,,,,,,stop_signal_with_go_no_go,,,,,,,,0.0-3.0-34.0,-1.0,none,,-1,,500.0,,<div class = centerbox><div class = fixation>+</div></div>,,,,985274,0.0,fixation,164,poldrack-single-stim,
165,450.0,450.0,450.0,500.0,<div class = bigbox><div class = centerbox><div class = starbox><img class = center src='/static/experiments/stop_signal_with_go_no_go/images/stopSignal.png'></img></div></div></div>,go,,2000.0,,90.0,1.0,0.0,17.0,stop_signal_with_go_no_go,,,,,,1.0,go,0.0-3.0-35.0,90.0,"[90, 77]",,722,square,1000.0,solid,<div class = bigbox><div class = centerbox><div class = gng_number><div class = cue-text><img class = center src='/static/experiments/stop_signal_with_go_no_go/images/solid_square.png'></img></div></div></div></div>,,go,,987277,0.0,test_trial,165,stop-signal,
166,,,,,,,,500.0,,,,,,stop_signal_with_go_no_go,,,,,,,,0.0-3.0-36.0,-1.0,none,,-1,,500.0,,<div class = centerbox><div class = fixation>+</div></div>,,,,987781,0.0,fixation,166,poldrack-single-stim,
167,450.0,450.0,450.0,500.0,<div class = bigbox><div class = centerbox><div class = starbox><img class = center src='/static/experiments/stop_signal_with_go_no_go/images/stopSignal.png'></img></div></div></div>,go,,2000.0,,77.0,1.0,0.0,18.0,stop_signal_with_go_no_go,,,,,,1.0,go,0.0-3.0-37.0,77.0,"[90, 77]",,791,circle,1000.0,solid,<div class = bigbox><div class = centerbox><div class = gng_number><div class = cue-text><img class = center src='/static/experiments/stop_signal_with_go_no_go/images/solid_circle.png'></img></div></div></div></div>,,go,,989784,0.0,test_trial,167,stop-signal,
168,,,,,,,,500.0,,,,,,stop_signal_with_go_no_go,,,,,,,,0.0-3.0-38.0,-1.0,none,,-1,,500.0,,<div class = centerbox><div class = fixation>+</div></div>,,,,990286,0.0,fixation,168,poldrack-single-stim,
169,450.0,450.0,450.0,500.0,<div class = bigbox><div class = centerbox><div class = starbox><img class = center src='/static/experiments/stop_signal_with_go_no_go/images/stopSignal.png'></img></div></div></div>,go,,2000.0,,90.0,1.0,0.0,19.0,stop_signal_with_go_no_go,,,,,,1.0,go,0.0-3.0-39.0,90.0,"[90, 77]",,698,square,1000.0,solid,<div class = bigbox><div class = centerbox><div class = gng_number><div class = cue-text><img class = center src='/static/experiments/stop_signal_with_go_no_go/images/solid_square.png'></img></div></div></div></div>,,go,,992288,0.0,test_trial,169,stop-signal,
170,,,,,,,,500.0,,,,,,stop_signal_with_go_no_go,,,,,,,,0.0-3.0-40.0,-1.0,none,,-1,,500.0,,<div class = centerbox><div class = fixation>+</div></div>,,,,992790,0.0,fixation,170,poldrack-single-stim,
171,450.0,450.0,450.0,500.0,<div class = bigbox><div class = centerbox><div class = starbox><img class = center src='/static/experiments/stop_signal_with_go_no_go/images/stopSignal.png'></img></div></div></div>,go,,2000.0,,77.0,0.0,0.0,20.0,stop_signal_with_go_no_go,,,,,,0.0,go,0.0-3.0-41.0,90.0,"[90, 77]",,814,circle,1000.0,solid,<div class = bigbox><div class = centerbox><div class = gng_number><div class = cue-text><img class = center src='/static/experiments/stop_signal_with_go_no_go/images/solid_circle.png'></img></div></div></div></div>,,go,,994792,0.0,test_trial,171,stop-signal,
172,,,,,,,,500.0,,,,,,stop_signal_with_go_no_go,,,,,,,,0.0-3.0-42.0,-1.0,none,,-1,,500.0,,<div class = centerbox><div class = fixation>+</div></div>,,,,995296,0.0,fixation,172,poldrack-single-stim,
173,450.0,450.0,450.0,500.0,<div class = bigbox><div class = centerbox><div class = starbox><img class = center src='/static/experiments/stop_signal_with_go_no_go/images/stopSignal.png'></img></div></div></div>,stop,,2000.0,,-1.0,0.0,0.0,21.0,stop_signal_with_go_no_go,,,,,,,go,0.0-3.0-43.0,90.0,"[90, 77]",,626,square,1000.0,solid,<div class = bigbox><div class = centerbox><div class = gng_number><div class = cue-text><img class = center src='/static/experiments/stop_signal_with_go_no_go/images/solid_square.png'></img></div></div></div></div>,0.0,stop,,997300,0.0,test_trial,173,stop-signal,
174,,,,,,,,500.0,,,,,,stop_signal_with_go_no_go,,,,,,,,0.0-3.0-44.0,-1.0,none,,-1,,500.0,,<div class = centerbox><div class = fixation>+</div></div>,,,,997802,0.0,fixation,174,poldrack-single-stim,
175,400.0,450.0,450.0,500.0,<div class = bigbox><div class = centerbox><div class = starbox><img class = center src='/static/experiments/stop_signal_with_go_no_go/images/stopSignal.png'></img></div></div></div>,go,,2000.0,,-1.0,1.0,0.0,22.0,stop_signal_with_go_no_go,,,,,,1.0,nogo,0.0-3.0-45.0,-1.0,"[90, 77]",,-1,circle,1000.0,outlined,<div class = bigbox><div class = centerbox><div class = gng_number><div class = cue-text><img class = center src='/static/experiments/stop_signal_with_go_no_go/images/outlined_circle.png'></img></div></div></div></div>,,go,,999804,0.0,test_trial,175,stop-signal,
176,,,,,,,,500.0,,,,,,stop_signal_with_go_no_go,,,,,,,,0.0-3.0-46.0,-1.0,none,,-1,,500.0,,<div class = centerbox><div class = fixation>+</div></div>,,,,1000306,0.0,fixation,176,poldrack-single-stim,
177,400.0,450.0,400.0,500.0,<div class = bigbox><div class = centerbox><div class = starbox><img class = center src='/static/experiments/stop_signal_with_go_no_go/images/stopSignal.png'></img></div></div></div>,go,,2000.0,,90.0,1.0,0.0,23.0,stop_signal_with_go_no_go,,,,,,1.0,go,0.0-3.0-47.0,90.0,"[90, 77]",,745,square,1000.0,solid,<div class = bigbox><div class = centerbox><div class = gng_number><div class = cue-text><img class = center src='/static/experiments/stop_signal_with_go_no_go/images/solid_square.png'></img></div></div></div></div>,,go,,1002309,0.0,test_trial,177,stop-signal,
178,,,,,,,,500.0,,,,,,stop_signal_with_go_no_go,,,,,,,,0.0-3.0-48.0,-1.0,none,,-1,,500.0,,<div class = centerbox><div class = fixation>+</div></div>,,,,1002810,0.0,fixation,178,poldrack-single-stim,
179,400.0,450.0,450.0,500.0,<div class = bigbox><div class = centerbox><div class = starbox><img class = center src='/static/experiments/stop_signal_with_go_no_go/images/stopSignal.png'></img></div></div></div>,go,,2000.0,,-1.0,1.0,0.0,24.0,stop_signal_with_go_no_go,,,,,,1.0,nogo,0.0-3.0-49.0,-1.0,"[90, 77]",,-1,circle,1000.0,outlined,<div class = bigbox><div class = centerbox><div class = gng_number><div class = cue-text><img class = center src='/static/experiments/stop_signal_with_go_no_go/images/outlined_circle.png'></img></div></div></div></div>,,go,,1004814,0.0,test_trial,179,stop-signal,
180,,,,,,,,500.0,,,,,,stop_signal_with_go_no_go,,,,,,,,0.0-3.0-50.0,-1.0,none,,-1,,500.0,,<div class = centerbox><div class = fixation>+</div></div>,,,,1005316,0.0,fixation,180,poldrack-single-stim,
181,400.0,450.0,400.0,500.0,<div class = bigbox><div class = centerbox><div class = starbox><img class = center src='/static/experiments/stop_signal_with_go_no_go/images/stopSignal.png'></img></div></div></div>,go,,2000.0,,77.0,1.0,0.0,25.0,stop_signal_with_go_no_go,,,,,,1.0,go,0.0-3.0-51.0,77.0,"[90, 77]",,722,circle,1000.0,solid,<div class = bigbox><div class = centerbox><div class = gng_number><div class = cue-text><img class = center src='/static/experiments/stop_signal_with_go_no_go/images/solid_circle.png'></img></div></div></div></div>,,go,,1007319,0.0,test_trial,181,stop-signal,
182,,,,,,,,500.0,,,,,,stop_signal_with_go_no_go,,,,,,,,0.0-3.0-52.0,-1.0,none,,-1,,500.0,,<div class = centerbox><div class = fixation>+</div></div>,,,,1007822,0.0,fixation,182,poldrack-single-stim,
183,400.0,450.0,400.0,500.0,<div class = bigbox><div class = centerbox><div class = starbox><img class = center src='/static/experiments/stop_signal_with_go_no_go/images/stopSignal.png'></img></div></div></div>,stop,,2000.0,,-1.0,1.0,0.0,26.0,stop_signal_with_go_no_go,,,,,,,go,0.0-3.0-53.0,-1.0,"[90, 77]",,-1,circle,1000.0,solid,<div class = bigbox><div class = centerbox><div class = gng_number><div class = cue-text><img class = center src='/static/experiments/stop_signal_with_go_no_go/images/solid_circle.png'></img></div></div></div></div>,1.0,stop,,1009824,0.0,test_trial,183,stop-signal,
184,,,,,,,,500.0,,,,,,stop_signal_with_go_no_go,,,,,,,,0.0-3.0-54.0,-1.0,none,,-1,,500.0,,<div class = centerbox><div class = fixation>+</div></div>,,,,1010327,0.0,fixation,184,poldrack-single-stim,
185,450.0,450.0,450.0,500.0,<div class = bigbox><div class = centerbox><div class = starbox><img class = center src='/static/experiments/stop_signal_with_go_no_go/images/stopSignal.png'></img></div></div></div>,go,,2000.0,,90.0,1.0,0.0,27.0,stop_signal_with_go_no_go,,,,,,1.0,go,0.0-3.0-55.0,90.0,"[90, 77]",,765,square,1000.0,solid,<div class = bigbox><div class = centerbox><div class = gng_number><div class = cue-text><img class = center src='/static/experiments/stop_signal_with_go_no_go/images/solid_square.png'></img></div></div></div></div>,,go,,1012330,0.0,test_trial,185,stop-signal,
186,,,,,,,,500.0,,,,,,stop_signal_with_go_no_go,,,,,,,,0.0-3.0-56.0,-1.0,none,,-1,,500.0,,<div class = centerbox><div class = fixation>+</div></div>,,,,1012831,0.0,fixation,186,poldrack-single-stim,
187,450.0,450.0,450.0,500.0,<div class = bigbox><div class = centerbox><div class = starbox><img class = center src='/static/experiments/stop_signal_with_go_no_go/images/stopSignal.png'></img></div></div></div>,go,,2000.0,,90.0,1.0,0.0,28.0,stop_signal_with_go_no_go,,,,,,1.0,go,0.0-3.0-57.0,90.0,"[90, 77]",,939,square,1000.0,solid,<div class = bigbox><div class = centerbox><div class = gng_number><div class = cue-text><img class = center src='/static/experiments/stop_signal_with_go_no_go/images/solid_square.png'></img></div></div></div></div>,,go,,1014834,0.0,test_trial,187,stop-signal,
188,,,,,,,,500.0,,,,,,stop_signal_with_go_no_go,,,,,,,,0.0-3.0-58.0,-1.0,none,,-1,,500.0,,<div class = centerbox><div class = fixation>+</div></div>,,,,1015337,0.0,fixation,188,poldrack-single-stim,
189,450.0,450.0,450.0,500.0,<div class = bigbox><div class = centerbox><div class = starbox><img class = center src='/static/experiments/stop_signal_with_go_no_go/images/stopSignal.png'></img></div></div></div>,go,,2000.0,,90.0,1.0,0.0,29.0,stop_signal_with_go_no_go,,,,,,1.0,go,0.0-3.0-59.0,90.0,"[90, 77]",,617,square,1000.0,solid,<div class = bigbox><div class = centerbox><div class = gng_number><div class = cue-text><img class = center src='/static/experiments/stop_signal_with_go_no_go/images/solid_square.png'></img></div></div></div></div>,,go,,1017338,0.0,test_trial,189,stop-signal,
190,,,,,,,,500.0,,,,,,stop_signal_with_go_no_go,,,,,,,,0.0-3.0-60.0,-1.0,none,,-1,,500.0,,<div class = centerbox><div class = fixation>+</div></div>,,,,1017840,0.0,fixation,190,poldrack-single-stim,
191,450.0,450.0,450.0,500.0,<div class = bigbox><div class = centerbox><div class = starbox><img class = center src='/static/experiments/stop_signal_with_go_no_go/images/stopSignal.png'></img></div></div></div>,stop,,2000.0,,-1.0,1.0,0.0,30.0,stop_signal_with_go_no_go,,,,,,,go,0.0-3.0-61.0,-1.0,"[90, 77]",,-1,square,1000.0,solid,<div class = bigbox><div class = centerbox><div class = gng_number><div class = cue-text><img class = center src='/static/experiments/stop_signal_with_go_no_go/images/solid_square.png'></img></div></div></div></div>,1.0,stop,,1019843,0.0,test_trial,191,stop-signal,
192,,,,,,,,500.0,,,,,,stop_signal_with_go_no_go,,,,,,,,0.0-3.0-62.0,-1.0,none,,-1,,500.0,,<div class = centerbox><div class = fixation>+</div></div>,,,,1020344,0.0,fixation,192,poldrack-single-stim,
193,500.0,450.0,500.0,500.0,<div class = bigbox><div class = centerbox><div class = starbox><img class = center src='/static/experiments/stop_signal_with_go_no_go/images/stopSignal.png'></img></div></div></div>,stop,,2000.0,,-1.0,0.0,0.0,31.0,stop_signal_with_go_no_go,,,,,,,go,0.0-3.0-63.0,90.0,"[90, 77]",,664,square,1000.0,solid,<div class = bigbox><div class = centerbox><div class = gng_number><div class = cue-text><img class = center src='/static/experiments/stop_signal_with_go_no_go/images/solid_square.png'></img></div></div></div></div>,0.0,stop,,1022347,0.0,test_trial,193,stop-signal,
194,,,,,,,,500.0,,,,,,stop_signal_with_go_no_go,,,,,,,,0.0-3.0-64.0,-1.0,none,,-1,,500.0,,<div class = centerbox><div class = fixation>+</div></div>,,,,1022851,0.0,fixation,194,poldrack-single-stim,
195,450.0,450.0,450.0,500.0,<div class = bigbox><div class = centerbox><div class = starbox><img class = center src='/static/experiments/stop_signal_with_go_no_go/images/stopSignal.png'></img></div></div></div>,stop,,2000.0,,-1.0,1.0,0.0,32.0,stop_signal_with_go_no_go,,,,,,,go,0.0-3.0-65.0,-1.0,"[90, 77]",,-1,circle,1000.0,solid,<div class = bigbox><div class = centerbox><div class = gng_number><div class = cue-text><img class = center src='/static/experiments/stop_signal_with_go_no_go/images/solid_circle.png'></img></div></div></div></div>,1.0,stop,,1024854,0.0,test_trial,195,stop-signal,
196,,,,,,,,500.0,,,,,,stop_signal_with_go_no_go,,,,,,,,0.0-3.0-66.0,-1.0,none,,-1,,500.0,,<div class = centerbox><div class = fixation>+</div></div>,,,,1025357,0.0,fixation,196,poldrack-single-stim,
197,500.0,450.0,450.0,500.0,<div class = bigbox><div class = centerbox><div class = starbox><img class = center src='/static/experiments/stop_signal_with_go_no_go/images/stopSignal.png'></img></div></div></div>,stop,,2000.0,,-1.0,1.0,0.0,33.0,stop_signal_with_go_no_go,,,,,,,nogo,0.0-3.0-67.0,-1.0,"[90, 77]",,-1,square,1000.0,outlined,<div class = bigbox><div class = centerbox><div class = gng_number><div class = cue-text><img class = center src='/static/experiments/stop_signal_with_go_no_go/images/outlined_square.png'></img></div></div></div></div>,1.0,stop,,1027360,0.0,test_trial,197,stop-signal,
198,,,,,,,,500.0,,,,,,stop_signal_with_go_no_go,,,,,,,,0.0-3.0-68.0,-1.0,none,,-1,,500.0,,<div class = centerbox><div class = fixation>+</div></div>,,,,1027861,0.0,fixation,198,poldrack-single-stim,
199,500.0,500.0,500.0,500.0,<div class = bigbox><div class = centerbox><div class = starbox><img class = center src='/static/experiments/stop_signal_with_go_no_go/images/stopSignal.png'></img></div></div></div>,go,,2000.0,,-1.0,1.0,0.0,34.0,stop_signal_with_go_no_go,,,,,,1.0,nogo,0.0-3.0-69.0,-1.0,"[90, 77]",,-1,square,1000.0,outlined,<div class = bigbox><div class = centerbox><div class = gng_number><div class = cue-text><img class = center src='/static/experiments/stop_signal_with_go_no_go/images/outlined_square.png'></img></div></div></div></div>,,go,,1029863,0.0,test_trial,199,stop-signal,
200,,,,,,,,500.0,,,,,,stop_signal_with_go_no_go,,,,,,,,0.0-3.0-70.0,-1.0,none,,-1,,500.0,,<div class = centerbox><div class = fixation>+</div></div>,,,,1030365,0.0,fixation,200,poldrack-single-stim,
201,500.0,500.0,500.0,500.0,<div class = bigbox><div class = centerbox><div class = starbox><img class = center src='/static/experiments/stop_signal_with_go_no_go/images/stopSignal.png'></img></div></div></div>,go,,2000.0,,90.0,1.0,0.0,35.0,stop_signal_with_go_no_go,,,,,,1.0,go,0.0-3.0-71.0,90.0,"[90, 77]",,803,square,1000.0,solid,<div class = bigbox><div class = centerbox><div class = gng_number><div class = cue-text><img class = center src='/static/experiments/stop_signal_with_go_no_go/images/solid_square.png'></img></div></div></div></div>,,go,,1032367,0.0,test_trial,201,stop-signal,
202,,,,,,,,500.0,,,,,,stop_signal_with_go_no_go,,,,,,,,0.0-3.0-72.0,-1.0,none,,-1,,500.0,,<div class = centerbox><div class = fixation>+</div></div>,,,,1032870,0.0,fixation,202,poldrack-single-stim,
203,500.0,500.0,500.0,500.0,<div class = bigbox><div class = centerbox><div class = starbox><img class = center src='/static/experiments/stop_signal_with_go_no_go/images/stopSignal.png'></img></div></div></div>,go,,2000.0,,77.0,1.0,0.0,36.0,stop_signal_with_go_no_go,,,,,,1.0,go,0.0-3.0-73.0,77.0,"[90, 77]",,718,circle,1000.0,solid,<div class = bigbox><div class = centerbox><div class = gng_number><div class = cue-text><img class = center src='/static/experiments/stop_signal_with_go_no_go/images/solid_circle.png'></img></div></div></div></div>,,go,,1034872,0.0,test_trial,203,stop-signal,
204,,,,,,,,500.0,,,,,,stop_signal_with_go_no_go,,,,,,,,0.0-3.0-74.0,-1.0,none,,-1,,500.0,,<div class = centerbox><div class = fixation>+</div></div>,,,,1035374,0.0,fixation,204,poldrack-single-stim,
205,500.0,500.0,500.0,500.0,<div class = bigbox><div class = centerbox><div class = starbox><img class = center src='/static/experiments/stop_signal_with_go_no_go/images/stopSignal.png'></img></div></div></div>,stop,,2000.0,,-1.0,0.0,0.0,37.0,stop_signal_with_go_no_go,,,,,,,go,0.0-3.0-75.0,90.0,"[90, 77]",,692,square,1000.0,solid,<div class = bigbox><div class = centerbox><div class = gng_number><div class = cue-text><img class = center src='/static/experiments/stop_signal_with_go_no_go/images/solid_square.png'></img></div></div></div></div>,0.0,stop,,1037377,0.0,test_trial,205,stop-signal,
206,,,,,,,,500.0,,,,,,stop_signal_with_go_no_go,,,,,,,,0.0-3.0-76.0,-1.0,none,,-1,,500.0,,<div class = centerbox><div class = fixation>+</div></div>,,,,1037880,0.0,fixation,206,poldrack-single-stim,
207,450.0,500.0,450.0,500.0,<div class = bigbox><div class = centerbox><div class = starbox><img class = center src='/static/experiments/stop_signal_with_go_no_go/images/stopSignal.png'></img></div></div></div>,go,,2000.0,,77.0,1.0,0.0,38.0,stop_signal_with_go_no_go,,,,,,1.0,go,0.0-3.0-77.0,77.0,"[90, 77]",,797,circle,1000.0,solid,<div class = bigbox><div class = centerbox><div class = gng_number><div class = cue-text><img class = center src='/static/experiments/stop_signal_with_go_no_go/images/solid_circle.png'></img></div></div></div></div>,,go,,1039885,0.0,test_trial,207,stop-signal,
208,,,,,,,,500.0,,,,,,stop_signal_with_go_no_go,,,,,,,,0.0-3.0-78.0,-1.0,none,,-1,,500.0,,<div class = centerbox><div class = fixation>+</div></div>,,,,1040389,0.0,fixation,208,poldrack-single-stim,
209,450.0,500.0,500.0,500.0,<div class = bigbox><div class = centerbox><div class = starbox><img class = center src='/static/experiments/stop_signal_with_go_no_go/images/stopSignal.png'></img></div></div></div>,go,,2000.0,,-1.0,1.0,0.0,39.0,stop_signal_with_go_no_go,,,,,,1.0,nogo,0.0-3.0-79.0,-1.0,"[90, 77]",,-1,square,1000.0,outlined,<div class = bigbox><div class = centerbox><div class = gng_number><div class = cue-text><img class = center src='/static/experiments/stop_signal_with_go_no_go/images/outlined_square.png'></img></div></div></div></div>,,go,,1042391,0.0,test_trial,209,stop-signal,
210,,,,,,,,500.0,,,,,,stop_signal_with_go_no_go,,,,,,,,0.0-3.0-80.0,-1.0,none,,-1,,500.0,,<div class = centerbox><div class = fixation>+</div></div>,,,,1042894,0.0,fixation,210,poldrack-single-stim,
211,450.0,500.0,450.0,500.0,<div class = bigbox><div class = centerbox><div class = starbox><img class = center src='/static/experiments/stop_signal_with_go_no_go/images/stopSignal.png'></img></div></div></div>,go,,2000.0,,90.0,1.0,0.0,40.0,stop_signal_with_go_no_go,,,,,,1.0,go,0.0-3.0-81.0,90.0,"[90, 77]",,713,square,1000.0,solid,<div class = bigbox><div class = centerbox><div class = gng_number><div class = cue-text><img class = center src='/static/experiments/stop_signal_with_go_no_go/images/solid_square.png'></img></div></div></div></div>,,go,,1044895,0.0,test_trial,211,stop-signal,
212,,,,,,,,500.0,,,,,,stop_signal_with_go_no_go,,,,,,,,0.0-3.0-82.0,-1.0,none,,-1,,500.0,,<div class = centerbox><div class = fixation>+</div></div>,,,,1045398,0.0,fixation,212,poldrack-single-stim,
213,450.0,500.0,450.0,500.0,<div class = bigbox><div class = centerbox><div class = starbox><img class = center src='/static/experiments/stop_signal_with_go_no_go/images/stopSignal.png'></img></div></div></div>,stop,,2000.0,,-1.0,1.0,0.0,41.0,stop_signal_with_go_no_go,,,,,,,go,0.0-3.0-83.0,-1.0,"[90, 77]",,-1,circle,1000.0,solid,<div class = bigbox><div class = centerbox><div class = gng_number><div class = cue-text><img class = center src='/static/experiments/stop_signal_with_go_no_go/images/solid_circle.png'></img></div></div></div></div>,1.0,stop,,1047401,0.0,test_trial,213,stop-signal,
214,,,,,,,,500.0,,,,,,stop_signal_with_go_no_go,,,,,,,,0.0-3.0-84.0,-1.0,none,,-1,,500.0,,<div class = centerbox><div class = fixation>+</div></div>,,,,1047902,0.0,fixation,214,poldrack-single-stim,
215,500.0,500.0,500.0,500.0,<div class = bigbox><div class = centerbox><div class = starbox><img class = center src='/static/experiments/stop_signal_with_go_no_go/images/stopSignal.png'></img></div></div></div>,go,,2000.0,,90.0,1.0,0.0,42.0,stop_signal_with_go_no_go,,,,,,1.0,go,0.0-3.0-85.0,90.0,"[90, 77]",,684,square,1000.0,solid,<div class = bigbox><div class = centerbox><div class = gng_number><div class = cue-text><img class = center src='/static/experiments/stop_signal_with_go_no_go/images/solid_square.png'></img></div></div></div></div>,,go,,1049904,0.0,test_trial,215,stop-signal,
216,,,,,,,,500.0,,,,,,stop_signal_with_go_no_go,,,,,,,,0.0-3.0-86.0,-1.0,none,,-1,,500.0,,<div class = centerbox><div class = fixation>+</div></div>,,,,1050406,0.0,fixation,216,poldrack-single-stim,
217,500.0,500.0,500.0,500.0,<div class = bigbox><div class = centerbox><div class = starbox><img class = center src='/static/experiments/stop_signal_with_go_no_go/images/stopSignal.png'></img></div></div></div>,go,,2000.0,,-1.0,1.0,0.0,43.0,stop_signal_with_go_no_go,,,,,,1.0,nogo,0.0-3.0-87.0,-1.0,"[90, 77]",,-1,circle,1000.0,outlined,<div class = bigbox><div class = centerbox><div class = gng_number><div class = cue-text><img class = center src='/static/experiments/stop_signal_with_go_no_go/images/outlined_circle.png'></img></div></div></div></div>,,go,,1052408,0.0,test_trial,217,stop-signal,
218,,,,,,,,500.0,,,,,,stop_signal_with_go_no_go,,,,,,,,0.0-3.0-88.0,-1.0,none,,-1,,500.0,,<div class = centerbox><div class = fixation>+</div></div>,,,,1052911,0.0,fixation,218,poldrack-single-stim,
