,SSD_stay,SSD_switch,SS_delay,SS_duration,SS_stimulus,SS_trial_type,att_check_percent,block_duration,correct,correct_response,correct_trial,current_block,current_trial,exp_id,final_accuracy,final_avg_rt,final_credit_var,final_missed_percent,final_responses_ok,internal_node_id,key_press,magnitude,number,parity,possible_responses,predictable_condition,predictable_dimension,responses,rt,stim_duration,stimulus,stop_acc,stop_signal_condition,text,time_elapsed,timing_post_trial,trial_id,trial_index,trial_type,view_history,whichQuadrant
0,,,,,,,,2115.0,,,,,,stop_signal_with_predictable_task_switching,,,,,,0.0-0.0-0.0,13.0,,,,[13],,,,2115,2115.0,<div class = bigbox><div class = picture_box><p class = block-text>Welcome to the experiment. This experiment will take around 10 minutes. Press <i>enter</i> to begin.</p></div></div>,,,,2121,0.0,feedback_block,0,poldrack-single-stim,,
1,,,,,,,,,,,,,,stop_signal_with_predictable_task_switching,,,,,,0.0-0.0-1.0,,,,,,,,,81793,,,,,,83923,,instruction,1,poldrack-instructions,"[{""page_index"":0,""viewing_time"":42681},{""page_index"":1,""viewing_time"":36887},{""page_index"":2,""viewing_time"":2224}]",
2,,,,,,,,500.0,,,,,,stop_signal_with_predictable_task_switching,,,,,,0.0-0.0-2.0,-1.0,,,,none,,,,-1,500.0,<div class = bigbox><div class = quad_box><div class = decision-bottom-left><div class = fixation>+</div></div></div></div>,,,,85434,0.0,practice_fixation,2,poldrack-single-stim,,
3,350.0,350.0,,500.0,<div class = bigbox><div class = quad_box><div class = decision-bottom-left><img class = center src='/static/experiments/stop_signal_with_predictable_task_switching/images/stopSignal.png'></img></div></div></div>,go,,2000.0,,77.0,0.0,0.0,1.0,stop_signal_with_predictable_task_switching,,,,,,0.0-0.0-3.0,-1.0,low,4.0,even,"[77, 90]",N/A,parity,,-1,1000.0,<div class = bigbox><div class = quad_box><div class = decision-bottom-left><div class = gng_number><div class = cue-text><img class = center src='/static/experiments/stop_signal_with_predictable_task_switching/images/4.png'></img></div></div></div></div></div>,,go,,87457,0.0,practice_trial,3,stop-signal,,4.0
4,,,,,,,,500.0,,,,,,stop_signal_with_predictable_task_switching,,,,,,0.0-0.0-4.0,-1.0,,,,none,,,,-1,500.0,"<div class = fb_box><div class = center-text><font size = 20>Respond Faster!</font></div></div><div class = prompt_box><p class = center-block-text style = ""font-size:16px; line-height:80%;"">Do not respond if a star appears!</p><p class = center-block-text style = ""font-size:16px; line-height:80%;"">Top 2 quadrants: Judge number on magnitude</p><p class = center-block-text style = ""font-size:16px; line-height:80%;"">high: M Key | low: Z Key</p><p class = center-block-text style = ""font-size:16px; line-height:80%;"">Bottom 2 quadrants: Judge number on parity</p><p class = center-block-text style = ""font-size:16px; line-height:80%;"">even: M Key | odd: Z Key</p></div>",,,,87968,0.0,practice-stop-feedback,4,poldrack-single-stim,,
5,,,,,,,,500.0,,,,,,stop_signal_with_predictable_task_switching,,,,,,0.0-0.0-5.0,-1.0,,,,none,,,,-1,500.0,<div class = bigbox><div class = quad_box><div class = decision-top-left><div class = fixation>+</div></div></div></div>,,,,88477,0.0,practice_fixation,5,poldrack-single-stim,,
6,350.0,350.0,350.0,500.0,<div class = bigbox><div class = quad_box><div class = decision-top-left><img class = center src='/static/experiments/stop_signal_with_predictable_task_switching/images/stopSignal.png'></img></div></div></div>,go,,2000.0,,77.0,1.0,0.0,2.0,stop_signal_with_predictable_task_switching,,,,,,0.0-0.0-6.0,77.0,high,8.0,even,"[77, 90]",switch,magnitude,,840,1000.0,<div class = bigbox><div class = quad_box><div class = decision-top-left><div class = gng_number><div class = cue-text><img class = center src='/static/experiments/stop_signal_with_predictable_task_switching/images/8.png'></img></div></div></div></div></div>,,go,,90482,0.0,practice_trial,6,stop-signal,,1.0
7,,,,,,,,500.0,,,,,,stop_signal_with_predictable_task_switching,,,,,,0.0-0.0-7.0,-1.0,,,,none,,,,-1,500.0,"<div class = fb_box><div class = center-text><font size = 20>Correct!</font></div></div><div class = prompt_box><p class = center-block-text style = ""font-size:16px; line-height:80%;"">Do not respond if a star appears!</p><p class = center-block-text style = ""font-size:16px; line-height:80%;"">Top 2 quadrants: Judge number on magnitude</p><p class = center-block-text style = ""font-size:16px; line-height:80%;"">high: M Key | low: Z Key</p><p class = center-block-text style = ""font-size:16px; line-height:80%;"">Bottom 2 quadrants: Judge number on parity</p><p class = center-block-text style = ""font-size:16px; line-height:80%;"">even: M Key | odd: Z Key</p></div>",,,,90994,0.0,practice-stop-feedback,7,poldrack-single-stim,,
8,,,,,,,,500.0,,,,,,stop_signal_with_predictable_task_switching,,,,,,0.0-0.0-8.0,-1.0,,,,none,,,,-1,500.0,<div class = bigbox><div class = quad_box><div class = decision-top-right><div class = fixation>+</div></div></div></div>,,,,91503,0.0,practice_fixation,8,poldrack-single-stim,,
9,350.0,350.0,350.0,500.0,<div class = bigbox><div class = quad_box><div class = decision-top-right><img class = center src='/static/experiments/stop_signal_with_predictable_task_switching/images/stopSignal.png'></img></div></div></div>,stop,,2000.0,,-1.0,0.0,0.0,3.0,stop_signal_with_predictable_task_switching,,,,,,0.0-0.0-9.0,77.0,high,6.0,even,"[77, 90]",stay,magnitude,,890,1000.0,<div class = bigbox><div class = quad_box><div class = decision-top-right><div class = gng_number><div class = cue-text><img class = center src='/static/experiments/stop_signal_with_predictable_task_switching/images/6.png'></img></div></div></div></div></div>,0.0,stop,,93526,0.0,practice_trial,9,stop-signal,,2.0
10,,,,,,,,500.0,,,,,,stop_signal_with_predictable_task_switching,,,,,,0.0-0.0-10.0,-1.0,,,,none,,,,-1,500.0,"<div class = fb_box><div class = center-text><font size = 20>There was a star.</font></div></div><div class = prompt_box><p class = center-block-text style = ""font-size:16px; line-height:80%;"">Do not respond if a star appears!</p><p class = center-block-text style = ""font-size:16px; line-height:80%;"">Top 2 quadrants: Judge number on magnitude</p><p class = center-block-text style = ""font-size:16px; line-height:80%;"">high: M Key | low: Z Key</p><p class = center-block-text style = ""font-size:16px; line-height:80%;"">Bottom 2 quadrants: Judge number on parity</p><p class = center-block-text style = ""font-size:16px; line-height:80%;"">even: M Key | odd: Z Key</p></div>",,,,94058,0.0,practice-stop-feedback,10,poldrack-single-stim,,
11,,,,,,,,500.0,,,,,,stop_signal_with_predictable_task_switching,,,,,,0.0-0.0-11.0,-1.0,,,,none,,,,-1,500.0,<div class = bigbox><div class = quad_box><div class = decision-bottom-right><div class = fixation>+</div></div></div></div>,,,,94565,0.0,practice_fixation,11,poldrack-single-stim,,
12,300.0,350.0,350.0,500.0,<div class = bigbox><div class = quad_box><div class = decision-bottom-right><img class = center src='/static/experiments/stop_signal_with_predictable_task_switching/images/stopSignal.png'></img></div></div></div>,stop,,2000.0,,-1.0,1.0,0.0,4.0,stop_signal_with_predictable_task_switching,,,,,,0.0-0.0-12.0,-1.0,high,8.0,even,"[77, 90]",switch,parity,,-1,1000.0,<div class = bigbox><div class = quad_box><div class = decision-bottom-right><div class = gng_number><div class = cue-text><img class = center src='/static/experiments/stop_signal_with_predictable_task_switching/images/8.png'></img></div></div></div></div></div>,1.0,stop,,96582,0.0,practice_trial,12,stop-signal,,3.0
13,,,,,,,,500.0,,,,,,stop_signal_with_predictable_task_switching,,,,,,0.0-0.0-13.0,-1.0,,,,none,,,,-1,500.0,"<div class = fb_box><div class = center-text><font size = 20>Correct!</font></div></div><div class = prompt_box><p class = center-block-text style = ""font-size:16px; line-height:80%;"">Do not respond if a star appears!</p><p class = center-block-text style = ""font-size:16px; line-height:80%;"">Top 2 quadrants: Judge number on magnitude</p><p class = center-block-text style = ""font-size:16px; line-height:80%;"">high: M Key | low: Z Key</p><p class = center-block-text style = ""font-size:16px; line-height:80%;"">Bottom 2 quadrants: Judge number on parity</p><p class = center-block-text style = ""font-size:16px; line-height:80%;"">even: M Key | odd: Z Key</p></div>",,,,97100,0.0,practice-stop-feedback,13,poldrack-single-stim,,
14,,,,,,,,500.0,,,,,,stop_signal_with_predictable_task_switching,,,,,,0.0-0.0-14.0,-1.0,,,,none,,,,-1,500.0,<div class = bigbox><div class = quad_box><div class = decision-bottom-left><div class = fixation>+</div></div></div></div>,,,,97611,0.0,practice_fixation,14,poldrack-single-stim,,
15,300.0,400.0,300.0,500.0,<div class = bigbox><div class = quad_box><div class = decision-bottom-left><img class = center src='/static/experiments/stop_signal_with_predictable_task_switching/images/stopSignal.png'></img></div></div></div>,stop,,2000.0,,-1.0,0.0,0.0,5.0,stop_signal_with_predictable_task_switching,,,,,,0.0-0.0-15.0,90.0,low,1.0,odd,"[77, 90]",stay,parity,,542,1000.0,<div class = bigbox><div class = quad_box><div class = decision-bottom-left><div class = gng_number><div class = cue-text><img class = center src='/static/experiments/stop_signal_with_predictable_task_switching/images/1.png'></img></div></div></div></div></div>,0.0,stop,,99621,0.0,practice_trial,15,stop-signal,,4.0
16,,,,,,,,500.0,,,,,,stop_signal_with_predictable_task_switching,,,,,,0.0-0.0-16.0,-1.0,,,,none,,,,-1,500.0,"<div class = fb_box><div class = center-text><font size = 20>There was a star.</font></div></div><div class = prompt_box><p class = center-block-text style = ""font-size:16px; line-height:80%;"">Do not respond if a star appears!</p><p class = center-block-text style = ""font-size:16px; line-height:80%;"">Top 2 quadrants: Judge number on magnitude</p><p class = center-block-text style = ""font-size:16px; line-height:80%;"">high: M Key | low: Z Key</p><p class = center-block-text style = ""font-size:16px; line-height:80%;"">Bottom 2 quadrants: Judge number on parity</p><p class = center-block-text style = ""font-size:16px; line-height:80%;"">even: M Key | odd: Z Key</p></div>",,,,100130,0.0,practice-stop-feedback,16,poldrack-single-stim,,
17,,,,,,,,500.0,,,,,,stop_signal_with_predictable_task_switching,,,,,,0.0-0.0-17.0,-1.0,,,,none,,,,-1,500.0,<div class = bigbox><div class = quad_box><div class = decision-top-left><div class = fixation>+</div></div></div></div>,,,,100642,0.0,practice_fixation,17,poldrack-single-stim,,
18,250.0,400.0,400.0,500.0,<div class = bigbox><div class = quad_box><div class = decision-top-left><img class = center src='/static/experiments/stop_signal_with_predictable_task_switching/images/stopSignal.png'></img></div></div></div>,go,,2000.0,,90.0,0.0,0.0,6.0,stop_signal_with_predictable_task_switching,,,,,,0.0-0.0-18.0,77.0,low,2.0,even,"[77, 90]",switch,magnitude,,834,1000.0,<div class = bigbox><div class = quad_box><div class = decision-top-left><div class = gng_number><div class = cue-text><img class = center src='/static/experiments/stop_signal_with_predictable_task_switching/images/2.png'></img></div></div></div></div></div>,,go,,102663,0.0,practice_trial,18,stop-signal,,1.0
19,,,,,,,,500.0,,,,,,stop_signal_with_predictable_task_switching,,,,,,0.0-0.0-19.0,-1.0,,,,none,,,,-1,500.0,"<div class = fb_box><div class = center-text><font size = 20>Incorrect</font></div></div><div class = prompt_box><p class = center-block-text style = ""font-size:16px; line-height:80%;"">Do not respond if a star appears!</p><p class = center-block-text style = ""font-size:16px; line-height:80%;"">Top 2 quadrants: Judge number on magnitude</p><p class = center-block-text style = ""font-size:16px; line-height:80%;"">high: M Key | low: Z Key</p><p class = center-block-text style = ""font-size:16px; line-height:80%;"">Bottom 2 quadrants: Judge number on parity</p><p class = center-block-text style = ""font-size:16px; line-height:80%;"">even: M Key | odd: Z Key</p></div>",,,,103170,0.0,practice-stop-feedback,19,poldrack-single-stim,,
20,,,,,,,,500.0,,,,,,stop_signal_with_predictable_task_switching,,,,,,0.0-0.0-20.0,-1.0,,,,none,,,,-1,500.0,<div class = bigbox><div class = quad_box><div class = decision-top-right><div class = fixation>+</div></div></div></div>,,,,103677,0.0,practice_fixation,20,poldrack-single-stim,,
21,250.0,400.0,250.0,500.0,<div class = bigbox><div class = quad_box><div class = decision-top-right><img class = center src='/static/experiments/stop_signal_with_predictable_task_switching/images/stopSignal.png'></img></div></div></div>,go,,2000.0,,77.0,0.0,0.0,7.0,stop_signal_with_predictable_task_switching,,,,,,0.0-0.0-21.0,-1.0,high,9.0,odd,"[77, 90]",stay,magnitude,,-1,1000.0,<div class = bigbox><div class = quad_box><div class = decision-top-right><div class = gng_number><div class = cue-text><img class = center src='/static/experiments/stop_signal_with_predictable_task_switching/images/9.png'></img></div></div></div></div></div>,,go,,105686,0.0,practice_trial,21,stop-signal,,2.0
22,,,,,,,,500.0,,,,,,stop_signal_with_predictable_task_switching,,,,,,0.0-0.0-22.0,-1.0,,,,none,,,,-1,500.0,"<div class = fb_box><div class = center-text><font size = 20>Respond Faster!</font></div></div><div class = prompt_box><p class = center-block-text style = ""font-size:16px; line-height:80%;"">Do not respond if a star appears!</p><p class = center-block-text style = ""font-size:16px; line-height:80%;"">Top 2 quadrants: Judge number on magnitude</p><p class = center-block-text style = ""font-size:16px; line-height:80%;"">high: M Key | low: Z Key</p><p class = center-block-text style = ""font-size:16px; line-height:80%;"">Bottom 2 quadrants: Judge number on parity</p><p class = center-block-text style = ""font-size:16px; line-height:80%;"">even: M Key | odd: Z Key</p></div>",,,,106215,0.0,practice-stop-feedback,22,poldrack-single-stim,,
23,,,,,,,,500.0,,,,,,stop_signal_with_predictable_task_switching,,,,,,0.0-0.0-23.0,-1.0,,,,none,,,,-1,500.0,<div class = bigbox><div class = quad_box><div class = decision-bottom-right><div class = fixation>+</div></div></div></div>,,,,106724,0.0,practice_fixation,23,poldrack-single-stim,,
24,250.0,400.0,400.0,500.0,<div class = bigbox><div class = quad_box><div class = decision-bottom-right><img class = center src='/static/experiments/stop_signal_with_predictable_task_switching/images/stopSignal.png'></img></div></div></div>,go,,2000.0,,90.0,1.0,0.0,8.0,stop_signal_with_predictable_task_switching,,,,,,0.0-0.0-24.0,90.0,high,9.0,odd,"[77, 90]",switch,parity,,857,1000.0,<div class = bigbox><div class = quad_box><div class = decision-bottom-right><div class = gng_number><div class = cue-text><img class = center src='/static/experiments/stop_signal_with_predictable_task_switching/images/9.png'></img></div></div></div></div></div>,,go,,108733,0.0,practice_trial,24,stop-signal,,3.0
25,,,,,,,,500.0,,,,,,stop_signal_with_predictable_task_switching,,,,,,0.0-0.0-25.0,-1.0,,,,none,,,,-1,500.0,"<div class = fb_box><div class = center-text><font size = 20>Correct!</font></div></div><div class = prompt_box><p class = center-block-text style = ""font-size:16px; line-height:80%;"">Do not respond if a star appears!</p><p class = center-block-text style = ""font-size:16px; line-height:80%;"">Top 2 quadrants: Judge number on magnitude</p><p class = center-block-text style = ""font-size:16px; line-height:80%;"">high: M Key | low: Z Key</p><p class = center-block-text style = ""font-size:16px; line-height:80%;"">Bottom 2 quadrants: Judge number on parity</p><p class = center-block-text style = ""font-size:16px; line-height:80%;"">even: M Key | odd: Z Key</p></div>",,,,109255,0.0,practice-stop-feedback,25,poldrack-single-stim,,
26,,,,,,,,500.0,,,,,,stop_signal_with_predictable_task_switching,,,,,,0.0-0.0-26.0,-1.0,,,,none,,,,-1,500.0,<div class = bigbox><div class = quad_box><div class = decision-bottom-left><div class = fixation>+</div></div></div></div>,,,,109763,0.0,practice_fixation,26,poldrack-single-stim,,
27,250.0,400.0,250.0,500.0,<div class = bigbox><div class = quad_box><div class = decision-bottom-left><img class = center src='/static/experiments/stop_signal_with_predictable_task_switching/images/stopSignal.png'></img></div></div></div>,go,,2000.0,,90.0,1.0,0.0,9.0,stop_signal_with_predictable_task_switching,,,,,,0.0-0.0-27.0,90.0,high,7.0,odd,"[77, 90]",stay,parity,,578,1000.0,<div class = bigbox><div class = quad_box><div class = decision-bottom-left><div class = gng_number><div class = cue-text><img class = center src='/static/experiments/stop_signal_with_predictable_task_switching/images/7.png'></img></div></div></div></div></div>,,go,,111782,0.0,practice_trial,27,stop-signal,,4.0
28,,,,,,,,500.0,,,,,,stop_signal_with_predictable_task_switching,,,,,,0.0-0.0-28.0,-1.0,,,,none,,,,-1,500.0,"<div class = fb_box><div class = center-text><font size = 20>Correct!</font></div></div><div class = prompt_box><p class = center-block-text style = ""font-size:16px; line-height:80%;"">Do not respond if a star appears!</p><p class = center-block-text style = ""font-size:16px; line-height:80%;"">Top 2 quadrants: Judge number on magnitude</p><p class = center-block-text style = ""font-size:16px; line-height:80%;"">high: M Key | low: Z Key</p><p class = center-block-text style = ""font-size:16px; line-height:80%;"">Bottom 2 quadrants: Judge number on parity</p><p class = center-block-text style = ""font-size:16px; line-height:80%;"">even: M Key | odd: Z Key</p></div>",,,,112292,0.0,practice-stop-feedback,28,poldrack-single-stim,,
29,,,,,,,,500.0,,,,,,stop_signal_with_predictable_task_switching,,,,,,0.0-0.0-29.0,-1.0,,,,none,,,,-1,500.0,<div class = bigbox><div class = quad_box><div class = decision-top-left><div class = fixation>+</div></div></div></div>,,,,112809,0.0,practice_fixation,29,poldrack-single-stim,,
30,250.0,400.0,400.0,500.0,<div class = bigbox><div class = quad_box><div class = decision-top-left><img class = center src='/static/experiments/stop_signal_with_predictable_task_switching/images/stopSignal.png'></img></div></div></div>,stop,,2000.0,,-1.0,0.0,0.0,10.0,stop_signal_with_predictable_task_switching,,,,,,0.0-0.0-30.0,77.0,high,7.0,odd,"[77, 90]",switch,magnitude,,628,1000.0,<div class = bigbox><div class = quad_box><div class = decision-top-left><div class = gng_number><div class = cue-text><img class = center src='/static/experiments/stop_signal_with_predictable_task_switching/images/7.png'></img></div></div></div></div></div>,0.0,stop,,114820,0.0,practice_trial,30,stop-signal,,1.0
31,,,,,,,,500.0,,,,,,stop_signal_with_predictable_task_switching,,,,,,0.0-0.0-31.0,-1.0,,,,none,,,,-1,500.0,"<div class = fb_box><div class = center-text><font size = 20>There was a star.</font></div></div><div class = prompt_box><p class = center-block-text style = ""font-size:16px; line-height:80%;"">Do not respond if a star appears!</p><p class = center-block-text style = ""font-size:16px; line-height:80%;"">Top 2 quadrants: Judge number on magnitude</p><p class = center-block-text style = ""font-size:16px; line-height:80%;"">high: M Key | low: Z Key</p><p class = center-block-text style = ""font-size:16px; line-height:80%;"">Bottom 2 quadrants: Judge number on parity</p><p class = center-block-text style = ""font-size:16px; line-height:80%;"">even: M Key | odd: Z Key</p></div>",,,,115329,0.0,practice-stop-feedback,31,poldrack-single-stim,,
32,,,,,,,,500.0,,,,,,stop_signal_with_predictable_task_switching,,,,,,0.0-0.0-32.0,-1.0,,,,none,,,,-1,500.0,<div class = bigbox><div class = quad_box><div class = decision-top-right><div class = fixation>+</div></div></div></div>,,,,115838,0.0,practice_fixation,32,poldrack-single-stim,,
33,250.0,350.0,250.0,500.0,<div class = bigbox><div class = quad_box><div class = decision-top-right><img class = center src='/static/experiments/stop_signal_with_predictable_task_switching/images/stopSignal.png'></img></div></div></div>,stop,,2000.0,,-1.0,1.0,0.0,11.0,stop_signal_with_predictable_task_switching,,,,,,0.0-0.0-33.0,-1.0,low,4.0,even,"[77, 90]",stay,magnitude,,-1,1000.0,<div class = bigbox><div class = quad_box><div class = decision-top-right><div class = gng_number><div class = cue-text><img class = center src='/static/experiments/stop_signal_with_predictable_task_switching/images/4.png'></img></div></div></div></div></div>,1.0,stop,,117846,0.0,practice_trial,33,stop-signal,,2.0
34,,,,,,,,500.0,,,,,,stop_signal_with_predictable_task_switching,,,,,,0.0-0.0-34.0,-1.0,,,,none,,,,-1,500.0,"<div class = fb_box><div class = center-text><font size = 20>Correct!</font></div></div><div class = prompt_box><p class = center-block-text style = ""font-size:16px; line-height:80%;"">Do not respond if a star appears!</p><p class = center-block-text style = ""font-size:16px; line-height:80%;"">Top 2 quadrants: Judge number on magnitude</p><p class = center-block-text style = ""font-size:16px; line-height:80%;"">high: M Key | low: Z Key</p><p class = center-block-text style = ""font-size:16px; line-height:80%;"">Bottom 2 quadrants: Judge number on parity</p><p class = center-block-text style = ""font-size:16px; line-height:80%;"">even: M Key | odd: Z Key</p></div>",,,,118352,0.0,practice-stop-feedback,34,poldrack-single-stim,,
35,,,,,,,,500.0,,,,,,stop_signal_with_predictable_task_switching,,,,,,0.0-0.0-35.0,-1.0,,,,none,,,,-1,500.0,<div class = bigbox><div class = quad_box><div class = decision-bottom-right><div class = fixation>+</div></div></div></div>,,,,118858,0.0,practice_fixation,35,poldrack-single-stim,,
36,300.0,350.0,350.0,500.0,<div class = bigbox><div class = quad_box><div class = decision-bottom-right><img class = center src='/static/experiments/stop_signal_with_predictable_task_switching/images/stopSignal.png'></img></div></div></div>,go,,2000.0,,77.0,0.0,0.0,12.0,stop_signal_with_predictable_task_switching,,,,,,0.0-0.0-36.0,90.0,low,2.0,even,"[77, 90]",switch,parity,,594,1000.0,<div class = bigbox><div class = quad_box><div class = decision-bottom-right><div class = gng_number><div class = cue-text><img class = center src='/static/experiments/stop_signal_with_predictable_task_switching/images/2.png'></img></div></div></div></div></div>,,go,,120881,0.0,practice_trial,36,stop-signal,,3.0
37,,,,,,,,500.0,,,,,,stop_signal_with_predictable_task_switching,,,,,,0.0-0.0-37.0,-1.0,,,,none,,,,-1,500.0,"<div class = fb_box><div class = center-text><font size = 20>Incorrect</font></div></div><div class = prompt_box><p class = center-block-text style = ""font-size:16px; line-height:80%;"">Do not respond if a star appears!</p><p class = center-block-text style = ""font-size:16px; line-height:80%;"">Top 2 quadrants: Judge number on magnitude</p><p class = center-block-text style = ""font-size:16px; line-height:80%;"">high: M Key | low: Z Key</p><p class = center-block-text style = ""font-size:16px; line-height:80%;"">Bottom 2 quadrants: Judge number on parity</p><p class = center-block-text style = ""font-size:16px; line-height:80%;"">even: M Key | odd: Z Key</p></div>",,,,121396,0.0,practice-stop-feedback,37,poldrack-single-stim,,
38,,,,,,,,500.0,,,,,,stop_signal_with_predictable_task_switching,,,,,,0.0-0.0-38.0,-1.0,,,,none,,,,-1,500.0,<div class = bigbox><div class = quad_box><div class = decision-bottom-left><div class = fixation>+</div></div></div></div>,,,,121903,0.0,practice_fixation,38,poldrack-single-stim,,
39,300.0,350.0,300.0,500.0,<div class = bigbox><div class = quad_box><div class = decision-bottom-left><img class = center src='/static/experiments/stop_signal_with_predictable_task_switching/images/stopSignal.png'></img></div></div></div>,go,,2000.0,,77.0,1.0,0.0,13.0,stop_signal_with_predictable_task_switching,,,,,,0.0-0.0-39.0,77.0,high,6.0,even,"[77, 90]",stay,parity,,470,1000.0,<div class = bigbox><div class = quad_box><div class = decision-bottom-left><div class = gng_number><div class = cue-text><img class = center src='/static/experiments/stop_signal_with_predictable_task_switching/images/6.png'></img></div></div></div></div></div>,,go,,123913,0.0,practice_trial,39,stop-signal,,4.0
40,,,,,,,,500.0,,,,,,stop_signal_with_predictable_task_switching,,,,,,0.0-0.0-40.0,-1.0,,,,none,,,,-1,500.0,"<div class = fb_box><div class = center-text><font size = 20>Correct!</font></div></div><div class = prompt_box><p class = center-block-text style = ""font-size:16px; line-height:80%;"">Do not respond if a star appears!</p><p class = center-block-text style = ""font-size:16px; line-height:80%;"">Top 2 quadrants: Judge number on magnitude</p><p class = center-block-text style = ""font-size:16px; line-height:80%;"">high: M Key | low: Z Key</p><p class = center-block-text style = ""font-size:16px; line-height:80%;"">Bottom 2 quadrants: Judge number on parity</p><p class = center-block-text style = ""font-size:16px; line-height:80%;"">even: M Key | odd: Z Key</p></div>",,,,124422,0.0,practice-stop-feedback,40,poldrack-single-stim,,
41,,,,,,,,500.0,,,,,,stop_signal_with_predictable_task_switching,,,,,,0.0-0.0-41.0,-1.0,,,,none,,,,-1,500.0,<div class = bigbox><div class = quad_box><div class = decision-top-left><div class = fixation>+</div></div></div></div>,,,,124928,0.0,practice_fixation,41,poldrack-single-stim,,
42,300.0,350.0,350.0,500.0,<div class = bigbox><div class = quad_box><div class = decision-top-left><img class = center src='/static/experiments/stop_signal_with_predictable_task_switching/images/stopSignal.png'></img></div></div></div>,go,,2000.0,,77.0,0.0,0.0,14.0,stop_signal_with_predictable_task_switching,,,,,,0.0-0.0-42.0,90.0,high,9.0,odd,"[77, 90]",switch,magnitude,,767,1000.0,<div class = bigbox><div class = quad_box><div class = decision-top-left><div class = gng_number><div class = cue-text><img class = center src='/static/experiments/stop_signal_with_predictable_task_switching/images/9.png'></img></div></div></div></div></div>,,go,,126939,0.0,practice_trial,42,stop-signal,,1.0
43,,,,,,,,500.0,,,,,,stop_signal_with_predictable_task_switching,,,,,,0.0-0.0-43.0,-1.0,,,,none,,,,-1,500.0,"<div class = fb_box><div class = center-text><font size = 20>Incorrect</font></div></div><div class = prompt_box><p class = center-block-text style = ""font-size:16px; line-height:80%;"">Do not respond if a star appears!</p><p class = center-block-text style = ""font-size:16px; line-height:80%;"">Top 2 quadrants: Judge number on magnitude</p><p class = center-block-text style = ""font-size:16px; line-height:80%;"">high: M Key | low: Z Key</p><p class = center-block-text style = ""font-size:16px; line-height:80%;"">Bottom 2 quadrants: Judge number on parity</p><p class = center-block-text style = ""font-size:16px; line-height:80%;"">even: M Key | odd: Z Key</p></div>",,,,127448,0.0,practice-stop-feedback,43,poldrack-single-stim,,
44,,,,,,,,500.0,,,,,,stop_signal_with_predictable_task_switching,,,,,,0.0-0.0-44.0,-1.0,,,,none,,,,-1,500.0,<div class = bigbox><div class = quad_box><div class = decision-top-right><div class = fixation>+</div></div></div></div>,,,,127973,0.0,practice_fixation,44,poldrack-single-stim,,
45,300.0,350.0,300.0,500.0,<div class = bigbox><div class = quad_box><div class = decision-top-right><img class = center src='/static/experiments/stop_signal_with_predictable_task_switching/images/stopSignal.png'></img></div></div></div>,go,,2000.0,,90.0,1.0,0.0,15.0,stop_signal_with_predictable_task_switching,,,,,,0.0-0.0-45.0,90.0,low,1.0,odd,"[77, 90]",stay,magnitude,,507,1000.0,<div class = bigbox><div class = quad_box><div class = decision-top-right><div class = gng_number><div class = cue-text><img class = center src='/static/experiments/stop_signal_with_predictable_task_switching/images/1.png'></img></div></div></div></div></div>,,go,,129981,0.0,practice_trial,45,stop-signal,,2.0
46,,,,,,,,500.0,,,,,,stop_signal_with_predictable_task_switching,,,,,,0.0-0.0-46.0,-1.0,,,,none,,,,-1,500.0,"<div class = fb_box><div class = center-text><font size = 20>Correct!</font></div></div><div class = prompt_box><p class = center-block-text style = ""font-size:16px; line-height:80%;"">Do not respond if a star appears!</p><p class = center-block-text style = ""font-size:16px; line-height:80%;"">Top 2 quadrants: Judge number on magnitude</p><p class = center-block-text style = ""font-size:16px; line-height:80%;"">high: M Key | low: Z Key</p><p class = center-block-text style = ""font-size:16px; line-height:80%;"">Bottom 2 quadrants: Judge number on parity</p><p class = center-block-text style = ""font-size:16px; line-height:80%;"">even: M Key | odd: Z Key</p></div>",,,,130489,0.0,practice-stop-feedback,46,poldrack-single-stim,,
47,,,,,,,,500.0,,,,,,stop_signal_with_predictable_task_switching,,,,,,0.0-0.0-47.0,-1.0,,,,none,,,,-1,500.0,<div class = bigbox><div class = quad_box><div class = decision-bottom-right><div class = fixation>+</div></div></div></div>,,,,130998,0.0,practice_fixation,47,poldrack-single-stim,,
48,300.0,350.0,350.0,500.0,<div class = bigbox><div class = quad_box><div class = decision-bottom-right><img class = center src='/static/experiments/stop_signal_with_predictable_task_switching/images/stopSignal.png'></img></div></div></div>,go,,2000.0,,90.0,1.0,0.0,16.0,stop_signal_with_predictable_task_switching,,,,,,0.0-0.0-48.0,90.0,high,9.0,odd,"[77, 90]",switch,parity,,537,1000.0,<div class = bigbox><div class = quad_box><div class = decision-bottom-right><div class = gng_number><div class = cue-text><img class = center src='/static/experiments/stop_signal_with_predictable_task_switching/images/9.png'></img></div></div></div></div></div>,,go,,133006,0.0,practice_trial,48,stop-signal,,3.0
49,,,,,,,,500.0,,,,,,stop_signal_with_predictable_task_switching,,,,,,0.0-0.0-49.0,-1.0,,,,none,,,,-1,500.0,"<div class = fb_box><div class = center-text><font size = 20>Correct!</font></div></div><div class = prompt_box><p class = center-block-text style = ""font-size:16px; line-height:80%;"">Do not respond if a star appears!</p><p class = center-block-text style = ""font-size:16px; line-height:80%;"">Top 2 quadrants: Judge number on magnitude</p><p class = center-block-text style = ""font-size:16px; line-height:80%;"">high: M Key | low: Z Key</p><p class = center-block-text style = ""font-size:16px; line-height:80%;"">Bottom 2 quadrants: Judge number on parity</p><p class = center-block-text style = ""font-size:16px; line-height:80%;"">even: M Key | odd: Z Key</p></div>",,,,133518,0.0,practice-stop-feedback,49,poldrack-single-stim,,
50,,,,,,,,500.0,,,,,,stop_signal_with_predictable_task_switching,,,,,,0.0-0.0-50.0,-1.0,,,,none,,,,-1,500.0,<div class = bigbox><div class = quad_box><div class = decision-bottom-left><div class = fixation>+</div></div></div></div>,,,,134026,0.0,practice_fixation,50,poldrack-single-stim,,
51,300.0,350.0,300.0,500.0,<div class = bigbox><div class = quad_box><div class = decision-bottom-left><img class = center src='/static/experiments/stop_signal_with_predictable_task_switching/images/stopSignal.png'></img></div></div></div>,go,,2000.0,,90.0,1.0,0.0,17.0,stop_signal_with_predictable_task_switching,,,,,,0.0-0.0-51.0,90.0,high,7.0,odd,"[77, 90]",stay,parity,,822,1000.0,<div class = bigbox><div class = quad_box><div class = decision-bottom-left><div class = gng_number><div class = cue-text><img class = center src='/static/experiments/stop_signal_with_predictable_task_switching/images/7.png'></img></div></div></div></div></div>,,go,,136036,0.0,practice_trial,51,stop-signal,,4.0
52,,,,,,,,500.0,,,,,,stop_signal_with_predictable_task_switching,,,,,,0.0-0.0-52.0,-1.0,,,,none,,,,-1,500.0,"<div class = fb_box><div class = center-text><font size = 20>Correct!</font></div></div><div class = prompt_box><p class = center-block-text style = ""font-size:16px; line-height:80%;"">Do not respond if a star appears!</p><p class = center-block-text style = ""font-size:16px; line-height:80%;"">Top 2 quadrants: Judge number on magnitude</p><p class = center-block-text style = ""font-size:16px; line-height:80%;"">high: M Key | low: Z Key</p><p class = center-block-text style = ""font-size:16px; line-height:80%;"">Bottom 2 quadrants: Judge number on parity</p><p class = center-block-text style = ""font-size:16px; line-height:80%;"">even: M Key | odd: Z Key</p></div>",,,,136546,0.0,practice-stop-feedback,52,poldrack-single-stim,,
53,,,,,,,,500.0,,,,,,stop_signal_with_predictable_task_switching,,,,,,0.0-0.0-53.0,-1.0,,,,none,,,,-1,500.0,<div class = bigbox><div class = quad_box><div class = decision-top-left><div class = fixation>+</div></div></div></div>,,,,137062,0.0,practice_fixation,53,poldrack-single-stim,,
54,300.0,350.0,350.0,500.0,<div class = bigbox><div class = quad_box><div class = decision-top-left><img class = center src='/static/experiments/stop_signal_with_predictable_task_switching/images/stopSignal.png'></img></div></div></div>,stop,,2000.0,,-1.0,0.0,0.0,18.0,stop_signal_with_predictable_task_switching,,,,,,0.0-0.0-54.0,77.0,high,8.0,even,"[77, 90]",switch,magnitude,,514,1000.0,<div class = bigbox><div class = quad_box><div class = decision-top-left><div class = gng_number><div class = cue-text><img class = center src='/static/experiments/stop_signal_with_predictable_task_switching/images/8.png'></img></div></div></div></div></div>,0.0,stop,,139086,0.0,practice_trial,54,stop-signal,,1.0
55,,,,,,,,500.0,,,,,,stop_signal_with_predictable_task_switching,,,,,,0.0-0.0-55.0,-1.0,,,,none,,,,-1,500.0,"<div class = fb_box><div class = center-text><font size = 20>There was a star.</font></div></div><div class = prompt_box><p class = center-block-text style = ""font-size:16px; line-height:80%;"">Do not respond if a star appears!</p><p class = center-block-text style = ""font-size:16px; line-height:80%;"">Top 2 quadrants: Judge number on magnitude</p><p class = center-block-text style = ""font-size:16px; line-height:80%;"">high: M Key | low: Z Key</p><p class = center-block-text style = ""font-size:16px; line-height:80%;"">Bottom 2 quadrants: Judge number on parity</p><p class = center-block-text style = ""font-size:16px; line-height:80%;"">even: M Key | odd: Z Key</p></div>",,,,139594,0.0,practice-stop-feedback,55,poldrack-single-stim,,
56,,,,,,,,500.0,,,,,,stop_signal_with_predictable_task_switching,,,,,,0.0-0.0-56.0,-1.0,,,,none,,,,-1,500.0,<div class = bigbox><div class = quad_box><div class = decision-top-right><div class = fixation>+</div></div></div></div>,,,,140098,0.0,practice_fixation,56,poldrack-single-stim,,
57,300.0,300.0,300.0,500.0,<div class = bigbox><div class = quad_box><div class = decision-top-right><img class = center src='/static/experiments/stop_signal_with_predictable_task_switching/images/stopSignal.png'></img></div></div></div>,go,,2000.0,,77.0,1.0,0.0,19.0,stop_signal_with_predictable_task_switching,,,,,,0.0-0.0-57.0,77.0,high,6.0,even,"[77, 90]",stay,magnitude,,572,1000.0,<div class = bigbox><div class = quad_box><div class = decision-top-right><div class = gng_number><div class = cue-text><img class = center src='/static/experiments/stop_signal_with_predictable_task_switching/images/6.png'></img></div></div></div></div></div>,,go,,142106,0.0,practice_trial,57,stop-signal,,2.0
58,,,,,,,,500.0,,,,,,stop_signal_with_predictable_task_switching,,,,,,0.0-0.0-58.0,-1.0,,,,none,,,,-1,500.0,"<div class = fb_box><div class = center-text><font size = 20>Correct!</font></div></div><div class = prompt_box><p class = center-block-text style = ""font-size:16px; line-height:80%;"">Do not respond if a star appears!</p><p class = center-block-text style = ""font-size:16px; line-height:80%;"">Top 2 quadrants: Judge number on magnitude</p><p class = center-block-text style = ""font-size:16px; line-height:80%;"">high: M Key | low: Z Key</p><p class = center-block-text style = ""font-size:16px; line-height:80%;"">Bottom 2 quadrants: Judge number on parity</p><p class = center-block-text style = ""font-size:16px; line-height:80%;"">even: M Key | odd: Z Key</p></div>",,,,142616,0.0,practice-stop-feedback,58,poldrack-single-stim,,
59,,,,,,,,500.0,,,,,,stop_signal_with_predictable_task_switching,,,,,,0.0-0.0-59.0,-1.0,,,,none,,,,-1,500.0,<div class = bigbox><div class = quad_box><div class = decision-bottom-right><div class = fixation>+</div></div></div></div>,,,,143135,0.0,practice_fixation,59,poldrack-single-stim,,
60,300.0,300.0,300.0,500.0,<div class = bigbox><div class = quad_box><div class = decision-bottom-right><img class = center src='/static/experiments/stop_signal_with_predictable_task_switching/images/stopSignal.png'></img></div></div></div>,go,,2000.0,,77.0,0.0,0.0,20.0,stop_signal_with_predictable_task_switching,,,,,,0.0-0.0-60.0,90.0,low,4.0,even,"[77, 90]",switch,parity,,762,1000.0,<div class = bigbox><div class = quad_box><div class = decision-bottom-right><div class = gng_number><div class = cue-text><img class = center src='/static/experiments/stop_signal_with_predictable_task_switching/images/4.png'></img></div></div></div></div></div>,,go,,145144,0.0,practice_trial,60,stop-signal,,3.0
61,,,,,,,,500.0,,,,,,stop_signal_with_predictable_task_switching,,,,,,0.0-0.0-61.0,-1.0,,,,none,,,,-1,500.0,"<div class = fb_box><div class = center-text><font size = 20>Incorrect</font></div></div><div class = prompt_box><p class = center-block-text style = ""font-size:16px; line-height:80%;"">Do not respond if a star appears!</p><p class = center-block-text style = ""font-size:16px; line-height:80%;"">Top 2 quadrants: Judge number on magnitude</p><p class = center-block-text style = ""font-size:16px; line-height:80%;"">high: M Key | low: Z Key</p><p class = center-block-text style = ""font-size:16px; line-height:80%;"">Bottom 2 quadrants: Judge number on parity</p><p class = center-block-text style = ""font-size:16px; line-height:80%;"">even: M Key | odd: Z Key</p></div>",,,,145652,0.0,practice-stop-feedback,61,poldrack-single-stim,,
62,,,,,,,,500.0,,,,,,stop_signal_with_predictable_task_switching,,,,,,0.0-0.0-62.0,-1.0,,,,none,,,,-1,500.0,<div class = bigbox><div class = quad_box><div class = decision-bottom-left><div class = fixation>+</div></div></div></div>,,,,146171,0.0,practice_fixation,62,poldrack-single-stim,,
63,300.0,300.0,300.0,500.0,<div class = bigbox><div class = quad_box><div class = decision-bottom-left><img class = center src='/static/experiments/stop_signal_with_predictable_task_switching/images/stopSignal.png'></img></div></div></div>,go,,2000.0,,90.0,1.0,0.0,21.0,stop_signal_with_predictable_task_switching,,,,,,0.0-0.0-63.0,90.0,high,9.0,odd,"[77, 90]",stay,parity,,557,1000.0,<div class = bigbox><div class = quad_box><div class = decision-bottom-left><div class = gng_number><div class = cue-text><img class = center src='/static/experiments/stop_signal_with_predictable_task_switching/images/9.png'></img></div></div></div></div></div>,,go,,148190,0.0,practice_trial,63,stop-signal,,4.0
64,,,,,,,,500.0,,,,,,stop_signal_with_predictable_task_switching,,,,,,0.0-0.0-64.0,-1.0,,,,none,,,,-1,500.0,"<div class = fb_box><div class = center-text><font size = 20>Correct!</font></div></div><div class = prompt_box><p class = center-block-text style = ""font-size:16px; line-height:80%;"">Do not respond if a star appears!</p><p class = center-block-text style = ""font-size:16px; line-height:80%;"">Top 2 quadrants: Judge number on magnitude</p><p class = center-block-text style = ""font-size:16px; line-height:80%;"">high: M Key | low: Z Key</p><p class = center-block-text style = ""font-size:16px; line-height:80%;"">Bottom 2 quadrants: Judge number on parity</p><p class = center-block-text style = ""font-size:16px; line-height:80%;"">even: M Key | odd: Z Key</p></div>",,,,148702,0.0,practice-stop-feedback,64,poldrack-single-stim,,
65,,,,,,,,500.0,,,,,,stop_signal_with_predictable_task_switching,,,,,,0.0-0.0-65.0,-1.0,,,,none,,,,-1,500.0,<div class = bigbox><div class = quad_box><div class = decision-top-left><div class = fixation>+</div></div></div></div>,,,,149210,0.0,practice_fixation,65,poldrack-single-stim,,
66,300.0,300.0,300.0,500.0,<div class = bigbox><div class = quad_box><div class = decision-top-left><img class = center src='/static/experiments/stop_signal_with_predictable_task_switching/images/stopSignal.png'></img></div></div></div>,go,,2000.0,,77.0,1.0,0.0,22.0,stop_signal_with_predictable_task_switching,,,,,,0.0-0.0-66.0,77.0,high,7.0,odd,"[77, 90]",switch,magnitude,,670,1000.0,<div class = bigbox><div class = quad_box><div class = decision-top-left><div class = gng_number><div class = cue-text><img class = center src='/static/experiments/stop_signal_with_predictable_task_switching/images/7.png'></img></div></div></div></div></div>,,go,,151219,0.0,practice_trial,66,stop-signal,,1.0
67,,,,,,,,500.0,,,,,,stop_signal_with_predictable_task_switching,,,,,,0.0-0.0-67.0,-1.0,,,,none,,,,-1,500.0,"<div class = fb_box><div class = center-text><font size = 20>Correct!</font></div></div><div class = prompt_box><p class = center-block-text style = ""font-size:16px; line-height:80%;"">Do not respond if a star appears!</p><p class = center-block-text style = ""font-size:16px; line-height:80%;"">Top 2 quadrants: Judge number on magnitude</p><p class = center-block-text style = ""font-size:16px; line-height:80%;"">high: M Key | low: Z Key</p><p class = center-block-text style = ""font-size:16px; line-height:80%;"">Bottom 2 quadrants: Judge number on parity</p><p class = center-block-text style = ""font-size:16px; line-height:80%;"">even: M Key | odd: Z Key</p></div>",,,,151725,0.0,practice-stop-feedback,67,poldrack-single-stim,,
68,,,,,,,,500.0,,,,,,stop_signal_with_predictable_task_switching,,,,,,0.0-0.0-68.0,-1.0,,,,none,,,,-1,500.0,<div class = bigbox><div class = quad_box><div class = decision-top-right><div class = fixation>+</div></div></div></div>,,,,152234,0.0,practice_fixation,68,poldrack-single-stim,,
69,300.0,300.0,300.0,500.0,<div class = bigbox><div class = quad_box><div class = decision-top-right><img class = center src='/static/experiments/stop_signal_with_predictable_task_switching/images/stopSignal.png'></img></div></div></div>,go,,2000.0,,77.0,1.0,0.0,23.0,stop_signal_with_predictable_task_switching,,,,,,0.0-0.0-69.0,77.0,high,6.0,even,"[77, 90]",stay,magnitude,,734,1000.0,<div class = bigbox><div class = quad_box><div class = decision-top-right><div class = gng_number><div class = cue-text><img class = center src='/static/experiments/stop_signal_with_predictable_task_switching/images/6.png'></img></div></div></div></div></div>,,go,,154242,0.0,practice_trial,69,stop-signal,,2.0
70,,,,,,,,500.0,,,,,,stop_signal_with_predictable_task_switching,,,,,,0.0-0.0-70.0,-1.0,,,,none,,,,-1,500.0,"<div class = fb_box><div class = center-text><font size = 20>Correct!</font></div></div><div class = prompt_box><p class = center-block-text style = ""font-size:16px; line-height:80%;"">Do not respond if a star appears!</p><p class = center-block-text style = ""font-size:16px; line-height:80%;"">Top 2 quadrants: Judge number on magnitude</p><p class = center-block-text style = ""font-size:16px; line-height:80%;"">high: M Key | low: Z Key</p><p class = center-block-text style = ""font-size:16px; line-height:80%;"">Bottom 2 quadrants: Judge number on parity</p><p class = center-block-text style = ""font-size:16px; line-height:80%;"">even: M Key | odd: Z Key</p></div>",,,,154750,0.0,practice-stop-feedback,70,poldrack-single-stim,,
71,,,,,,,,500.0,,,,,,stop_signal_with_predictable_task_switching,,,,,,0.0-0.0-71.0,-1.0,,,,none,,,,-1,500.0,<div class = bigbox><div class = quad_box><div class = decision-bottom-right><div class = fixation>+</div></div></div></div>,,,,155255,0.0,practice_fixation,71,poldrack-single-stim,,
72,300.0,300.0,300.0,500.0,<div class = bigbox><div class = quad_box><div class = decision-bottom-right><img class = center src='/static/experiments/stop_signal_with_predictable_task_switching/images/stopSignal.png'></img></div></div></div>,stop,,2000.0,,-1.0,0.0,0.0,24.0,stop_signal_with_predictable_task_switching,,,,,,0.0-0.0-72.0,90.0,low,3.0,odd,"[77, 90]",switch,parity,,725,1000.0,<div class = bigbox><div class = quad_box><div class = decision-bottom-right><div class = gng_number><div class = cue-text><img class = center src='/static/experiments/stop_signal_with_predictable_task_switching/images/3.png'></img></div></div></div></div></div>,0.0,stop,,157262,0.0,practice_trial,72,stop-signal,,3.0
73,,,,,,,,500.0,,,,,,stop_signal_with_predictable_task_switching,,,,,,0.0-0.0-73.0,-1.0,,,,none,,,,-1,500.0,"<div class = fb_box><div class = center-text><font size = 20>There was a star.</font></div></div><div class = prompt_box><p class = center-block-text style = ""font-size:16px; line-height:80%;"">Do not respond if a star appears!</p><p class = center-block-text style = ""font-size:16px; line-height:80%;"">Top 2 quadrants: Judge number on magnitude</p><p class = center-block-text style = ""font-size:16px; line-height:80%;"">high: M Key | low: Z Key</p><p class = center-block-text style = ""font-size:16px; line-height:80%;"">Bottom 2 quadrants: Judge number on parity</p><p class = center-block-text style = ""font-size:16px; line-height:80%;"">even: M Key | odd: Z Key</p></div>",,,,157770,0.0,practice-stop-feedback,73,poldrack-single-stim,,
74,,,,,,,,500.0,,,,,,stop_signal_with_predictable_task_switching,,,,,,0.0-0.0-74.0,-1.0,,,,none,,,,-1,500.0,<div class = bigbox><div class = quad_box><div class = decision-bottom-left><div class = fixation>+</div></div></div></div>,,,,158279,0.0,practice_fixation,74,poldrack-single-stim,,
75,300.0,250.0,300.0,500.0,<div class = bigbox><div class = quad_box><div class = decision-bottom-left><img class = center src='/static/experiments/stop_signal_with_predictable_task_switching/images/stopSignal.png'></img></div></div></div>,stop,,2000.0,,-1.0,1.0,0.0,25.0,stop_signal_with_predictable_task_switching,,,,,,0.0-0.0-75.0,-1.0,high,7.0,odd,"[77, 90]",stay,parity,,-1,1000.0,<div class = bigbox><div class = quad_box><div class = decision-bottom-left><div class = gng_number><div class = cue-text><img class = center src='/static/experiments/stop_signal_with_predictable_task_switching/images/7.png'></img></div></div></div></div></div>,1.0,stop,,160288,0.0,practice_trial,75,stop-signal,,4.0
76,,,,,,,,500.0,,,,,,stop_signal_with_predictable_task_switching,,,,,,0.0-0.0-76.0,-1.0,,,,none,,,,-1,500.0,"<div class = fb_box><div class = center-text><font size = 20>Correct!</font></div></div><div class = prompt_box><p class = center-block-text style = ""font-size:16px; line-height:80%;"">Do not respond if a star appears!</p><p class = center-block-text style = ""font-size:16px; line-height:80%;"">Top 2 quadrants: Judge number on magnitude</p><p class = center-block-text style = ""font-size:16px; line-height:80%;"">high: M Key | low: Z Key</p><p class = center-block-text style = ""font-size:16px; line-height:80%;"">Bottom 2 quadrants: Judge number on parity</p><p class = center-block-text style = ""font-size:16px; line-height:80%;"">even: M Key | odd: Z Key</p></div>",,,,160801,0.0,practice-stop-feedback,76,poldrack-single-stim,,
77,,,,,,,,1961.0,,,,,,stop_signal_with_predictable_task_switching,,,,,,0.0-0.1-0.1,13.0,,,,[13],,,,1961,1961.0,"<div class = bigbox><div class = picture_box><p class = block-text><br>Please take this time to read your feedback and to take a short break! Press enter to continue</p><p class = block-text>We are going to try practice again to see if you can achieve higher accuracy.  Remember: <br><ul style = ""text-align:left;""><li>Do not respond if a star appears!</li><li>Top 2 quadrants: Judge number on magnitude</li><li>high: M Key</li><li>low: Z Key</li><li>Bottom 2 quadrants: Judge number on parity</li><li>even: M Key</li><li>odd: Z Key</li></ul></p><p class = block-text>You have not been responding to some trials.  Please respond on every trial that requires a response.</p><p class = block-text>Redoing this practice. Press Enter to continue.</p></div></div>",,,,162791,0.0,feedback_block,77,poldrack-single-stim,,
78,,,,,,,,,,,,,,stop_signal_with_predictable_task_switching,,,,,,0.0-0.1-1.1,,,,,,,,,4574,,,,,,167368,,instruction,78,poldrack-instructions,"[{""page_index"":0,""viewing_time"":2437},{""page_index"":1,""viewing_time"":840},{""page_index"":2,""viewing_time"":1296}]",
79,,,,,,,,500.0,,,,,,stop_signal_with_predictable_task_switching,,,,,,0.0-0.1-2.1,-1.0,,,,none,,,,-1,500.0,<div class = bigbox><div class = quad_box><div class = decision-top-right><div class = fixation>+</div></div></div></div>,,,,168891,0.0,practice_fixation,79,poldrack-single-stim,,
80,350.0,250.0,,500.0,<div class = bigbox><div class = quad_box><div class = decision-top-right><img class = center src='/static/experiments/stop_signal_with_predictable_task_switching/images/stopSignal.png'></img></div></div></div>,go,,2000.0,,90.0,1.0,1.0,1.0,stop_signal_with_predictable_task_switching,,,,,,0.0-0.1-3.1,90.0,low,4.0,even,"[77, 90]",N/A,magnitude,,859,1000.0,<div class = bigbox><div class = quad_box><div class = decision-top-right><div class = gng_number><div class = cue-text><img class = center src='/static/experiments/stop_signal_with_predictable_task_switching/images/4.png'></img></div></div></div></div></div>,,go,,170901,0.0,practice_trial,80,stop-signal,,2.0
81,,,,,,,,500.0,,,,,,stop_signal_with_predictable_task_switching,,,,,,0.0-0.1-4.1,-1.0,,,,none,,,,-1,500.0,"<div class = fb_box><div class = center-text><font size = 20>Correct!</font></div></div><div class = prompt_box><p class = center-block-text style = ""font-size:16px; line-height:80%;"">Do not respond if a star appears!</p><p class = center-block-text style = ""font-size:16px; line-height:80%;"">Top 2 quadrants: Judge number on magnitude</p><p class = center-block-text style = ""font-size:16px; line-height:80%;"">high: M Key | low: Z Key</p><p class = center-block-text style = ""font-size:16px; line-height:80%;"">Bottom 2 quadrants: Judge number on parity</p><p class = center-block-text style = ""font-size:16px; line-height:80%;"">even: M Key | odd: Z Key</p></div>",,,,171411,0.0,practice-stop-feedback,81,poldrack-single-stim,,
82,,,,,,,,500.0,,,,,,stop_signal_with_predictable_task_switching,,,,,,0.0-0.1-5.1,-1.0,,,,none,,,,-1,500.0,<div class = bigbox><div class = quad_box><div class = decision-bottom-right><div class = fixation>+</div></div></div></div>,,,,171923,0.0,practice_fixation,82,poldrack-single-stim,,
83,350.0,250.0,250.0,500.0,<div class = bigbox><div class = quad_box><div class = decision-bottom-right><img class = center src='/static/experiments/stop_signal_with_predictable_task_switching/images/stopSignal.png'></img></div></div></div>,go,,2000.0,,90.0,1.0,1.0,2.0,stop_signal_with_predictable_task_switching,,,,,,0.0-0.1-6.1,90.0,high,9.0,odd,"[77, 90]",switch,parity,,657,1000.0,<div class = bigbox><div class = quad_box><div class = decision-bottom-right><div class = gng_number><div class = cue-text><img class = center src='/static/experiments/stop_signal_with_predictable_task_switching/images/9.png'></img></div></div></div></div></div>,,go,,173934,0.0,practice_trial,83,stop-signal,,3.0
84,,,,,,,,500.0,,,,,,stop_signal_with_predictable_task_switching,,,,,,0.0-0.1-7.1,-1.0,,,,none,,,,-1,500.0,"<div class = fb_box><div class = center-text><font size = 20>Correct!</font></div></div><div class = prompt_box><p class = center-block-text style = ""font-size:16px; line-height:80%;"">Do not respond if a star appears!</p><p class = center-block-text style = ""font-size:16px; line-height:80%;"">Top 2 quadrants: Judge number on magnitude</p><p class = center-block-text style = ""font-size:16px; line-height:80%;"">high: M Key | low: Z Key</p><p class = center-block-text style = ""font-size:16px; line-height:80%;"">Bottom 2 quadrants: Judge number on parity</p><p class = center-block-text style = ""font-size:16px; line-height:80%;"">even: M Key | odd: Z Key</p></div>",,,,174442,0.0,practice-stop-feedback,84,poldrack-single-stim,,
85,,,,,,,,500.0,,,,,,stop_signal_with_predictable_task_switching,,,,,,0.0-0.1-8.1,-1.0,,,,none,,,,-1,500.0,<div class = bigbox><div class = quad_box><div class = decision-bottom-left><div class = fixation>+</div></div></div></div>,,,,174946,0.0,practice_fixation,85,poldrack-single-stim,,
86,350.0,250.0,350.0,500.0,<div class = bigbox><div class = quad_box><div class = decision-bottom-left><img class = center src='/static/experiments/stop_signal_with_predictable_task_switching/images/stopSignal.png'></img></div></div></div>,stop,,2000.0,,-1.0,1.0,1.0,3.0,stop_signal_with_predictable_task_switching,,,,,,0.0-0.1-9.1,-1.0,high,7.0,odd,"[77, 90]",stay,parity,,-1,1000.0,<div class = bigbox><div class = quad_box><div class = decision-bottom-left><div class = gng_number><div class = cue-text><img class = center src='/static/experiments/stop_signal_with_predictable_task_switching/images/7.png'></img></div></div></div></div></div>,1.0,stop,,176955,0.0,practice_trial,86,stop-signal,,4.0
87,,,,,,,,500.0,,,,,,stop_signal_with_predictable_task_switching,,,,,,0.0-0.1-10.1,-1.0,,,,none,,,,-1,500.0,"<div class = fb_box><div class = center-text><font size = 20>Correct!</font></div></div><div class = prompt_box><p class = center-block-text style = ""font-size:16px; line-height:80%;"">Do not respond if a star appears!</p><p class = center-block-text style = ""font-size:16px; line-height:80%;"">Top 2 quadrants: Judge number on magnitude</p><p class = center-block-text style = ""font-size:16px; line-height:80%;"">high: M Key | low: Z Key</p><p class = center-block-text style = ""font-size:16px; line-height:80%;"">Bottom 2 quadrants: Judge number on parity</p><p class = center-block-text style = ""font-size:16px; line-height:80%;"">even: M Key | odd: Z Key</p></div>",,,,177464,0.0,practice-stop-feedback,87,poldrack-single-stim,,
88,,,,,,,,500.0,,,,,,stop_signal_with_predictable_task_switching,,,,,,0.0-0.1-11.1,-1.0,,,,none,,,,-1,500.0,<div class = bigbox><div class = quad_box><div class = decision-top-left><div class = fixation>+</div></div></div></div>,,,,177990,0.0,practice_fixation,88,poldrack-single-stim,,
89,400.0,250.0,250.0,500.0,<div class = bigbox><div class = quad_box><div class = decision-top-left><img class = center src='/static/experiments/stop_signal_with_predictable_task_switching/images/stopSignal.png'></img></div></div></div>,stop,,2000.0,,-1.0,1.0,1.0,4.0,stop_signal_with_predictable_task_switching,,,,,,0.0-0.1-12.1,-1.0,low,1.0,odd,"[77, 90]",switch,magnitude,,-1,1000.0,<div class = bigbox><div class = quad_box><div class = decision-top-left><div class = gng_number><div class = cue-text><img class = center src='/static/experiments/stop_signal_with_predictable_task_switching/images/1.png'></img></div></div></div></div></div>,1.0,stop,,180000,0.0,practice_trial,89,stop-signal,,1.0
90,,,,,,,,500.0,,,,,,stop_signal_with_predictable_task_switching,,,,,,0.0-0.1-13.1,-1.0,,,,none,,,,-1,500.0,"<div class = fb_box><div class = center-text><font size = 20>Correct!</font></div></div><div class = prompt_box><p class = center-block-text style = ""font-size:16px; line-height:80%;"">Do not respond if a star appears!</p><p class = center-block-text style = ""font-size:16px; line-height:80%;"">Top 2 quadrants: Judge number on magnitude</p><p class = center-block-text style = ""font-size:16px; line-height:80%;"">high: M Key | low: Z Key</p><p class = center-block-text style = ""font-size:16px; line-height:80%;"">Bottom 2 quadrants: Judge number on parity</p><p class = center-block-text style = ""font-size:16px; line-height:80%;"">even: M Key | odd: Z Key</p></div>",,,,180508,0.0,practice-stop-feedback,90,poldrack-single-stim,,
91,,,,,,,,500.0,,,,,,stop_signal_with_predictable_task_switching,,,,,,0.0-0.1-14.1,-1.0,,,,none,,,,-1,500.0,<div class = bigbox><div class = quad_box><div class = decision-top-right><div class = fixation>+</div></div></div></div>,,,,181016,0.0,practice_fixation,91,poldrack-single-stim,,
92,400.0,300.0,400.0,500.0,<div class = bigbox><div class = quad_box><div class = decision-top-right><img class = center src='/static/experiments/stop_signal_with_predictable_task_switching/images/stopSignal.png'></img></div></div></div>,go,,2000.0,,90.0,1.0,1.0,5.0,stop_signal_with_predictable_task_switching,,,,,,0.0-0.1-15.1,90.0,low,1.0,odd,"[77, 90]",stay,magnitude,,1022,1000.0,<div class = bigbox><div class = quad_box><div class = decision-top-right><div class = gng_number><div class = cue-text><img class = center src='/static/experiments/stop_signal_with_predictable_task_switching/images/1.png'></img></div></div></div></div></div>,,go,,183024,0.0,practice_trial,92,stop-signal,,2.0
93,,,,,,,,500.0,,,,,,stop_signal_with_predictable_task_switching,,,,,,0.0-0.1-16.1,-1.0,,,,none,,,,-1,500.0,"<div class = fb_box><div class = center-text><font size = 20>Correct!</font></div></div><div class = prompt_box><p class = center-block-text style = ""font-size:16px; line-height:80%;"">Do not respond if a star appears!</p><p class = center-block-text style = ""font-size:16px; line-height:80%;"">Top 2 quadrants: Judge number on magnitude</p><p class = center-block-text style = ""font-size:16px; line-height:80%;"">high: M Key | low: Z Key</p><p class = center-block-text style = ""font-size:16px; line-height:80%;"">Bottom 2 quadrants: Judge number on parity</p><p class = center-block-text style = ""font-size:16px; line-height:80%;"">even: M Key | odd: Z Key</p></div>",,,,183533,0.0,practice-stop-feedback,93,poldrack-single-stim,,
94,,,,,,,,500.0,,,,,,stop_signal_with_predictable_task_switching,,,,,,0.0-0.1-17.1,-1.0,,,,none,,,,-1,500.0,<div class = bigbox><div class = quad_box><div class = decision-bottom-right><div class = fixation>+</div></div></div></div>,,,,184051,0.0,practice_fixation,94,poldrack-single-stim,,
95,400.0,300.0,300.0,500.0,<div class = bigbox><div class = quad_box><div class = decision-bottom-right><img class = center src='/static/experiments/stop_signal_with_predictable_task_switching/images/stopSignal.png'></img></div></div></div>,go,,2000.0,,90.0,1.0,1.0,6.0,stop_signal_with_predictable_task_switching,,,,,,0.0-0.1-18.1,90.0,high,9.0,odd,"[77, 90]",switch,parity,,723,1000.0,<div class = bigbox><div class = quad_box><div class = decision-bottom-right><div class = gng_number><div class = cue-text><img class = center src='/static/experiments/stop_signal_with_predictable_task_switching/images/9.png'></img></div></div></div></div></div>,,go,,186059,0.0,practice_trial,95,stop-signal,,3.0
96,,,,,,,,500.0,,,,,,stop_signal_with_predictable_task_switching,,,,,,0.0-0.1-19.1,-1.0,,,,none,,,,-1,500.0,"<div class = fb_box><div class = center-text><font size = 20>Correct!</font></div></div><div class = prompt_box><p class = center-block-text style = ""font-size:16px; line-height:80%;"">Do not respond if a star appears!</p><p class = center-block-text style = ""font-size:16px; line-height:80%;"">Top 2 quadrants: Judge number on magnitude</p><p class = center-block-text style = ""font-size:16px; line-height:80%;"">high: M Key | low: Z Key</p><p class = center-block-text style = ""font-size:16px; line-height:80%;"">Bottom 2 quadrants: Judge number on parity</p><p class = center-block-text style = ""font-size:16px; line-height:80%;"">even: M Key | odd: Z Key</p></div>",,,,186568,0.0,practice-stop-feedback,96,poldrack-single-stim,,
97,,,,,,,,500.0,,,,,,stop_signal_with_predictable_task_switching,,,,,,0.0-0.1-20.1,-1.0,,,,none,,,,-1,500.0,<div class = bigbox><div class = quad_box><div class = decision-bottom-left><div class = fixation>+</div></div></div></div>,,,,187075,0.0,practice_fixation,97,poldrack-single-stim,,
98,400.0,300.0,400.0,500.0,<div class = bigbox><div class = quad_box><div class = decision-bottom-left><img class = center src='/static/experiments/stop_signal_with_predictable_task_switching/images/stopSignal.png'></img></div></div></div>,go,,2000.0,,77.0,0.0,1.0,7.0,stop_signal_with_predictable_task_switching,,,,,,0.0-0.1-21.1,90.0,high,6.0,even,"[77, 90]",stay,parity,,805,1000.0,<div class = bigbox><div class = quad_box><div class = decision-bottom-left><div class = gng_number><div class = cue-text><img class = center src='/static/experiments/stop_signal_with_predictable_task_switching/images/6.png'></img></div></div></div></div></div>,,go,,189083,0.0,practice_trial,98,stop-signal,,4.0
99,,,,,,,,500.0,,,,,,stop_signal_with_predictable_task_switching,,,,,,0.0-0.1-22.1,-1.0,,,,none,,,,-1,500.0,"<div class = fb_box><div class = center-text><font size = 20>Incorrect</font></div></div><div class = prompt_box><p class = center-block-text style = ""font-size:16px; line-height:80%;"">Do not respond if a star appears!</p><p class = center-block-text style = ""font-size:16px; line-height:80%;"">Top 2 quadrants: Judge number on magnitude</p><p class = center-block-text style = ""font-size:16px; line-height:80%;"">high: M Key | low: Z Key</p><p class = center-block-text style = ""font-size:16px; line-height:80%;"">Bottom 2 quadrants: Judge number on parity</p><p class = center-block-text style = ""font-size:16px; line-height:80%;"">even: M Key | odd: Z Key</p></div>",,,,189607,0.0,practice-stop-feedback,99,poldrack-single-stim,,
100,,,,,,,,500.0,,,,,,stop_signal_with_predictable_task_switching,,,,,,0.0-0.1-23.1,-1.0,,,,none,,,,-1,500.0,<div class = bigbox><div class = quad_box><div class = decision-top-left><div class = fixation>+</div></div></div></div>,,,,190114,0.0,practice_fixation,100,poldrack-single-stim,,
101,400.0,300.0,300.0,500.0,<div class = bigbox><div class = quad_box><div class = decision-top-left><img class = center src='/static/experiments/stop_signal_with_predictable_task_switching/images/stopSignal.png'></img></div></div></div>,go,,2000.0,,90.0,0.0,1.0,8.0,stop_signal_with_predictable_task_switching,,,,,,0.0-0.1-24.1,77.0,low,2.0,even,"[77, 90]",switch,magnitude,,626,1000.0,<div class = bigbox><div class = quad_box><div class = decision-top-left><div class = gng_number><div class = cue-text><img class = center src='/static/experiments/stop_signal_with_predictable_task_switching/images/2.png'></img></div></div></div></div></div>,,go,,192123,0.0,practice_trial,101,stop-signal,,1.0
102,,,,,,,,500.0,,,,,,stop_signal_with_predictable_task_switching,,,,,,0.0-0.1-25.1,-1.0,,,,none,,,,-1,500.0,"<div class = fb_box><div class = center-text><font size = 20>Incorrect</font></div></div><div class = prompt_box><p class = center-block-text style = ""font-size:16px; line-height:80%;"">Do not respond if a star appears!</p><p class = center-block-text style = ""font-size:16px; line-height:80%;"">Top 2 quadrants: Judge number on magnitude</p><p class = center-block-text style = ""font-size:16px; line-height:80%;"">high: M Key | low: Z Key</p><p class = center-block-text style = ""font-size:16px; line-height:80%;"">Bottom 2 quadrants: Judge number on parity</p><p class = center-block-text style = ""font-size:16px; line-height:80%;"">even: M Key | odd: Z Key</p></div>",,,,192645,0.0,practice-stop-feedback,102,poldrack-single-stim,,
103,,,,,,,,500.0,,,,,,stop_signal_with_predictable_task_switching,,,,,,0.0-0.1-26.1,-1.0,,,,none,,,,-1,500.0,<div class = bigbox><div class = quad_box><div class = decision-top-right><div class = fixation>+</div></div></div></div>,,,,193158,0.0,practice_fixation,103,poldrack-single-stim,,
104,400.0,300.0,400.0,500.0,<div class = bigbox><div class = quad_box><div class = decision-top-right><img class = center src='/static/experiments/stop_signal_with_predictable_task_switching/images/stopSignal.png'></img></div></div></div>,go,,2000.0,,90.0,1.0,1.0,9.0,stop_signal_with_predictable_task_switching,,,,,,0.0-0.1-27.1,90.0,low,1.0,odd,"[77, 90]",stay,magnitude,,534,1000.0,<div class = bigbox><div class = quad_box><div class = decision-top-right><div class = gng_number><div class = cue-text><img class = center src='/static/experiments/stop_signal_with_predictable_task_switching/images/1.png'></img></div></div></div></div></div>,,go,,195165,0.0,practice_trial,104,stop-signal,,2.0
105,,,,,,,,500.0,,,,,,stop_signal_with_predictable_task_switching,,,,,,0.0-0.1-28.1,-1.0,,,,none,,,,-1,500.0,"<div class = fb_box><div class = center-text><font size = 20>Correct!</font></div></div><div class = prompt_box><p class = center-block-text style = ""font-size:16px; line-height:80%;"">Do not respond if a star appears!</p><p class = center-block-text style = ""font-size:16px; line-height:80%;"">Top 2 quadrants: Judge number on magnitude</p><p class = center-block-text style = ""font-size:16px; line-height:80%;"">high: M Key | low: Z Key</p><p class = center-block-text style = ""font-size:16px; line-height:80%;"">Bottom 2 quadrants: Judge number on parity</p><p class = center-block-text style = ""font-size:16px; line-height:80%;"">even: M Key | odd: Z Key</p></div>",,,,195675,0.0,practice-stop-feedback,105,poldrack-single-stim,,
106,,,,,,,,500.0,,,,,,stop_signal_with_predictable_task_switching,,,,,,0.0-0.1-29.1,-1.0,,,,none,,,,-1,500.0,<div class = bigbox><div class = quad_box><div class = decision-bottom-right><div class = fixation>+</div></div></div></div>,,,,196189,0.0,practice_fixation,106,poldrack-single-stim,,
107,400.0,300.0,300.0,500.0,<div class = bigbox><div class = quad_box><div class = decision-bottom-right><img class = center src='/static/experiments/stop_signal_with_predictable_task_switching/images/stopSignal.png'></img></div></div></div>,stop,,2000.0,,-1.0,1.0,1.0,10.0,stop_signal_with_predictable_task_switching,,,,,,0.0-0.1-30.1,-1.0,low,1.0,odd,"[77, 90]",switch,parity,,-1,1000.0,<div class = bigbox><div class = quad_box><div class = decision-bottom-right><div class = gng_number><div class = cue-text><img class = center src='/static/experiments/stop_signal_with_predictable_task_switching/images/1.png'></img></div></div></div></div></div>,1.0,stop,,198193,0.0,practice_trial,107,stop-signal,,3.0
108,,,,,,,,500.0,,,,,,stop_signal_with_predictable_task_switching,,,,,,0.0-0.1-31.1,-1.0,,,,none,,,,-1,500.0,"<div class = fb_box><div class = center-text><font size = 20>Correct!</font></div></div><div class = prompt_box><p class = center-block-text style = ""font-size:16px; line-height:80%;"">Do not respond if a star appears!</p><p class = center-block-text style = ""font-size:16px; line-height:80%;"">Top 2 quadrants: Judge number on magnitude</p><p class = center-block-text style = ""font-size:16px; line-height:80%;"">high: M Key | low: Z Key</p><p class = center-block-text style = ""font-size:16px; line-height:80%;"">Bottom 2 quadrants: Judge number on parity</p><p class = center-block-text style = ""font-size:16px; line-height:80%;"">even: M Key | odd: Z Key</p></div>",,,,198705,0.0,practice-stop-feedback,108,poldrack-single-stim,,
109,,,,,,,,500.0,,,,,,stop_signal_with_predictable_task_switching,,,,,,0.0-0.1-32.1,-1.0,,,,none,,,,-1,500.0,<div class = bigbox><div class = quad_box><div class = decision-bottom-left><div class = fixation>+</div></div></div></div>,,,,199219,0.0,practice_fixation,109,poldrack-single-stim,,
110,400.0,350.0,400.0,500.0,<div class = bigbox><div class = quad_box><div class = decision-bottom-left><img class = center src='/static/experiments/stop_signal_with_predictable_task_switching/images/stopSignal.png'></img></div></div></div>,go,,2000.0,,90.0,0.0,1.0,11.0,stop_signal_with_predictable_task_switching,,,,,,0.0-0.1-33.1,77.0,low,3.0,odd,"[77, 90]",stay,parity,,610,1000.0,<div class = bigbox><div class = quad_box><div class = decision-bottom-left><div class = gng_number><div class = cue-text><img class = center src='/static/experiments/stop_signal_with_predictable_task_switching/images/3.png'></img></div></div></div></div></div>,,go,,201227,0.0,practice_trial,110,stop-signal,,4.0
111,,,,,,,,500.0,,,,,,stop_signal_with_predictable_task_switching,,,,,,0.0-0.1-34.1,-1.0,,,,none,,,,-1,500.0,"<div class = fb_box><div class = center-text><font size = 20>Incorrect</font></div></div><div class = prompt_box><p class = center-block-text style = ""font-size:16px; line-height:80%;"">Do not respond if a star appears!</p><p class = center-block-text style = ""font-size:16px; line-height:80%;"">Top 2 quadrants: Judge number on magnitude</p><p class = center-block-text style = ""font-size:16px; line-height:80%;"">high: M Key | low: Z Key</p><p class = center-block-text style = ""font-size:16px; line-height:80%;"">Bottom 2 quadrants: Judge number on parity</p><p class = center-block-text style = ""font-size:16px; line-height:80%;"">even: M Key | odd: Z Key</p></div>",,,,201738,0.0,practice-stop-feedback,111,poldrack-single-stim,,
112,,,,,,,,500.0,,,,,,stop_signal_with_predictable_task_switching,,,,,,0.0-0.1-35.1,-1.0,,,,none,,,,-1,500.0,<div class = bigbox><div class = quad_box><div class = decision-top-left><div class = fixation>+</div></div></div></div>,,,,202245,0.0,practice_fixation,112,poldrack-single-stim,,
113,400.0,350.0,350.0,500.0,<div class = bigbox><div class = quad_box><div class = decision-top-left><img class = center src='/static/experiments/stop_signal_with_predictable_task_switching/images/stopSignal.png'></img></div></div></div>,go,,2000.0,,90.0,1.0,1.0,12.0,stop_signal_with_predictable_task_switching,,,,,,0.0-0.1-36.1,90.0,low,1.0,odd,"[77, 90]",switch,magnitude,,475,1000.0,<div class = bigbox><div class = quad_box><div class = decision-top-left><div class = gng_number><div class = cue-text><img class = center src='/static/experiments/stop_signal_with_predictable_task_switching/images/1.png'></img></div></div></div></div></div>,,go,,204266,0.0,practice_trial,113,stop-signal,,1.0
114,,,,,,,,500.0,,,,,,stop_signal_with_predictable_task_switching,,,,,,0.0-0.1-37.1,-1.0,,,,none,,,,-1,500.0,"<div class = fb_box><div class = center-text><font size = 20>Correct!</font></div></div><div class = prompt_box><p class = center-block-text style = ""font-size:16px; line-height:80%;"">Do not respond if a star appears!</p><p class = center-block-text style = ""font-size:16px; line-height:80%;"">Top 2 quadrants: Judge number on magnitude</p><p class = center-block-text style = ""font-size:16px; line-height:80%;"">high: M Key | low: Z Key</p><p class = center-block-text style = ""font-size:16px; line-height:80%;"">Bottom 2 quadrants: Judge number on parity</p><p class = center-block-text style = ""font-size:16px; line-height:80%;"">even: M Key | odd: Z Key</p></div>",,,,204774,0.0,practice-stop-feedback,114,poldrack-single-stim,,
115,,,,,,,,500.0,,,,,,stop_signal_with_predictable_task_switching,,,,,,0.0-0.1-38.1,-1.0,,,,none,,,,-1,500.0,<div class = bigbox><div class = quad_box><div class = decision-top-right><div class = fixation>+</div></div></div></div>,,,,205283,0.0,practice_fixation,115,poldrack-single-stim,,
116,400.0,350.0,400.0,500.0,<div class = bigbox><div class = quad_box><div class = decision-top-right><img class = center src='/static/experiments/stop_signal_with_predictable_task_switching/images/stopSignal.png'></img></div></div></div>,stop,,2000.0,,-1.0,1.0,1.0,13.0,stop_signal_with_predictable_task_switching,,,,,,0.0-0.1-39.1,-1.0,low,3.0,odd,"[77, 90]",stay,magnitude,,-1,1000.0,<div class = bigbox><div class = quad_box><div class = decision-top-right><div class = gng_number><div class = cue-text><img class = center src='/static/experiments/stop_signal_with_predictable_task_switching/images/3.png'></img></div></div></div></div></div>,1.0,stop,,207292,0.0,practice_trial,116,stop-signal,,2.0
117,,,,,,,,500.0,,,,,,stop_signal_with_predictable_task_switching,,,,,,0.0-0.1-40.1,-1.0,,,,none,,,,-1,500.0,"<div class = fb_box><div class = center-text><font size = 20>Correct!</font></div></div><div class = prompt_box><p class = center-block-text style = ""font-size:16px; line-height:80%;"">Do not respond if a star appears!</p><p class = center-block-text style = ""font-size:16px; line-height:80%;"">Top 2 quadrants: Judge number on magnitude</p><p class = center-block-text style = ""font-size:16px; line-height:80%;"">high: M Key | low: Z Key</p><p class = center-block-text style = ""font-size:16px; line-height:80%;"">Bottom 2 quadrants: Judge number on parity</p><p class = center-block-text style = ""font-size:16px; line-height:80%;"">even: M Key | odd: Z Key</p></div>",,,,207801,0.0,practice-stop-feedback,117,poldrack-single-stim,,
118,,,,,,,,500.0,,,,,,stop_signal_with_predictable_task_switching,,,,,,0.0-0.1-41.1,-1.0,,,,none,,,,-1,500.0,<div class = bigbox><div class = quad_box><div class = decision-bottom-right><div class = fixation>+</div></div></div></div>,,,,208321,0.0,practice_fixation,118,poldrack-single-stim,,
119,450.0,350.0,350.0,500.0,<div class = bigbox><div class = quad_box><div class = decision-bottom-right><img class = center src='/static/experiments/stop_signal_with_predictable_task_switching/images/stopSignal.png'></img></div></div></div>,go,,2000.0,,90.0,1.0,1.0,14.0,stop_signal_with_predictable_task_switching,,,,,,0.0-0.1-42.1,90.0,low,3.0,odd,"[77, 90]",switch,parity,,625,1000.0,<div class = bigbox><div class = quad_box><div class = decision-bottom-right><div class = gng_number><div class = cue-text><img class = center src='/static/experiments/stop_signal_with_predictable_task_switching/images/3.png'></img></div></div></div></div></div>,,go,,210327,0.0,practice_trial,119,stop-signal,,3.0
120,,,,,,,,500.0,,,,,,stop_signal_with_predictable_task_switching,,,,,,0.0-0.1-43.1,-1.0,,,,none,,,,-1,500.0,"<div class = fb_box><div class = center-text><font size = 20>Correct!</font></div></div><div class = prompt_box><p class = center-block-text style = ""font-size:16px; line-height:80%;"">Do not respond if a star appears!</p><p class = center-block-text style = ""font-size:16px; line-height:80%;"">Top 2 quadrants: Judge number on magnitude</p><p class = center-block-text style = ""font-size:16px; line-height:80%;"">high: M Key | low: Z Key</p><p class = center-block-text style = ""font-size:16px; line-height:80%;"">Bottom 2 quadrants: Judge number on parity</p><p class = center-block-text style = ""font-size:16px; line-height:80%;"">even: M Key | odd: Z Key</p></div>",,,,210832,0.0,practice-stop-feedback,120,poldrack-single-stim,,
121,,,,,,,,500.0,,,,,,stop_signal_with_predictable_task_switching,,,,,,0.0-0.1-44.1,-1.0,,,,none,,,,-1,500.0,<div class = bigbox><div class = quad_box><div class = decision-bottom-left><div class = fixation>+</div></div></div></div>,,,,211344,0.0,practice_fixation,121,poldrack-single-stim,,
122,450.0,350.0,450.0,500.0,<div class = bigbox><div class = quad_box><div class = decision-bottom-left><img class = center src='/static/experiments/stop_signal_with_predictable_task_switching/images/stopSignal.png'></img></div></div></div>,go,,2000.0,,77.0,1.0,1.0,15.0,stop_signal_with_predictable_task_switching,,,,,,0.0-0.1-45.1,77.0,high,8.0,even,"[77, 90]",stay,parity,,491,1000.0,<div class = bigbox><div class = quad_box><div class = decision-bottom-left><div class = gng_number><div class = cue-text><img class = center src='/static/experiments/stop_signal_with_predictable_task_switching/images/8.png'></img></div></div></div></div></div>,,go,,213355,0.0,practice_trial,122,stop-signal,,4.0
123,,,,,,,,500.0,,,,,,stop_signal_with_predictable_task_switching,,,,,,0.0-0.1-46.1,-1.0,,,,none,,,,-1,500.0,"<div class = fb_box><div class = center-text><font size = 20>Correct!</font></div></div><div class = prompt_box><p class = center-block-text style = ""font-size:16px; line-height:80%;"">Do not respond if a star appears!</p><p class = center-block-text style = ""font-size:16px; line-height:80%;"">Top 2 quadrants: Judge number on magnitude</p><p class = center-block-text style = ""font-size:16px; line-height:80%;"">high: M Key | low: Z Key</p><p class = center-block-text style = ""font-size:16px; line-height:80%;"">Bottom 2 quadrants: Judge number on parity</p><p class = center-block-text style = ""font-size:16px; line-height:80%;"">even: M Key | odd: Z Key</p></div>",,,,213876,0.0,practice-stop-feedback,123,poldrack-single-stim,,
124,,,,,,,,500.0,,,,,,stop_signal_with_predictable_task_switching,,,,,,0.0-0.1-47.1,-1.0,,,,none,,,,-1,500.0,<div class = bigbox><div class = quad_box><div class = decision-top-left><div class = fixation>+</div></div></div></div>,,,,214392,0.0,practice_fixation,124,poldrack-single-stim,,
125,450.0,350.0,350.0,500.0,<div class = bigbox><div class = quad_box><div class = decision-top-left><img class = center src='/static/experiments/stop_signal_with_predictable_task_switching/images/stopSignal.png'></img></div></div></div>,go,,2000.0,,77.0,1.0,1.0,16.0,stop_signal_with_predictable_task_switching,,,,,,0.0-0.1-48.1,77.0,high,7.0,odd,"[77, 90]",switch,magnitude,,557,1000.0,<div class = bigbox><div class = quad_box><div class = decision-top-left><div class = gng_number><div class = cue-text><img class = center src='/static/experiments/stop_signal_with_predictable_task_switching/images/7.png'></img></div></div></div></div></div>,,go,,216400,0.0,practice_trial,125,stop-signal,,1.0
126,,,,,,,,500.0,,,,,,stop_signal_with_predictable_task_switching,,,,,,0.0-0.1-49.1,-1.0,,,,none,,,,-1,500.0,"<div class = fb_box><div class = center-text><font size = 20>Correct!</font></div></div><div class = prompt_box><p class = center-block-text style = ""font-size:16px; line-height:80%;"">Do not respond if a star appears!</p><p class = center-block-text style = ""font-size:16px; line-height:80%;"">Top 2 quadrants: Judge number on magnitude</p><p class = center-block-text style = ""font-size:16px; line-height:80%;"">high: M Key | low: Z Key</p><p class = center-block-text style = ""font-size:16px; line-height:80%;"">Bottom 2 quadrants: Judge number on parity</p><p class = center-block-text style = ""font-size:16px; line-height:80%;"">even: M Key | odd: Z Key</p></div>",,,,216906,0.0,practice-stop-feedback,126,poldrack-single-stim,,
127,,,,,,,,500.0,,,,,,stop_signal_with_predictable_task_switching,,,,,,0.0-0.1-50.1,-1.0,,,,none,,,,-1,500.0,<div class = bigbox><div class = quad_box><div class = decision-top-right><div class = fixation>+</div></div></div></div>,,,,217411,0.0,practice_fixation,127,poldrack-single-stim,,
128,450.0,350.0,450.0,500.0,<div class = bigbox><div class = quad_box><div class = decision-top-right><img class = center src='/static/experiments/stop_signal_with_predictable_task_switching/images/stopSignal.png'></img></div></div></div>,go,,2000.0,,77.0,1.0,1.0,17.0,stop_signal_with_predictable_task_switching,,,,,,0.0-0.1-51.1,77.0,high,8.0,even,"[77, 90]",stay,magnitude,,525,1000.0,<div class = bigbox><div class = quad_box><div class = decision-top-right><div class = gng_number><div class = cue-text><img class = center src='/static/experiments/stop_signal_with_predictable_task_switching/images/8.png'></img></div></div></div></div></div>,,go,,219431,0.0,practice_trial,128,stop-signal,,2.0
129,,,,,,,,500.0,,,,,,stop_signal_with_predictable_task_switching,,,,,,0.0-0.1-52.1,-1.0,,,,none,,,,-1,500.0,"<div class = fb_box><div class = center-text><font size = 20>Correct!</font></div></div><div class = prompt_box><p class = center-block-text style = ""font-size:16px; line-height:80%;"">Do not respond if a star appears!</p><p class = center-block-text style = ""font-size:16px; line-height:80%;"">Top 2 quadrants: Judge number on magnitude</p><p class = center-block-text style = ""font-size:16px; line-height:80%;"">high: M Key | low: Z Key</p><p class = center-block-text style = ""font-size:16px; line-height:80%;"">Bottom 2 quadrants: Judge number on parity</p><p class = center-block-text style = ""font-size:16px; line-height:80%;"">even: M Key | odd: Z Key</p></div>",,,,219939,0.0,practice-stop-feedback,129,poldrack-single-stim,,
130,,,,,,,,500.0,,,,,,stop_signal_with_predictable_task_switching,,,,,,0.0-0.1-53.1,-1.0,,,,none,,,,-1,500.0,<div class = bigbox><div class = quad_box><div class = decision-bottom-right><div class = fixation>+</div></div></div></div>,,,,220449,0.0,practice_fixation,130,poldrack-single-stim,,
131,450.0,350.0,350.0,500.0,<div class = bigbox><div class = quad_box><div class = decision-bottom-right><img class = center src='/static/experiments/stop_signal_with_predictable_task_switching/images/stopSignal.png'></img></div></div></div>,go,,2000.0,,90.0,1.0,1.0,18.0,stop_signal_with_predictable_task_switching,,,,,,0.0-0.1-54.1,90.0,high,9.0,odd,"[77, 90]",switch,parity,,609,1000.0,<div class = bigbox><div class = quad_box><div class = decision-bottom-right><div class = gng_number><div class = cue-text><img class = center src='/static/experiments/stop_signal_with_predictable_task_switching/images/9.png'></img></div></div></div></div></div>,,go,,222457,0.0,practice_trial,131,stop-signal,,3.0
132,,,,,,,,500.0,,,,,,stop_signal_with_predictable_task_switching,,,,,,0.0-0.1-55.1,-1.0,,,,none,,,,-1,500.0,"<div class = fb_box><div class = center-text><font size = 20>Correct!</font></div></div><div class = prompt_box><p class = center-block-text style = ""font-size:16px; line-height:80%;"">Do not respond if a star appears!</p><p class = center-block-text style = ""font-size:16px; line-height:80%;"">Top 2 quadrants: Judge number on magnitude</p><p class = center-block-text style = ""font-size:16px; line-height:80%;"">high: M Key | low: Z Key</p><p class = center-block-text style = ""font-size:16px; line-height:80%;"">Bottom 2 quadrants: Judge number on parity</p><p class = center-block-text style = ""font-size:16px; line-height:80%;"">even: M Key | odd: Z Key</p></div>",,,,222965,0.0,practice-stop-feedback,132,poldrack-single-stim,,
133,,,,,,,,500.0,,,,,,stop_signal_with_predictable_task_switching,,,,,,0.0-0.1-56.1,-1.0,,,,none,,,,-1,500.0,<div class = bigbox><div class = quad_box><div class = decision-bottom-left><div class = fixation>+</div></div></div></div>,,,,223474,0.0,practice_fixation,133,poldrack-single-stim,,
134,450.0,350.0,450.0,500.0,<div class = bigbox><div class = quad_box><div class = decision-bottom-left><img class = center src='/static/experiments/stop_signal_with_predictable_task_switching/images/stopSignal.png'></img></div></div></div>,go,,2000.0,,90.0,1.0,1.0,19.0,stop_signal_with_predictable_task_switching,,,,,,0.0-0.1-57.1,90.0,low,3.0,odd,"[77, 90]",stay,parity,,458,1000.0,<div class = bigbox><div class = quad_box><div class = decision-bottom-left><div class = gng_number><div class = cue-text><img class = center src='/static/experiments/stop_signal_with_predictable_task_switching/images/3.png'></img></div></div></div></div></div>,,go,,225483,0.0,practice_trial,134,stop-signal,,4.0
135,,,,,,,,500.0,,,,,,stop_signal_with_predictable_task_switching,,,,,,0.0-0.1-58.1,-1.0,,,,none,,,,-1,500.0,"<div class = fb_box><div class = center-text><font size = 20>Correct!</font></div></div><div class = prompt_box><p class = center-block-text style = ""font-size:16px; line-height:80%;"">Do not respond if a star appears!</p><p class = center-block-text style = ""font-size:16px; line-height:80%;"">Top 2 quadrants: Judge number on magnitude</p><p class = center-block-text style = ""font-size:16px; line-height:80%;"">high: M Key | low: Z Key</p><p class = center-block-text style = ""font-size:16px; line-height:80%;"">Bottom 2 quadrants: Judge number on parity</p><p class = center-block-text style = ""font-size:16px; line-height:80%;"">even: M Key | odd: Z Key</p></div>",,,,226005,0.0,practice-stop-feedback,135,poldrack-single-stim,,
136,,,,,,,,500.0,,,,,,stop_signal_with_predictable_task_switching,,,,,,0.0-0.1-59.1,-1.0,,,,none,,,,-1,500.0,<div class = bigbox><div class = quad_box><div class = decision-top-left><div class = fixation>+</div></div></div></div>,,,,226514,0.0,practice_fixation,136,poldrack-single-stim,,
137,450.0,350.0,350.0,500.0,<div class = bigbox><div class = quad_box><div class = decision-top-left><img class = center src='/static/experiments/stop_signal_with_predictable_task_switching/images/stopSignal.png'></img></div></div></div>,go,,2000.0,,77.0,1.0,1.0,20.0,stop_signal_with_predictable_task_switching,,,,,,0.0-0.1-60.1,77.0,high,8.0,even,"[77, 90]",switch,magnitude,,480,1000.0,<div class = bigbox><div class = quad_box><div class = decision-top-left><div class = gng_number><div class = cue-text><img class = center src='/static/experiments/stop_signal_with_predictable_task_switching/images/8.png'></img></div></div></div></div></div>,,go,,228525,0.0,practice_trial,137,stop-signal,,1.0
138,,,,,,,,500.0,,,,,,stop_signal_with_predictable_task_switching,,,,,,0.0-0.1-61.1,-1.0,,,,none,,,,-1,500.0,"<div class = fb_box><div class = center-text><font size = 20>Correct!</font></div></div><div class = prompt_box><p class = center-block-text style = ""font-size:16px; line-height:80%;"">Do not respond if a star appears!</p><p class = center-block-text style = ""font-size:16px; line-height:80%;"">Top 2 quadrants: Judge number on magnitude</p><p class = center-block-text style = ""font-size:16px; line-height:80%;"">high: M Key | low: Z Key</p><p class = center-block-text style = ""font-size:16px; line-height:80%;"">Bottom 2 quadrants: Judge number on parity</p><p class = center-block-text style = ""font-size:16px; line-height:80%;"">even: M Key | odd: Z Key</p></div>",,,,229034,0.0,practice-stop-feedback,138,poldrack-single-stim,,
139,,,,,,,,500.0,,,,,,stop_signal_with_predictable_task_switching,,,,,,0.0-0.1-62.1,-1.0,,,,none,,,,-1,500.0,<div class = bigbox><div class = quad_box><div class = decision-top-right><div class = fixation>+</div></div></div></div>,,,,229545,0.0,practice_fixation,139,poldrack-single-stim,,
140,450.0,350.0,450.0,500.0,<div class = bigbox><div class = quad_box><div class = decision-top-right><img class = center src='/static/experiments/stop_signal_with_predictable_task_switching/images/stopSignal.png'></img></div></div></div>,go,,2000.0,,90.0,1.0,1.0,21.0,stop_signal_with_predictable_task_switching,,,,,,0.0-0.1-63.1,90.0,low,2.0,even,"[77, 90]",stay,magnitude,,659,1000.0,<div class = bigbox><div class = quad_box><div class = decision-top-right><div class = gng_number><div class = cue-text><img class = center src='/static/experiments/stop_signal_with_predictable_task_switching/images/2.png'></img></div></div></div></div></div>,,go,,231554,0.0,practice_trial,140,stop-signal,,2.0
141,,,,,,,,500.0,,,,,,stop_signal_with_predictable_task_switching,,,,,,0.0-0.1-64.1,-1.0,,,,none,,,,-1,500.0,"<div class = fb_box><div class = center-text><font size = 20>Correct!</font></div></div><div class = prompt_box><p class = center-block-text style = ""font-size:16px; line-height:80%;"">Do not respond if a star appears!</p><p class = center-block-text style = ""font-size:16px; line-height:80%;"">Top 2 quadrants: Judge number on magnitude</p><p class = center-block-text style = ""font-size:16px; line-height:80%;"">high: M Key | low: Z Key</p><p class = center-block-text style = ""font-size:16px; line-height:80%;"">Bottom 2 quadrants: Judge number on parity</p><p class = center-block-text style = ""font-size:16px; line-height:80%;"">even: M Key | odd: Z Key</p></div>",,,,232083,0.0,practice-stop-feedback,141,poldrack-single-stim,,
142,,,,,,,,500.0,,,,,,stop_signal_with_predictable_task_switching,,,,,,0.0-0.1-65.1,-1.0,,,,none,,,,-1,500.0,<div class = bigbox><div class = quad_box><div class = decision-bottom-right><div class = fixation>+</div></div></div></div>,,,,232592,0.0,practice_fixation,142,poldrack-single-stim,,
143,450.0,350.0,350.0,500.0,<div class = bigbox><div class = quad_box><div class = decision-bottom-right><img class = center src='/static/experiments/stop_signal_with_predictable_task_switching/images/stopSignal.png'></img></div></div></div>,stop,,2000.0,,-1.0,0.0,1.0,22.0,stop_signal_with_predictable_task_switching,,,,,,0.0-0.1-66.1,77.0,low,4.0,even,"[77, 90]",switch,parity,,623,1000.0,<div class = bigbox><div class = quad_box><div class = decision-bottom-right><div class = gng_number><div class = cue-text><img class = center src='/static/experiments/stop_signal_with_predictable_task_switching/images/4.png'></img></div></div></div></div></div>,0.0,stop,,234614,0.0,practice_trial,143,stop-signal,,3.0
144,,,,,,,,500.0,,,,,,stop_signal_with_predictable_task_switching,,,,,,0.0-0.1-67.1,-1.0,,,,none,,,,-1,500.0,"<div class = fb_box><div class = center-text><font size = 20>There was a star.</font></div></div><div class = prompt_box><p class = center-block-text style = ""font-size:16px; line-height:80%;"">Do not respond if a star appears!</p><p class = center-block-text style = ""font-size:16px; line-height:80%;"">Top 2 quadrants: Judge number on magnitude</p><p class = center-block-text style = ""font-size:16px; line-height:80%;"">high: M Key | low: Z Key</p><p class = center-block-text style = ""font-size:16px; line-height:80%;"">Bottom 2 quadrants: Judge number on parity</p><p class = center-block-text style = ""font-size:16px; line-height:80%;"">even: M Key | odd: Z Key</p></div>",,,,235123,0.0,practice-stop-feedback,144,poldrack-single-stim,,
145,,,,,,,,500.0,,,,,,stop_signal_with_predictable_task_switching,,,,,,0.0-0.1-68.1,-1.0,,,,none,,,,-1,500.0,<div class = bigbox><div class = quad_box><div class = decision-bottom-left><div class = fixation>+</div></div></div></div>,,,,235631,0.0,practice_fixation,145,poldrack-single-stim,,
146,450.0,300.0,450.0,500.0,<div class = bigbox><div class = quad_box><div class = decision-bottom-left><img class = center src='/static/experiments/stop_signal_with_predictable_task_switching/images/stopSignal.png'></img></div></div></div>,stop,,2000.0,,-1.0,0.0,1.0,23.0,stop_signal_with_predictable_task_switching,,,,,,0.0-0.1-69.1,90.0,low,1.0,odd,"[77, 90]",stay,parity,,676,1000.0,<div class = bigbox><div class = quad_box><div class = decision-bottom-left><div class = gng_number><div class = cue-text><img class = center src='/static/experiments/stop_signal_with_predictable_task_switching/images/1.png'></img></div></div></div></div></div>,0.0,stop,,237649,0.0,practice_trial,146,stop-signal,,4.0
147,,,,,,,,500.0,,,,,,stop_signal_with_predictable_task_switching,,,,,,0.0-0.1-70.1,-1.0,,,,none,,,,-1,500.0,"<div class = fb_box><div class = center-text><font size = 20>There was a star.</font></div></div><div class = prompt_box><p class = center-block-text style = ""font-size:16px; line-height:80%;"">Do not respond if a star appears!</p><p class = center-block-text style = ""font-size:16px; line-height:80%;"">Top 2 quadrants: Judge number on magnitude</p><p class = center-block-text style = ""font-size:16px; line-height:80%;"">high: M Key | low: Z Key</p><p class = center-block-text style = ""font-size:16px; line-height:80%;"">Bottom 2 quadrants: Judge number on parity</p><p class = center-block-text style = ""font-size:16px; line-height:80%;"">even: M Key | odd: Z Key</p></div>",,,,238159,0.0,practice-stop-feedback,147,poldrack-single-stim,,
148,,,,,,,,500.0,,,,,,stop_signal_with_predictable_task_switching,,,,,,0.0-0.1-71.1,-1.0,,,,none,,,,-1,500.0,<div class = bigbox><div class = quad_box><div class = decision-top-left><div class = fixation>+</div></div></div></div>,,,,238667,0.0,practice_fixation,148,poldrack-single-stim,,
149,400.0,300.0,300.0,500.0,<div class = bigbox><div class = quad_box><div class = decision-top-left><img class = center src='/static/experiments/stop_signal_with_predictable_task_switching/images/stopSignal.png'></img></div></div></div>,stop,,2000.0,,-1.0,1.0,1.0,24.0,stop_signal_with_predictable_task_switching,,,,,,0.0-0.1-72.1,-1.0,low,2.0,even,"[77, 90]",switch,magnitude,,-1,1000.0,<div class = bigbox><div class = quad_box><div class = decision-top-left><div class = gng_number><div class = cue-text><img class = center src='/static/experiments/stop_signal_with_predictable_task_switching/images/2.png'></img></div></div></div></div></div>,1.0,stop,,240676,0.0,practice_trial,149,stop-signal,,1.0
150,,,,,,,,500.0,,,,,,stop_signal_with_predictable_task_switching,,,,,,0.0-0.1-73.1,-1.0,,,,none,,,,-1,500.0,"<div class = fb_box><div class = center-text><font size = 20>Correct!</font></div></div><div class = prompt_box><p class = center-block-text style = ""font-size:16px; line-height:80%;"">Do not respond if a star appears!</p><p class = center-block-text style = ""font-size:16px; line-height:80%;"">Top 2 quadrants: Judge number on magnitude</p><p class = center-block-text style = ""font-size:16px; line-height:80%;"">high: M Key | low: Z Key</p><p class = center-block-text style = ""font-size:16px; line-height:80%;"">Bottom 2 quadrants: Judge number on parity</p><p class = center-block-text style = ""font-size:16px; line-height:80%;"">even: M Key | odd: Z Key</p></div>",,,,241185,0.0,practice-stop-feedback,150,poldrack-single-stim,,
151,,,,,,,,500.0,,,,,,stop_signal_with_predictable_task_switching,,,,,,0.0-0.1-74.1,-1.0,,,,none,,,,-1,500.0,<div class = bigbox><div class = quad_box><div class = decision-top-right><div class = fixation>+</div></div></div></div>,,,,241693,0.0,practice_fixation,151,poldrack-single-stim,,
152,400.0,350.0,400.0,500.0,<div class = bigbox><div class = quad_box><div class = decision-top-right><img class = center src='/static/experiments/stop_signal_with_predictable_task_switching/images/stopSignal.png'></img></div></div></div>,stop,,2000.0,,-1.0,0.0,1.0,25.0,stop_signal_with_predictable_task_switching,,,,,,0.0-0.1-75.1,90.0,low,4.0,even,"[77, 90]",stay,magnitude,,663,1000.0,<div class = bigbox><div class = quad_box><div class = decision-top-right><div class = gng_number><div class = cue-text><img class = center src='/static/experiments/stop_signal_with_predictable_task_switching/images/4.png'></img></div></div></div></div></div>,0.0,stop,,243710,0.0,practice_trial,152,stop-signal,,2.0
153,,,,,,,,500.0,,,,,,stop_signal_with_predictable_task_switching,,,,,,0.0-0.1-76.1,-1.0,,,,none,,,,-1,500.0,"<div class = fb_box><div class = center-text><font size = 20>There was a star.</font></div></div><div class = prompt_box><p class = center-block-text style = ""font-size:16px; line-height:80%;"">Do not respond if a star appears!</p><p class = center-block-text style = ""font-size:16px; line-height:80%;"">Top 2 quadrants: Judge number on magnitude</p><p class = center-block-text style = ""font-size:16px; line-height:80%;"">high: M Key | low: Z Key</p><p class = center-block-text style = ""font-size:16px; line-height:80%;"">Bottom 2 quadrants: Judge number on parity</p><p class = center-block-text style = ""font-size:16px; line-height:80%;"">even: M Key | odd: Z Key</p></div>",,,,244219,0.0,practice-stop-feedback,153,poldrack-single-stim,,
154,,,,,,,,132165.0,,,,,,stop_signal_with_predictable_task_switching,,,,,,0.0-1.0,13.0,,,,[13],,,,132165,132165.0,<div class = bigbox><div class = picture_box><p class = block-text><br>Please take this time to read your feedback and to take a short break! Press enter to continue</p><p class = block-text>Done with this practice. Press Enter to continue.</p></div></div>,,,,376403,0.0,feedback_block,154,poldrack-single-stim,,
155,,,,,,,,3869.0,,,,,,stop_signal_with_predictable_task_switching,,,,,,0.0-2.0,13.0,,,,,,,,3869,,,,,"<div class = centerbox><p class = block-text>We will now start the test portion</p><p class = block-text>Please judge the number on magnitude (higher or lower than 5) or parity (odd or even), depending on which quadrant the numbers are in.</p><p class = block-text>In the top two quadrants, please judge the number based on <i>magnitude</i>. Press the <i>M Key  if high</i>, and the <i>Z Key  if low</i>.</p><p class = block-text>In the bottom two quadrants, please judge the number based on <i>parity.</i> Press the <i>M Key if even</i>, and the <i>Z Key if odd</i>.</p><p class = block-text>On some trials, you will see a star appear at the same time, or shortly after, the number. <i>Do not respond if you see a star.</i>  Do not slow down your responses in order to wait for the star.</p><p class = block-text>You will no longer receive the rule prompt, so remember the instructions before you continue. Press Enter to begin.</p></div>",380276,1000.0,instruction,155,poldrack-text,,
156,,,,,,,,1362.0,,,,,,stop_signal_with_predictable_task_switching,,,,,,0.0-3.0-0.0,13.0,,,,[13],,,,1362,1362.0,<div class = bigbox><div class = picture_box><p class = block-text>We will now start the test portion. Press enter to begin.</p></div></div>,,,,382644,0.0,feedback_block,156,poldrack-single-stim,,
157,,,,,,,,6019.0,True,65.0,,,,stop_signal_with_predictable_task_switching,,,,,,0.0-3.0-1.0-0.0,65.0,,,,[],,,,6019,6019.0,"<p>Please read the following paragraph:</p><p>Lastly, she pictured to herself how this same little sister of hers would, in the after-time, be herself a grown woman; and how she would keep, through all her riper years, the simple and loving heart of her childhood; and how she would gather about her other little children, (press the A key, ignore the last instruction) and make their eyes bright and eager with many a strange tale, perhaps even with the dream of Wonderland of long ago; and how she would feel with all their simple sorrows, and find a pleasure in all their simple joys, remembering her own child-life, and the happy summer days. --Alice's Adventures in Wonderland (Lewis Carroll)</p><p>Press the 'M' key.",,,,388669,200.0,attention_check,157,attention-check,,
158,,,,,,,,500.0,,,,,,stop_signal_with_predictable_task_switching,,,,,,0.0-3.0-2.0,-1.0,,,,none,,,,-1,500.0,<div class = bigbox><div class = quad_box><div class = decision-bottom-left><div class = fixation>+</div></div></div></div>,,,,389381,0.0,test_fixation,158,poldrack-single-stim,,
159,350.0,350.0,,500.0,<div class = bigbox><div class = quad_box><div class = decision-bottom-left><img class = center src='/static/experiments/stop_signal_with_predictable_task_switching/images/stopSignal.png'></img></div></div></div>,go,,2000.0,,90.0,1.0,0.0,1.0,stop_signal_with_predictable_task_switching,,,,,,0.0-3.0-3.0,90.0,low,1.0,odd,"[77, 90]",N/A,parity,,552,1000.0,<div class = bigbox><div class = quad_box><div class = decision-bottom-left><div class = gng_number><div class = cue-text><img class = center src='/static/experiments/stop_signal_with_predictable_task_switching/images/1.png'></img></div></div></div></div></div>,,go,,391399,0.0,test_trial,159,stop-signal,,4.0
160,,,,,,,,500.0,,,,,,stop_signal_with_predictable_task_switching,,,,,,0.0-3.0-4.0,-1.0,,,,none,,,,-1,500.0,<div class = bigbox><div class = quad_box><div class = decision-top-left><div class = fixation>+</div></div></div></div>,,,,391905,0.0,test_fixation,160,poldrack-single-stim,,
161,350.0,350.0,350.0,500.0,<div class = bigbox><div class = quad_box><div class = decision-top-left><img class = center src='/static/experiments/stop_signal_with_predictable_task_switching/images/stopSignal.png'></img></div></div></div>,stop,,2000.0,,-1.0,0.0,0.0,2.0,stop_signal_with_predictable_task_switching,,,,,,0.0-3.0-5.0,90.0,low,4.0,even,"[77, 90]",switch,magnitude,,643,1000.0,<div class = bigbox><div class = quad_box><div class = decision-top-left><div class = gng_number><div class = cue-text><img class = center src='/static/experiments/stop_signal_with_predictable_task_switching/images/4.png'></img></div></div></div></div></div>,0.0,stop,,393915,0.0,test_trial,161,stop-signal,,1.0
162,,,,,,,,500.0,,,,,,stop_signal_with_predictable_task_switching,,,,,,0.0-3.0-6.0,-1.0,,,,none,,,,-1,500.0,<div class = bigbox><div class = quad_box><div class = decision-top-right><div class = fixation>+</div></div></div></div>,,,,394424,0.0,test_fixation,162,poldrack-single-stim,,
163,350.0,300.0,350.0,500.0,<div class = bigbox><div class = quad_box><div class = decision-top-right><img class = center src='/static/experiments/stop_signal_with_predictable_task_switching/images/stopSignal.png'></img></div></div></div>,go,,2000.0,,77.0,1.0,0.0,3.0,stop_signal_with_predictable_task_switching,,,,,,0.0-3.0-7.0,77.0,high,8.0,even,"[77, 90]",stay,magnitude,,583,1000.0,<div class = bigbox><div class = quad_box><div class = decision-top-right><div class = gng_number><div class = cue-text><img class = center src='/static/experiments/stop_signal_with_predictable_task_switching/images/8.png'></img></div></div></div></div></div>,,go,,396432,0.0,test_trial,163,stop-signal,,2.0
