,SSD_congruent,SSD_incongruent,SS_delay,SS_duration,SS_stimulus,SS_trial_type,att_check_percent,block_duration,center_letter,correct,correct_response,correct_trial,current_block,current_trial,exp_id,final_accuracy,final_avg_rt,final_credit_var,final_missed_percent,final_responses_ok,flanker_condition,flanker_letter,internal_node_id,key_press,possible_responses,responses,rt,stim_duration,stimulus,stop_acc,stop_signal_condition,text,time_elapsed,timing_post_trial,trial_id,trial_index,trial_type,view_history
0,,,,,,,,107749.0,,,,,,,stop_signal_with_flanker,,,,,,,,0.0-0.0-0.0,13.0,[13],,107749,107749.0,<div class = bigbox><div class = picture_box><p class = block-text>Welcome to the experiment. This experiment will take around 10 minutes. Press <i>enter</i> to begin.</p></div></div>,,,,107751,0.0,feedback_block,0,poldrack-single-stim,
1,,,,,,,,,,,,,,,stop_signal_with_flanker,,,,,,,,0.0-0.0-1.0,,,,142079,,,,,,249831,,instruction,1,poldrack-instructions,"[{""page_index"":0,""viewing_time"":88495},{""page_index"":1,""viewing_time"":18199},{""page_index"":2,""viewing_time"":35385}]"
2,,,,,,,,500.0,,,,,,,stop_signal_with_flanker,,,,,,,,0.0-0.0-2.0,-1.0,none,,-1,500.0,<div class = centerbox><div class = fixation>+</div></div>,,,,251335,0.0,practice_fixation,2,poldrack-single-stim,
3,350.0,350.0,350.0,500.0,"<div class = bigbox><div class = centerbox><div class = starbox><img class = star src=""/static/experiments/stop_signal_with_flanker/images/stopSignal.png""></img></div></div></div>",go,,2000.0,H,,72.0,1.0,0.0,1.0,stop_signal_with_flanker,,,,,,H_congruent,H,0.0-0.0-3.0,72.0,"[70, 72]",,1966,1000.0,"<div class = bigbox><div class = centerbox><div class = flankerLeft_2><div class = cue-text><img class = center src=""/static/experiments/stop_signal_with_flanker/images/H.png""></img></div></div><div class = flankerLeft_1><div class = cue-text><img class = center src=""/static/experiments/stop_signal_with_flanker/images/H.png""></img></div></div><div class = flankerMiddle><div class = cue-text><img class = center src=""/static/experiments/stop_signal_with_flanker/images/H.png""></img></div></div><div class = flankerRight_1><div class = cue-text><img class = center src=""/static/experiments/stop_signal_with_flanker/images/H.png""></img></div></div><div class = flankerRight_2><div class = cue-text><img class = center src=""/static/experiments/stop_signal_with_flanker/images/H.png""></img>",,go,,253342,0.0,practice_trial,3,stop-signal,
4,,,,,,,,500.0,,,,,,,stop_signal_with_flanker,,,,,,,,0.0-0.0-4.0,-1.0,none,,-1,500.0,"<div class = fb_box><div class = center-text><font size = 20>Correct!</font></div></div><ul style = ""text-align:left;""><font color=white><li>Indicate the identity of the middle letter</li><li>Do not respond if you see a star around the letters!</li><li>Do not slow down your responses to the letter to wait for the star.</li></font></ul>",,,,253848,0.0,practice-stop-feedback,4,poldrack-single-stim,
5,,,,,,,,500.0,,,,,,,stop_signal_with_flanker,,,,,,,,0.0-0.0-5.0,-1.0,none,,-1,500.0,<div class = centerbox><div class = fixation>+</div></div>,,,,254351,0.0,practice_fixation,5,poldrack-single-stim,
6,350.0,350.0,350.0,500.0,"<div class = bigbox><div class = centerbox><div class = starbox><img class = star src=""/static/experiments/stop_signal_with_flanker/images/stopSignal.png""></img></div></div></div>",go,,2000.0,H,,72.0,1.0,0.0,2.0,stop_signal_with_flanker,,,,,,H_incongruent,F,0.0-0.0-6.0,72.0,"[70, 72]",,742,1000.0,"<div class = bigbox><div class = centerbox><div class = flankerLeft_2><div class = cue-text><img class = center src=""/static/experiments/stop_signal_with_flanker/images/F.png""></img></div></div><div class = flankerLeft_1><div class = cue-text><img class = center src=""/static/experiments/stop_signal_with_flanker/images/F.png""></img></div></div><div class = flankerMiddle><div class = cue-text><img class = center src=""/static/experiments/stop_signal_with_flanker/images/H.png""></img></div></div><div class = flankerRight_1><div class = cue-text><img class = center src=""/static/experiments/stop_signal_with_flanker/images/F.png""></img></div></div><div class = flankerRight_2><div class = cue-text><img class = center src=""/static/experiments/stop_signal_with_flanker/images/F.png""></img>",,go,,256358,0.0,practice_trial,6,stop-signal,
7,,,,,,,,500.0,,,,,,,stop_signal_with_flanker,,,,,,,,0.0-0.0-7.0,-1.0,none,,-1,500.0,"<div class = fb_box><div class = center-text><font size = 20>Correct!</font></div></div><ul style = ""text-align:left;""><font color=white><li>Indicate the identity of the middle letter</li><li>Do not respond if you see a star around the letters!</li><li>Do not slow down your responses to the letter to wait for the star.</li></font></ul>",,,,256864,0.0,practice-stop-feedback,7,poldrack-single-stim,
8,,,,,,,,500.0,,,,,,,stop_signal_with_flanker,,,,,,,,0.0-0.0-8.0,-1.0,none,,-1,500.0,<div class = centerbox><div class = fixation>+</div></div>,,,,257368,0.0,practice_fixation,8,poldrack-single-stim,
9,350.0,350.0,350.0,500.0,"<div class = bigbox><div class = centerbox><div class = starbox><img class = star src=""/static/experiments/stop_signal_with_flanker/images/stopSignal.png""></img></div></div></div>",stop,,2000.0,H,,-1.0,0.0,0.0,3.0,stop_signal_with_flanker,,,,,,H_congruent,H,0.0-0.0-9.0,72.0,"[70, 72]",,451,1000.0,"<div class = bigbox><div class = centerbox><div class = flankerLeft_2><div class = cue-text><img class = center src=""/static/experiments/stop_signal_with_flanker/images/H.png""></img></div></div><div class = flankerLeft_1><div class = cue-text><img class = center src=""/static/experiments/stop_signal_with_flanker/images/H.png""></img></div></div><div class = flankerMiddle><div class = cue-text><img class = center src=""/static/experiments/stop_signal_with_flanker/images/H.png""></img></div></div><div class = flankerRight_1><div class = cue-text><img class = center src=""/static/experiments/stop_signal_with_flanker/images/H.png""></img></div></div><div class = flankerRight_2><div class = cue-text><img class = center src=""/static/experiments/stop_signal_with_flanker/images/H.png""></img>",0.0,stop,,259375,0.0,practice_trial,9,stop-signal,
10,,,,,,,,500.0,,,,,,,stop_signal_with_flanker,,,,,,,,0.0-0.0-10.0,-1.0,none,,-1,500.0,"<div class = fb_box><div class = center-text><font size = 20>There was a star.</font></div></div><ul style = ""text-align:left;""><font color=white><li>Indicate the identity of the middle letter</li><li>Do not respond if you see a star around the letters!</li><li>Do not slow down your responses to the letter to wait for the star.</li></font></ul>",,,,259877,0.0,practice-stop-feedback,10,poldrack-single-stim,
11,,,,,,,,500.0,,,,,,,stop_signal_with_flanker,,,,,,,,0.0-0.0-11.0,-1.0,none,,-1,500.0,<div class = centerbox><div class = fixation>+</div></div>,,,,260382,0.0,practice_fixation,11,poldrack-single-stim,
12,300.0,350.0,350.0,500.0,"<div class = bigbox><div class = centerbox><div class = starbox><img class = star src=""/static/experiments/stop_signal_with_flanker/images/stopSignal.png""></img></div></div></div>",go,,2000.0,F,,70.0,1.0,0.0,4.0,stop_signal_with_flanker,,,,,,F_incongruent,H,0.0-0.0-12.0,70.0,"[70, 72]",,582,1000.0,"<div class = bigbox><div class = centerbox><div class = flankerLeft_2><div class = cue-text><img class = center src=""/static/experiments/stop_signal_with_flanker/images/H.png""></img></div></div><div class = flankerLeft_1><div class = cue-text><img class = center src=""/static/experiments/stop_signal_with_flanker/images/H.png""></img></div></div><div class = flankerMiddle><div class = cue-text><img class = center src=""/static/experiments/stop_signal_with_flanker/images/F.png""></img></div></div><div class = flankerRight_1><div class = cue-text><img class = center src=""/static/experiments/stop_signal_with_flanker/images/H.png""></img></div></div><div class = flankerRight_2><div class = cue-text><img class = center src=""/static/experiments/stop_signal_with_flanker/images/H.png""></img>",,go,,262388,0.0,practice_trial,12,stop-signal,
13,,,,,,,,500.0,,,,,,,stop_signal_with_flanker,,,,,,,,0.0-0.0-13.0,-1.0,none,,-1,500.0,"<div class = fb_box><div class = center-text><font size = 20>Correct!</font></div></div><ul style = ""text-align:left;""><font color=white><li>Indicate the identity of the middle letter</li><li>Do not respond if you see a star around the letters!</li><li>Do not slow down your responses to the letter to wait for the star.</li></font></ul>",,,,262893,0.0,practice-stop-feedback,13,poldrack-single-stim,
14,,,,,,,,500.0,,,,,,,stop_signal_with_flanker,,,,,,,,0.0-0.0-14.0,-1.0,none,,-1,500.0,<div class = centerbox><div class = fixation>+</div></div>,,,,263398,0.0,practice_fixation,14,poldrack-single-stim,
15,300.0,350.0,300.0,500.0,"<div class = bigbox><div class = centerbox><div class = starbox><img class = star src=""/static/experiments/stop_signal_with_flanker/images/stopSignal.png""></img></div></div></div>",go,,2000.0,H,,72.0,1.0,0.0,5.0,stop_signal_with_flanker,,,,,,H_congruent,H,0.0-0.0-15.0,72.0,"[70, 72]",,593,1000.0,"<div class = bigbox><div class = centerbox><div class = flankerLeft_2><div class = cue-text><img class = center src=""/static/experiments/stop_signal_with_flanker/images/H.png""></img></div></div><div class = flankerLeft_1><div class = cue-text><img class = center src=""/static/experiments/stop_signal_with_flanker/images/H.png""></img></div></div><div class = flankerMiddle><div class = cue-text><img class = center src=""/static/experiments/stop_signal_with_flanker/images/H.png""></img></div></div><div class = flankerRight_1><div class = cue-text><img class = center src=""/static/experiments/stop_signal_with_flanker/images/H.png""></img></div></div><div class = flankerRight_2><div class = cue-text><img class = center src=""/static/experiments/stop_signal_with_flanker/images/H.png""></img>",,go,,265404,0.0,practice_trial,15,stop-signal,
16,,,,,,,,500.0,,,,,,,stop_signal_with_flanker,,,,,,,,0.0-0.0-16.0,-1.0,none,,-1,500.0,"<div class = fb_box><div class = center-text><font size = 20>Correct!</font></div></div><ul style = ""text-align:left;""><font color=white><li>Indicate the identity of the middle letter</li><li>Do not respond if you see a star around the letters!</li><li>Do not slow down your responses to the letter to wait for the star.</li></font></ul>",,,,265908,0.0,practice-stop-feedback,16,poldrack-single-stim,
17,,,,,,,,500.0,,,,,,,stop_signal_with_flanker,,,,,,,,0.0-0.0-17.0,-1.0,none,,-1,500.0,<div class = centerbox><div class = fixation>+</div></div>,,,,266411,0.0,practice_fixation,17,poldrack-single-stim,
18,300.0,350.0,300.0,500.0,"<div class = bigbox><div class = centerbox><div class = starbox><img class = star src=""/static/experiments/stop_signal_with_flanker/images/stopSignal.png""></img></div></div></div>",go,,2000.0,F,,70.0,1.0,0.0,6.0,stop_signal_with_flanker,,,,,,F_congruent,F,0.0-0.0-18.0,70.0,"[70, 72]",,363,1000.0,"<div class = bigbox><div class = centerbox><div class = flankerLeft_2><div class = cue-text><img class = center src=""/static/experiments/stop_signal_with_flanker/images/F.png""></img></div></div><div class = flankerLeft_1><div class = cue-text><img class = center src=""/static/experiments/stop_signal_with_flanker/images/F.png""></img></div></div><div class = flankerMiddle><div class = cue-text><img class = center src=""/static/experiments/stop_signal_with_flanker/images/F.png""></img></div></div><div class = flankerRight_1><div class = cue-text><img class = center src=""/static/experiments/stop_signal_with_flanker/images/F.png""></img></div></div><div class = flankerRight_2><div class = cue-text><img class = center src=""/static/experiments/stop_signal_with_flanker/images/F.png""></img>",,go,,268418,0.0,practice_trial,18,stop-signal,
19,,,,,,,,500.0,,,,,,,stop_signal_with_flanker,,,,,,,,0.0-0.0-19.0,-1.0,none,,-1,500.0,"<div class = fb_box><div class = center-text><font size = 20>Correct!</font></div></div><ul style = ""text-align:left;""><font color=white><li>Indicate the identity of the middle letter</li><li>Do not respond if you see a star around the letters!</li><li>Do not slow down your responses to the letter to wait for the star.</li></font></ul>",,,,268923,0.0,practice-stop-feedback,19,poldrack-single-stim,
20,,,,,,,,500.0,,,,,,,stop_signal_with_flanker,,,,,,,,0.0-0.0-20.0,-1.0,none,,-1,500.0,<div class = centerbox><div class = fixation>+</div></div>,,,,269426,0.0,practice_fixation,20,poldrack-single-stim,
21,300.0,350.0,350.0,500.0,"<div class = bigbox><div class = centerbox><div class = starbox><img class = star src=""/static/experiments/stop_signal_with_flanker/images/stopSignal.png""></img></div></div></div>",go,,2000.0,F,,70.0,0.0,0.0,7.0,stop_signal_with_flanker,,,,,,F_incongruent,H,0.0-0.0-21.0,72.0,"[70, 72]",,551,1000.0,"<div class = bigbox><div class = centerbox><div class = flankerLeft_2><div class = cue-text><img class = center src=""/static/experiments/stop_signal_with_flanker/images/H.png""></img></div></div><div class = flankerLeft_1><div class = cue-text><img class = center src=""/static/experiments/stop_signal_with_flanker/images/H.png""></img></div></div><div class = flankerMiddle><div class = cue-text><img class = center src=""/static/experiments/stop_signal_with_flanker/images/F.png""></img></div></div><div class = flankerRight_1><div class = cue-text><img class = center src=""/static/experiments/stop_signal_with_flanker/images/H.png""></img></div></div><div class = flankerRight_2><div class = cue-text><img class = center src=""/static/experiments/stop_signal_with_flanker/images/H.png""></img>",,go,,271429,0.0,practice_trial,21,stop-signal,
22,,,,,,,,500.0,,,,,,,stop_signal_with_flanker,,,,,,,,0.0-0.0-22.0,-1.0,none,,-1,500.0,"<div class = fb_box><div class = center-text><font size = 20>Incorrect</font></div></div><ul style = ""text-align:left;""><font color=white><li>Indicate the identity of the middle letter</li><li>Do not respond if you see a star around the letters!</li><li>Do not slow down your responses to the letter to wait for the star.</li></font></ul>",,,,271934,0.0,practice-stop-feedback,22,poldrack-single-stim,
23,,,,,,,,500.0,,,,,,,stop_signal_with_flanker,,,,,,,,0.0-0.0-23.0,-1.0,none,,-1,500.0,<div class = centerbox><div class = fixation>+</div></div>,,,,272438,0.0,practice_fixation,23,poldrack-single-stim,
24,300.0,350.0,350.0,500.0,"<div class = bigbox><div class = centerbox><div class = starbox><img class = star src=""/static/experiments/stop_signal_with_flanker/images/stopSignal.png""></img></div></div></div>",go,,2000.0,H,,72.0,1.0,0.0,8.0,stop_signal_with_flanker,,,,,,H_incongruent,F,0.0-0.0-24.0,72.0,"[70, 72]",,610,1000.0,"<div class = bigbox><div class = centerbox><div class = flankerLeft_2><div class = cue-text><img class = center src=""/static/experiments/stop_signal_with_flanker/images/F.png""></img></div></div><div class = flankerLeft_1><div class = cue-text><img class = center src=""/static/experiments/stop_signal_with_flanker/images/F.png""></img></div></div><div class = flankerMiddle><div class = cue-text><img class = center src=""/static/experiments/stop_signal_with_flanker/images/H.png""></img></div></div><div class = flankerRight_1><div class = cue-text><img class = center src=""/static/experiments/stop_signal_with_flanker/images/F.png""></img></div></div><div class = flankerRight_2><div class = cue-text><img class = center src=""/static/experiments/stop_signal_with_flanker/images/F.png""></img>",,go,,274443,0.0,practice_trial,24,stop-signal,
25,,,,,,,,500.0,,,,,,,stop_signal_with_flanker,,,,,,,,0.0-0.0-25.0,-1.0,none,,-1,500.0,"<div class = fb_box><div class = center-text><font size = 20>Correct!</font></div></div><ul style = ""text-align:left;""><font color=white><li>Indicate the identity of the middle letter</li><li>Do not respond if you see a star around the letters!</li><li>Do not slow down your responses to the letter to wait for the star.</li></font></ul>",,,,274948,0.0,practice-stop-feedback,25,poldrack-single-stim,
26,,,,,,,,500.0,,,,,,,stop_signal_with_flanker,,,,,,,,0.0-0.0-26.0,-1.0,none,,-1,500.0,<div class = centerbox><div class = fixation>+</div></div>,,,,275451,0.0,practice_fixation,26,poldrack-single-stim,
27,300.0,350.0,300.0,500.0,"<div class = bigbox><div class = centerbox><div class = starbox><img class = star src=""/static/experiments/stop_signal_with_flanker/images/stopSignal.png""></img></div></div></div>",stop,,2000.0,F,,-1.0,0.0,0.0,9.0,stop_signal_with_flanker,,,,,,F_congruent,F,0.0-0.0-27.0,70.0,"[70, 72]",,625,1000.0,"<div class = bigbox><div class = centerbox><div class = flankerLeft_2><div class = cue-text><img class = center src=""/static/experiments/stop_signal_with_flanker/images/F.png""></img></div></div><div class = flankerLeft_1><div class = cue-text><img class = center src=""/static/experiments/stop_signal_with_flanker/images/F.png""></img></div></div><div class = flankerMiddle><div class = cue-text><img class = center src=""/static/experiments/stop_signal_with_flanker/images/F.png""></img></div></div><div class = flankerRight_1><div class = cue-text><img class = center src=""/static/experiments/stop_signal_with_flanker/images/F.png""></img></div></div><div class = flankerRight_2><div class = cue-text><img class = center src=""/static/experiments/stop_signal_with_flanker/images/F.png""></img>",0.0,stop,,277454,0.0,practice_trial,27,stop-signal,
28,,,,,,,,500.0,,,,,,,stop_signal_with_flanker,,,,,,,,0.0-0.0-28.0,-1.0,none,,-1,500.0,"<div class = fb_box><div class = center-text><font size = 20>There was a star.</font></div></div><ul style = ""text-align:left;""><font color=white><li>Indicate the identity of the middle letter</li><li>Do not respond if you see a star around the letters!</li><li>Do not slow down your responses to the letter to wait for the star.</li></font></ul>",,,,277959,0.0,practice-stop-feedback,28,poldrack-single-stim,
29,,,,,,,,500.0,,,,,,,stop_signal_with_flanker,,,,,,,,0.0-0.0-29.0,-1.0,none,,-1,500.0,<div class = centerbox><div class = fixation>+</div></div>,,,,278462,0.0,practice_fixation,29,poldrack-single-stim,
30,250.0,350.0,350.0,500.0,"<div class = bigbox><div class = centerbox><div class = starbox><img class = star src=""/static/experiments/stop_signal_with_flanker/images/stopSignal.png""></img></div></div></div>",stop,,2000.0,F,,-1.0,0.0,0.0,10.0,stop_signal_with_flanker,,,,,,F_incongruent,H,0.0-0.0-30.0,72.0,"[70, 72]",,538,1000.0,"<div class = bigbox><div class = centerbox><div class = flankerLeft_2><div class = cue-text><img class = center src=""/static/experiments/stop_signal_with_flanker/images/H.png""></img></div></div><div class = flankerLeft_1><div class = cue-text><img class = center src=""/static/experiments/stop_signal_with_flanker/images/H.png""></img></div></div><div class = flankerMiddle><div class = cue-text><img class = center src=""/static/experiments/stop_signal_with_flanker/images/F.png""></img></div></div><div class = flankerRight_1><div class = cue-text><img class = center src=""/static/experiments/stop_signal_with_flanker/images/H.png""></img></div></div><div class = flankerRight_2><div class = cue-text><img class = center src=""/static/experiments/stop_signal_with_flanker/images/H.png""></img>",0.0,stop,,280468,0.0,practice_trial,30,stop-signal,
31,,,,,,,,500.0,,,,,,,stop_signal_with_flanker,,,,,,,,0.0-0.0-31.0,-1.0,none,,-1,500.0,"<div class = fb_box><div class = center-text><font size = 20>There was a star.</font></div></div><ul style = ""text-align:left;""><font color=white><li>Indicate the identity of the middle letter</li><li>Do not respond if you see a star around the letters!</li><li>Do not slow down your responses to the letter to wait for the star.</li></font></ul>",,,,280973,0.0,practice-stop-feedback,31,poldrack-single-stim,
32,,,,,,,,500.0,,,,,,,stop_signal_with_flanker,,,,,,,,0.0-0.0-32.0,-1.0,none,,-1,500.0,<div class = centerbox><div class = fixation>+</div></div>,,,,281478,0.0,practice_fixation,32,poldrack-single-stim,
33,250.0,300.0,250.0,500.0,"<div class = bigbox><div class = centerbox><div class = starbox><img class = star src=""/static/experiments/stop_signal_with_flanker/images/stopSignal.png""></img></div></div></div>",go,,2000.0,F,,70.0,1.0,0.0,11.0,stop_signal_with_flanker,,,,,,F_congruent,F,0.0-0.0-33.0,70.0,"[70, 72]",,709,1000.0,"<div class = bigbox><div class = centerbox><div class = flankerLeft_2><div class = cue-text><img class = center src=""/static/experiments/stop_signal_with_flanker/images/F.png""></img></div></div><div class = flankerLeft_1><div class = cue-text><img class = center src=""/static/experiments/stop_signal_with_flanker/images/F.png""></img></div></div><div class = flankerMiddle><div class = cue-text><img class = center src=""/static/experiments/stop_signal_with_flanker/images/F.png""></img></div></div><div class = flankerRight_1><div class = cue-text><img class = center src=""/static/experiments/stop_signal_with_flanker/images/F.png""></img></div></div><div class = flankerRight_2><div class = cue-text><img class = center src=""/static/experiments/stop_signal_with_flanker/images/F.png""></img>",,go,,283483,0.0,practice_trial,33,stop-signal,
34,,,,,,,,500.0,,,,,,,stop_signal_with_flanker,,,,,,,,0.0-0.0-34.0,-1.0,none,,-1,500.0,"<div class = fb_box><div class = center-text><font size = 20>Correct!</font></div></div><ul style = ""text-align:left;""><font color=white><li>Indicate the identity of the middle letter</li><li>Do not respond if you see a star around the letters!</li><li>Do not slow down your responses to the letter to wait for the star.</li></font></ul>",,,,283988,0.0,practice-stop-feedback,34,poldrack-single-stim,
35,,,,,,,,500.0,,,,,,,stop_signal_with_flanker,,,,,,,,0.0-0.0-35.0,-1.0,none,,-1,500.0,<div class = centerbox><div class = fixation>+</div></div>,,,,284493,0.0,practice_fixation,35,poldrack-single-stim,
36,250.0,300.0,300.0,500.0,"<div class = bigbox><div class = centerbox><div class = starbox><img class = star src=""/static/experiments/stop_signal_with_flanker/images/stopSignal.png""></img></div></div></div>",stop,,2000.0,H,,-1.0,1.0,0.0,12.0,stop_signal_with_flanker,,,,,,H_incongruent,F,0.0-0.0-36.0,-1.0,"[70, 72]",,-1,1000.0,"<div class = bigbox><div class = centerbox><div class = flankerLeft_2><div class = cue-text><img class = center src=""/static/experiments/stop_signal_with_flanker/images/F.png""></img></div></div><div class = flankerLeft_1><div class = cue-text><img class = center src=""/static/experiments/stop_signal_with_flanker/images/F.png""></img></div></div><div class = flankerMiddle><div class = cue-text><img class = center src=""/static/experiments/stop_signal_with_flanker/images/H.png""></img></div></div><div class = flankerRight_1><div class = cue-text><img class = center src=""/static/experiments/stop_signal_with_flanker/images/F.png""></img></div></div><div class = flankerRight_2><div class = cue-text><img class = center src=""/static/experiments/stop_signal_with_flanker/images/F.png""></img>",1.0,stop,,286499,0.0,practice_trial,36,stop-signal,
37,,,,,,,,500.0,,,,,,,stop_signal_with_flanker,,,,,,,,0.0-0.0-37.0,-1.0,none,,-1,500.0,"<div class = fb_box><div class = center-text><font size = 20>Correct!</font></div></div><ul style = ""text-align:left;""><font color=white><li>Indicate the identity of the middle letter</li><li>Do not respond if you see a star around the letters!</li><li>Do not slow down your responses to the letter to wait for the star.</li></font></ul>",,,,287003,0.0,practice-stop-feedback,37,poldrack-single-stim,
38,,,,,,,,2269.0,,,,,,,stop_signal_with_flanker,,,,,,,,0.0-1.0,13.0,[13],,2269,2269.0,<div class = bigbox><div class = picture_box><p class = block-text><br>Please take this time to read your feedback and to take a short break! Press enter to continue.</p><p class = block-text>Done with this practice. Press Enter to continue.</p></div></div>,,,,289278,0.0,feedback_block,38,poldrack-single-stim,
39,,,,,,,,6915.0,,,,,,,stop_signal_with_flanker,,,,,,,,0.0-2.0,13.0,,,6915,,,,,"<div class = centerbox><p class = block-text>We will now start the test portion. In this experiment you will see a row of letters. If the middle letter is H, please press the H Key.  If the middle letter is F, press the F Key. Respond as quickly and accurately as possible. Ignore the letters not in the middle!</p> <p class = block-text>On some trials, you will see a star appear with or shortly after the letters. Do not respond if you see a star.  Do not slow down your responses to the letter in order to wait for the star.</p><p class = block-text>Press Enter to continue.</p></div>",296193,1000.0,instruction,39,poldrack-text,
40,,,,,,,,7005.0,,,,,,,stop_signal_with_flanker,,,,,,,,0.0-3.0-0.0,13.0,[13],,7005,7005.0,<div class = bigbox><div class = picture_box><p class = block-text>We will now start the test portion. Press enter to begin.</p></div></div>,,,,304202,0.0,feedback_block,40,poldrack-single-stim,
41,,,,,,,,2998.0,,True,40.0,,,,stop_signal_with_flanker,,,,,,,,0.0-3.0-1.0-0.0,40.0,[],,2998,2998.0,<p>Press the arrow key that indicates the direction of the floor when standing.</p>,,,,307202,200.0,attention_check,41,attention-check,
42,,,,,,,,500.0,,,,,,,stop_signal_with_flanker,,,,,,,,0.0-3.0-2.0,-1.0,none,,-1,500.0,<div class = centerbox><div class = fixation>+</div></div>,,,,307908,0.0,test_fixation,42,poldrack-single-stim,
43,250.0,350.0,250.0,500.0,"<div class = bigbox><div class = centerbox><div class = starbox><img class = star src=""/static/experiments/stop_signal_with_flanker/images/stopSignal.png""></img></div></div></div>",stop,,2000.0,H,,-1.0,1.0,0.0,1.0,stop_signal_with_flanker,,,,,,H_congruent,H,0.0-3.0-3.0,-1.0,"[70, 72]",,-1,1000.0,"<div class = bigbox><div class = centerbox><div class = flankerLeft_2><div class = cue-text><img class = center src=""/static/experiments/stop_signal_with_flanker/images/H.png""></img></div></div><div class = flankerLeft_1><div class = cue-text><img class = center src=""/static/experiments/stop_signal_with_flanker/images/H.png""></img></div></div><div class = flankerMiddle><div class = cue-text><img class = center src=""/static/experiments/stop_signal_with_flanker/images/H.png""></img></div></div><div class = flankerRight_1><div class = cue-text><img class = center src=""/static/experiments/stop_signal_with_flanker/images/H.png""></img></div></div><div class = flankerRight_2><div class = cue-text><img class = center src=""/static/experiments/stop_signal_with_flanker/images/H.png""></img>",1.0,stop,,309911,0.0,test_trial,43,stop-signal,
44,,,,,,,,500.0,,,,,,,stop_signal_with_flanker,,,,,,,,0.0-3.0-4.0,-1.0,none,,-1,500.0,<div class = centerbox><div class = fixation>+</div></div>,,,,310416,0.0,test_fixation,44,poldrack-single-stim,
45,300.0,350.0,300.0,500.0,"<div class = bigbox><div class = centerbox><div class = starbox><img class = star src=""/static/experiments/stop_signal_with_flanker/images/stopSignal.png""></img></div></div></div>",stop,,2000.0,F,,-1.0,0.0,0.0,2.0,stop_signal_with_flanker,,,,,,F_congruent,F,0.0-3.0-5.0,70.0,"[70, 72]",,412,1000.0,"<div class = bigbox><div class = centerbox><div class = flankerLeft_2><div class = cue-text><img class = center src=""/static/experiments/stop_signal_with_flanker/images/F.png""></img></div></div><div class = flankerLeft_1><div class = cue-text><img class = center src=""/static/experiments/stop_signal_with_flanker/images/F.png""></img></div></div><div class = flankerMiddle><div class = cue-text><img class = center src=""/static/experiments/stop_signal_with_flanker/images/F.png""></img></div></div><div class = flankerRight_1><div class = cue-text><img class = center src=""/static/experiments/stop_signal_with_flanker/images/F.png""></img></div></div><div class = flankerRight_2><div class = cue-text><img class = center src=""/static/experiments/stop_signal_with_flanker/images/F.png""></img>",0.0,stop,,312421,0.0,test_trial,45,stop-signal,
46,,,,,,,,500.0,,,,,,,stop_signal_with_flanker,,,,,,,,0.0-3.0-6.0,-1.0,none,,-1,500.0,<div class = centerbox><div class = fixation>+</div></div>,,,,312925,0.0,test_fixation,46,poldrack-single-stim,
47,250.0,350.0,350.0,500.0,"<div class = bigbox><div class = centerbox><div class = starbox><img class = star src=""/static/experiments/stop_signal_with_flanker/images/stopSignal.png""></img></div></div></div>",go,,2000.0,H,,72.0,1.0,0.0,3.0,stop_signal_with_flanker,,,,,,H_incongruent,F,0.0-3.0-7.0,72.0,"[70, 72]",,688,1000.0,"<div class = bigbox><div class = centerbox><div class = flankerLeft_2><div class = cue-text><img class = center src=""/static/experiments/stop_signal_with_flanker/images/F.png""></img></div></div><div class = flankerLeft_1><div class = cue-text><img class = center src=""/static/experiments/stop_signal_with_flanker/images/F.png""></img></div></div><div class = flankerMiddle><div class = cue-text><img class = center src=""/static/experiments/stop_signal_with_flanker/images/H.png""></img></div></div><div class = flankerRight_1><div class = cue-text><img class = center src=""/static/experiments/stop_signal_with_flanker/images/F.png""></img></div></div><div class = flankerRight_2><div class = cue-text><img class = center src=""/static/experiments/stop_signal_with_flanker/images/F.png""></img>",,go,,314930,0.0,test_trial,47,stop-signal,
48,,,,,,,,500.0,,,,,,,stop_signal_with_flanker,,,,,,,,0.0-3.0-8.0,-1.0,none,,-1,500.0,<div class = centerbox><div class = fixation>+</div></div>,,,,315434,0.0,test_fixation,48,poldrack-single-stim,
49,250.0,350.0,350.0,500.0,"<div class = bigbox><div class = centerbox><div class = starbox><img class = star src=""/static/experiments/stop_signal_with_flanker/images/stopSignal.png""></img></div></div></div>",go,,2000.0,F,,70.0,1.0,0.0,4.0,stop_signal_with_flanker,,,,,,F_incongruent,H,0.0-3.0-9.0,70.0,"[70, 72]",,547,1000.0,"<div class = bigbox><div class = centerbox><div class = flankerLeft_2><div class = cue-text><img class = center src=""/static/experiments/stop_signal_with_flanker/images/H.png""></img></div></div><div class = flankerLeft_1><div class = cue-text><img class = center src=""/static/experiments/stop_signal_with_flanker/images/H.png""></img></div></div><div class = flankerMiddle><div class = cue-text><img class = center src=""/static/experiments/stop_signal_with_flanker/images/F.png""></img></div></div><div class = flankerRight_1><div class = cue-text><img class = center src=""/static/experiments/stop_signal_with_flanker/images/H.png""></img></div></div><div class = flankerRight_2><div class = cue-text><img class = center src=""/static/experiments/stop_signal_with_flanker/images/H.png""></img>",,go,,317439,0.0,test_trial,49,stop-signal,
50,,,,,,,,500.0,,,,,,,stop_signal_with_flanker,,,,,,,,0.0-3.0-10.0,-1.0,none,,-1,500.0,<div class = centerbox><div class = fixation>+</div></div>,,,,317944,0.0,test_fixation,50,poldrack-single-stim,
51,250.0,350.0,350.0,500.0,"<div class = bigbox><div class = centerbox><div class = starbox><img class = star src=""/static/experiments/stop_signal_with_flanker/images/stopSignal.png""></img></div></div></div>",stop,,2000.0,F,,-1.0,0.0,0.0,5.0,stop_signal_with_flanker,,,,,,F_incongruent,H,0.0-3.0-11.0,70.0,"[70, 72]",,620,1000.0,"<div class = bigbox><div class = centerbox><div class = flankerLeft_2><div class = cue-text><img class = center src=""/static/experiments/stop_signal_with_flanker/images/H.png""></img></div></div><div class = flankerLeft_1><div class = cue-text><img class = center src=""/static/experiments/stop_signal_with_flanker/images/H.png""></img></div></div><div class = flankerMiddle><div class = cue-text><img class = center src=""/static/experiments/stop_signal_with_flanker/images/F.png""></img></div></div><div class = flankerRight_1><div class = cue-text><img class = center src=""/static/experiments/stop_signal_with_flanker/images/H.png""></img></div></div><div class = flankerRight_2><div class = cue-text><img class = center src=""/static/experiments/stop_signal_with_flanker/images/H.png""></img>",0.0,stop,,319950,0.0,test_trial,51,stop-signal,
52,,,,,,,,500.0,,,,,,,stop_signal_with_flanker,,,,,,,,0.0-3.0-12.0,-1.0,none,,-1,500.0,<div class = centerbox><div class = fixation>+</div></div>,,,,320453,0.0,test_fixation,52,poldrack-single-stim,
53,250.0,300.0,300.0,500.0,"<div class = bigbox><div class = centerbox><div class = starbox><img class = star src=""/static/experiments/stop_signal_with_flanker/images/stopSignal.png""></img></div></div></div>",go,,2000.0,H,,72.0,1.0,0.0,6.0,stop_signal_with_flanker,,,,,,H_incongruent,F,0.0-3.0-13.0,72.0,"[70, 72]",,623,1000.0,"<div class = bigbox><div class = centerbox><div class = flankerLeft_2><div class = cue-text><img class = center src=""/static/experiments/stop_signal_with_flanker/images/F.png""></img></div></div><div class = flankerLeft_1><div class = cue-text><img class = center src=""/static/experiments/stop_signal_with_flanker/images/F.png""></img></div></div><div class = flankerMiddle><div class = cue-text><img class = center src=""/static/experiments/stop_signal_with_flanker/images/H.png""></img></div></div><div class = flankerRight_1><div class = cue-text><img class = center src=""/static/experiments/stop_signal_with_flanker/images/F.png""></img></div></div><div class = flankerRight_2><div class = cue-text><img class = center src=""/static/experiments/stop_signal_with_flanker/images/F.png""></img>",,go,,322458,0.0,test_trial,53,stop-signal,
54,,,,,,,,500.0,,,,,,,stop_signal_with_flanker,,,,,,,,0.0-3.0-14.0,-1.0,none,,-1,500.0,<div class = centerbox><div class = fixation>+</div></div>,,,,322962,0.0,test_fixation,54,poldrack-single-stim,
55,250.0,300.0,250.0,500.0,"<div class = bigbox><div class = centerbox><div class = starbox><img class = star src=""/static/experiments/stop_signal_with_flanker/images/stopSignal.png""></img></div></div></div>",go,,2000.0,H,,72.0,1.0,0.0,7.0,stop_signal_with_flanker,,,,,,H_congruent,H,0.0-3.0-15.0,72.0,"[70, 72]",,553,1000.0,"<div class = bigbox><div class = centerbox><div class = flankerLeft_2><div class = cue-text><img class = center src=""/static/experiments/stop_signal_with_flanker/images/H.png""></img></div></div><div class = flankerLeft_1><div class = cue-text><img class = center src=""/static/experiments/stop_signal_with_flanker/images/H.png""></img></div></div><div class = flankerMiddle><div class = cue-text><img class = center src=""/static/experiments/stop_signal_with_flanker/images/H.png""></img></div></div><div class = flankerRight_1><div class = cue-text><img class = center src=""/static/experiments/stop_signal_with_flanker/images/H.png""></img></div></div><div class = flankerRight_2><div class = cue-text><img class = center src=""/static/experiments/stop_signal_with_flanker/images/H.png""></img>",,go,,324965,0.0,test_trial,55,stop-signal,
56,,,,,,,,500.0,,,,,,,stop_signal_with_flanker,,,,,,,,0.0-3.0-16.0,-1.0,none,,-1,500.0,<div class = centerbox><div class = fixation>+</div></div>,,,,325468,0.0,test_fixation,56,poldrack-single-stim,
57,250.0,300.0,300.0,500.0,"<div class = bigbox><div class = centerbox><div class = starbox><img class = star src=""/static/experiments/stop_signal_with_flanker/images/stopSignal.png""></img></div></div></div>",go,,2000.0,F,,70.0,1.0,0.0,8.0,stop_signal_with_flanker,,,,,,F_incongruent,H,0.0-3.0-17.0,70.0,"[70, 72]",,644,1000.0,"<div class = bigbox><div class = centerbox><div class = flankerLeft_2><div class = cue-text><img class = center src=""/static/experiments/stop_signal_with_flanker/images/H.png""></img></div></div><div class = flankerLeft_1><div class = cue-text><img class = center src=""/static/experiments/stop_signal_with_flanker/images/H.png""></img></div></div><div class = flankerMiddle><div class = cue-text><img class = center src=""/static/experiments/stop_signal_with_flanker/images/F.png""></img></div></div><div class = flankerRight_1><div class = cue-text><img class = center src=""/static/experiments/stop_signal_with_flanker/images/H.png""></img></div></div><div class = flankerRight_2><div class = cue-text><img class = center src=""/static/experiments/stop_signal_with_flanker/images/H.png""></img>",,go,,327473,0.0,test_trial,57,stop-signal,
58,,,,,,,,500.0,,,,,,,stop_signal_with_flanker,,,,,,,,0.0-3.0-18.0,-1.0,none,,-1,500.0,<div class = centerbox><div class = fixation>+</div></div>,,,,327977,0.0,test_fixation,58,poldrack-single-stim,
59,250.0,300.0,300.0,500.0,"<div class = bigbox><div class = centerbox><div class = starbox><img class = star src=""/static/experiments/stop_signal_with_flanker/images/stopSignal.png""></img></div></div></div>",go,,2000.0,H,,72.0,1.0,0.0,9.0,stop_signal_with_flanker,,,,,,H_incongruent,F,0.0-3.0-19.0,72.0,"[70, 72]",,646,1000.0,"<div class = bigbox><div class = centerbox><div class = flankerLeft_2><div class = cue-text><img class = center src=""/static/experiments/stop_signal_with_flanker/images/F.png""></img></div></div><div class = flankerLeft_1><div class = cue-text><img class = center src=""/static/experiments/stop_signal_with_flanker/images/F.png""></img></div></div><div class = flankerMiddle><div class = cue-text><img class = center src=""/static/experiments/stop_signal_with_flanker/images/H.png""></img></div></div><div class = flankerRight_1><div class = cue-text><img class = center src=""/static/experiments/stop_signal_with_flanker/images/F.png""></img></div></div><div class = flankerRight_2><div class = cue-text><img class = center src=""/static/experiments/stop_signal_with_flanker/images/F.png""></img>",,go,,329983,0.0,test_trial,59,stop-signal,
60,,,,,,,,500.0,,,,,,,stop_signal_with_flanker,,,,,,,,0.0-3.0-20.0,-1.0,none,,-1,500.0,<div class = centerbox><div class = fixation>+</div></div>,,,,330487,0.0,test_fixation,60,poldrack-single-stim,
61,250.0,300.0,300.0,500.0,"<div class = bigbox><div class = centerbox><div class = starbox><img class = star src=""/static/experiments/stop_signal_with_flanker/images/stopSignal.png""></img></div></div></div>",go,,2000.0,F,,70.0,1.0,0.0,10.0,stop_signal_with_flanker,,,,,,F_incongruent,H,0.0-3.0-21.0,70.0,"[70, 72]",,576,1000.0,"<div class = bigbox><div class = centerbox><div class = flankerLeft_2><div class = cue-text><img class = center src=""/static/experiments/stop_signal_with_flanker/images/H.png""></img></div></div><div class = flankerLeft_1><div class = cue-text><img class = center src=""/static/experiments/stop_signal_with_flanker/images/H.png""></img></div></div><div class = flankerMiddle><div class = cue-text><img class = center src=""/static/experiments/stop_signal_with_flanker/images/F.png""></img></div></div><div class = flankerRight_1><div class = cue-text><img class = center src=""/static/experiments/stop_signal_with_flanker/images/H.png""></img></div></div><div class = flankerRight_2><div class = cue-text><img class = center src=""/static/experiments/stop_signal_with_flanker/images/H.png""></img>",,go,,332492,0.0,test_trial,61,stop-signal,
62,,,,,,,,500.0,,,,,,,stop_signal_with_flanker,,,,,,,,0.0-3.0-22.0,-1.0,none,,-1,500.0,<div class = centerbox><div class = fixation>+</div></div>,,,,332997,0.0,test_fixation,62,poldrack-single-stim,
63,250.0,300.0,250.0,500.0,"<div class = bigbox><div class = centerbox><div class = starbox><img class = star src=""/static/experiments/stop_signal_with_flanker/images/stopSignal.png""></img></div></div></div>",go,,2000.0,H,,72.0,1.0,0.0,11.0,stop_signal_with_flanker,,,,,,H_congruent,H,0.0-3.0-23.0,72.0,"[70, 72]",,380,1000.0,"<div class = bigbox><div class = centerbox><div class = flankerLeft_2><div class = cue-text><img class = center src=""/static/experiments/stop_signal_with_flanker/images/H.png""></img></div></div><div class = flankerLeft_1><div class = cue-text><img class = center src=""/static/experiments/stop_signal_with_flanker/images/H.png""></img></div></div><div class = flankerMiddle><div class = cue-text><img class = center src=""/static/experiments/stop_signal_with_flanker/images/H.png""></img></div></div><div class = flankerRight_1><div class = cue-text><img class = center src=""/static/experiments/stop_signal_with_flanker/images/H.png""></img></div></div><div class = flankerRight_2><div class = cue-text><img class = center src=""/static/experiments/stop_signal_with_flanker/images/H.png""></img>",,go,,334999,0.0,test_trial,63,stop-signal,
64,,,,,,,,500.0,,,,,,,stop_signal_with_flanker,,,,,,,,0.0-3.0-24.0,-1.0,none,,-1,500.0,<div class = centerbox><div class = fixation>+</div></div>,,,,335504,0.0,test_fixation,64,poldrack-single-stim,
65,250.0,300.0,250.0,500.0,"<div class = bigbox><div class = centerbox><div class = starbox><img class = star src=""/static/experiments/stop_signal_with_flanker/images/stopSignal.png""></img></div></div></div>",go,,2000.0,F,,70.0,1.0,0.0,12.0,stop_signal_with_flanker,,,,,,F_congruent,F,0.0-3.0-25.0,70.0,"[70, 72]",,452,1000.0,"<div class = bigbox><div class = centerbox><div class = flankerLeft_2><div class = cue-text><img class = center src=""/static/experiments/stop_signal_with_flanker/images/F.png""></img></div></div><div class = flankerLeft_1><div class = cue-text><img class = center src=""/static/experiments/stop_signal_with_flanker/images/F.png""></img></div></div><div class = flankerMiddle><div class = cue-text><img class = center src=""/static/experiments/stop_signal_with_flanker/images/F.png""></img></div></div><div class = flankerRight_1><div class = cue-text><img class = center src=""/static/experiments/stop_signal_with_flanker/images/F.png""></img></div></div><div class = flankerRight_2><div class = cue-text><img class = center src=""/static/experiments/stop_signal_with_flanker/images/F.png""></img>",,go,,337509,0.0,test_trial,65,stop-signal,
66,,,,,,,,500.0,,,,,,,stop_signal_with_flanker,,,,,,,,0.0-3.0-26.0,-1.0,none,,-1,500.0,<div class = centerbox><div class = fixation>+</div></div>,,,,338012,0.0,test_fixation,66,poldrack-single-stim,
67,250.0,300.0,300.0,500.0,"<div class = bigbox><div class = centerbox><div class = starbox><img class = star src=""/static/experiments/stop_signal_with_flanker/images/stopSignal.png""></img></div></div></div>",stop,,2000.0,H,,-1.0,1.0,0.0,13.0,stop_signal_with_flanker,,,,,,H_incongruent,F,0.0-3.0-27.0,-1.0,"[70, 72]",,-1,1000.0,"<div class = bigbox><div class = centerbox><div class = flankerLeft_2><div class = cue-text><img class = center src=""/static/experiments/stop_signal_with_flanker/images/F.png""></img></div></div><div class = flankerLeft_1><div class = cue-text><img class = center src=""/static/experiments/stop_signal_with_flanker/images/F.png""></img></div></div><div class = flankerMiddle><div class = cue-text><img class = center src=""/static/experiments/stop_signal_with_flanker/images/H.png""></img></div></div><div class = flankerRight_1><div class = cue-text><img class = center src=""/static/experiments/stop_signal_with_flanker/images/F.png""></img></div></div><div class = flankerRight_2><div class = cue-text><img class = center src=""/static/experiments/stop_signal_with_flanker/images/F.png""></img>",1.0,stop,,340017,0.0,test_trial,67,stop-signal,
68,,,,,,,,500.0,,,,,,,stop_signal_with_flanker,,,,,,,,0.0-3.0-28.0,-1.0,none,,-1,500.0,<div class = centerbox><div class = fixation>+</div></div>,,,,340521,0.0,test_fixation,68,poldrack-single-stim,
69,250.0,350.0,250.0,500.0,"<div class = bigbox><div class = centerbox><div class = starbox><img class = star src=""/static/experiments/stop_signal_with_flanker/images/stopSignal.png""></img></div></div></div>",go,,2000.0,H,,72.0,1.0,0.0,14.0,stop_signal_with_flanker,,,,,,H_congruent,H,0.0-3.0-29.0,72.0,"[70, 72]",,446,1000.0,"<div class = bigbox><div class = centerbox><div class = flankerLeft_2><div class = cue-text><img class = center src=""/static/experiments/stop_signal_with_flanker/images/H.png""></img></div></div><div class = flankerLeft_1><div class = cue-text><img class = center src=""/static/experiments/stop_signal_with_flanker/images/H.png""></img></div></div><div class = flankerMiddle><div class = cue-text><img class = center src=""/static/experiments/stop_signal_with_flanker/images/H.png""></img></div></div><div class = flankerRight_1><div class = cue-text><img class = center src=""/static/experiments/stop_signal_with_flanker/images/H.png""></img></div></div><div class = flankerRight_2><div class = cue-text><img class = center src=""/static/experiments/stop_signal_with_flanker/images/H.png""></img>",,go,,342525,0.0,test_trial,69,stop-signal,
70,,,,,,,,500.0,,,,,,,stop_signal_with_flanker,,,,,,,,0.0-3.0-30.0,-1.0,none,,-1,500.0,<div class = centerbox><div class = fixation>+</div></div>,,,,343029,0.0,test_fixation,70,poldrack-single-stim,
71,250.0,350.0,250.0,500.0,"<div class = bigbox><div class = centerbox><div class = starbox><img class = star src=""/static/experiments/stop_signal_with_flanker/images/stopSignal.png""></img></div></div></div>",stop,,2000.0,F,,-1.0,0.0,0.0,15.0,stop_signal_with_flanker,,,,,,F_congruent,F,0.0-3.0-31.0,70.0,"[70, 72]",,391,1000.0,"<div class = bigbox><div class = centerbox><div class = flankerLeft_2><div class = cue-text><img class = center src=""/static/experiments/stop_signal_with_flanker/images/F.png""></img></div></div><div class = flankerLeft_1><div class = cue-text><img class = center src=""/static/experiments/stop_signal_with_flanker/images/F.png""></img></div></div><div class = flankerMiddle><div class = cue-text><img class = center src=""/static/experiments/stop_signal_with_flanker/images/F.png""></img></div></div><div class = flankerRight_1><div class = cue-text><img class = center src=""/static/experiments/stop_signal_with_flanker/images/F.png""></img></div></div><div class = flankerRight_2><div class = cue-text><img class = center src=""/static/experiments/stop_signal_with_flanker/images/F.png""></img>",0.0,stop,,345032,0.0,test_trial,71,stop-signal,
72,,,,,,,,500.0,,,,,,,stop_signal_with_flanker,,,,,,,,0.0-3.0-32.0,-1.0,none,,-1,500.0,<div class = centerbox><div class = fixation>+</div></div>,,,,345537,0.0,test_fixation,72,poldrack-single-stim,
73,200.0,350.0,350.0,500.0,"<div class = bigbox><div class = centerbox><div class = starbox><img class = star src=""/static/experiments/stop_signal_with_flanker/images/stopSignal.png""></img></div></div></div>",go,,2000.0,H,,72.0,1.0,0.0,16.0,stop_signal_with_flanker,,,,,,H_incongruent,F,0.0-3.0-33.0,72.0,"[70, 72]",,534,1000.0,"<div class = bigbox><div class = centerbox><div class = flankerLeft_2><div class = cue-text><img class = center src=""/static/experiments/stop_signal_with_flanker/images/F.png""></img></div></div><div class = flankerLeft_1><div class = cue-text><img class = center src=""/static/experiments/stop_signal_with_flanker/images/F.png""></img></div></div><div class = flankerMiddle><div class = cue-text><img class = center src=""/static/experiments/stop_signal_with_flanker/images/H.png""></img></div></div><div class = flankerRight_1><div class = cue-text><img class = center src=""/static/experiments/stop_signal_with_flanker/images/F.png""></img></div></div><div class = flankerRight_2><div class = cue-text><img class = center src=""/static/experiments/stop_signal_with_flanker/images/F.png""></img>",,go,,347544,0.0,test_trial,73,stop-signal,
74,,,,,,,,500.0,,,,,,,stop_signal_with_flanker,,,,,,,,0.0-3.0-34.0,-1.0,none,,-1,500.0,<div class = centerbox><div class = fixation>+</div></div>,,,,348049,0.0,test_fixation,74,poldrack-single-stim,
75,200.0,350.0,350.0,500.0,"<div class = bigbox><div class = centerbox><div class = starbox><img class = star src=""/static/experiments/stop_signal_with_flanker/images/stopSignal.png""></img></div></div></div>",go,,2000.0,F,,70.0,1.0,0.0,17.0,stop_signal_with_flanker,,,,,,F_incongruent,H,0.0-3.0-35.0,70.0,"[70, 72]",,447,1000.0,"<div class = bigbox><div class = centerbox><div class = flankerLeft_2><div class = cue-text><img class = center src=""/static/experiments/stop_signal_with_flanker/images/H.png""></img></div></div><div class = flankerLeft_1><div class = cue-text><img class = center src=""/static/experiments/stop_signal_with_flanker/images/H.png""></img></div></div><div class = flankerMiddle><div class = cue-text><img class = center src=""/static/experiments/stop_signal_with_flanker/images/F.png""></img></div></div><div class = flankerRight_1><div class = cue-text><img class = center src=""/static/experiments/stop_signal_with_flanker/images/H.png""></img></div></div><div class = flankerRight_2><div class = cue-text><img class = center src=""/static/experiments/stop_signal_with_flanker/images/H.png""></img>",,go,,350054,0.0,test_trial,75,stop-signal,
76,,,,,,,,500.0,,,,,,,stop_signal_with_flanker,,,,,,,,0.0-3.0-36.0,-1.0,none,,-1,500.0,<div class = centerbox><div class = fixation>+</div></div>,,,,350556,0.0,test_fixation,76,poldrack-single-stim,
77,200.0,350.0,350.0,500.0,"<div class = bigbox><div class = centerbox><div class = starbox><img class = star src=""/static/experiments/stop_signal_with_flanker/images/stopSignal.png""></img></div></div></div>",stop,,2000.0,F,,-1.0,0.0,0.0,18.0,stop_signal_with_flanker,,,,,,F_incongruent,H,0.0-3.0-37.0,72.0,"[70, 72]",,428,1000.0,"<div class = bigbox><div class = centerbox><div class = flankerLeft_2><div class = cue-text><img class = center src=""/static/experiments/stop_signal_with_flanker/images/H.png""></img></div></div><div class = flankerLeft_1><div class = cue-text><img class = center src=""/static/experiments/stop_signal_with_flanker/images/H.png""></img></div></div><div class = flankerMiddle><div class = cue-text><img class = center src=""/static/experiments/stop_signal_with_flanker/images/F.png""></img></div></div><div class = flankerRight_1><div class = cue-text><img class = center src=""/static/experiments/stop_signal_with_flanker/images/H.png""></img></div></div><div class = flankerRight_2><div class = cue-text><img class = center src=""/static/experiments/stop_signal_with_flanker/images/H.png""></img>",0.0,stop,,352559,0.0,test_trial,77,stop-signal,
78,,,,,,,,500.0,,,,,,,stop_signal_with_flanker,,,,,,,,0.0-3.0-38.0,-1.0,none,,-1,500.0,<div class = centerbox><div class = fixation>+</div></div>,,,,353063,0.0,test_fixation,78,poldrack-single-stim,
79,200.0,300.0,300.0,500.0,"<div class = bigbox><div class = centerbox><div class = starbox><img class = star src=""/static/experiments/stop_signal_with_flanker/images/stopSignal.png""></img></div></div></div>",stop,,2000.0,H,,-1.0,1.0,0.0,19.0,stop_signal_with_flanker,,,,,,H_incongruent,F,0.0-3.0-39.0,-1.0,"[70, 72]",,-1,1000.0,"<div class = bigbox><div class = centerbox><div class = flankerLeft_2><div class = cue-text><img class = center src=""/static/experiments/stop_signal_with_flanker/images/F.png""></img></div></div><div class = flankerLeft_1><div class = cue-text><img class = center src=""/static/experiments/stop_signal_with_flanker/images/F.png""></img></div></div><div class = flankerMiddle><div class = cue-text><img class = center src=""/static/experiments/stop_signal_with_flanker/images/H.png""></img></div></div><div class = flankerRight_1><div class = cue-text><img class = center src=""/static/experiments/stop_signal_with_flanker/images/F.png""></img></div></div><div class = flankerRight_2><div class = cue-text><img class = center src=""/static/experiments/stop_signal_with_flanker/images/F.png""></img>",1.0,stop,,355065,0.0,test_trial,79,stop-signal,
80,,,,,,,,500.0,,,,,,,stop_signal_with_flanker,,,,,,,,0.0-3.0-40.0,-1.0,none,,-1,500.0,<div class = centerbox><div class = fixation>+</div></div>,,,,355566,0.0,test_fixation,80,poldrack-single-stim,
81,200.0,350.0,350.0,500.0,"<div class = bigbox><div class = centerbox><div class = starbox><img class = star src=""/static/experiments/stop_signal_with_flanker/images/stopSignal.png""></img></div></div></div>",stop,,2000.0,F,,-1.0,1.0,0.0,20.0,stop_signal_with_flanker,,,,,,F_incongruent,H,0.0-3.0-41.0,-1.0,"[70, 72]",,-1,1000.0,"<div class = bigbox><div class = centerbox><div class = flankerLeft_2><div class = cue-text><img class = center src=""/static/experiments/stop_signal_with_flanker/images/H.png""></img></div></div><div class = flankerLeft_1><div class = cue-text><img class = center src=""/static/experiments/stop_signal_with_flanker/images/H.png""></img></div></div><div class = flankerMiddle><div class = cue-text><img class = center src=""/static/experiments/stop_signal_with_flanker/images/F.png""></img></div></div><div class = flankerRight_1><div class = cue-text><img class = center src=""/static/experiments/stop_signal_with_flanker/images/H.png""></img></div></div><div class = flankerRight_2><div class = cue-text><img class = center src=""/static/experiments/stop_signal_with_flanker/images/H.png""></img>",1.0,stop,,357569,0.0,test_trial,81,stop-signal,
82,,,,,,,,500.0,,,,,,,stop_signal_with_flanker,,,,,,,,0.0-3.0-42.0,-1.0,none,,-1,500.0,<div class = centerbox><div class = fixation>+</div></div>,,,,358071,0.0,test_fixation,82,poldrack-single-stim,
83,200.0,400.0,400.0,500.0,"<div class = bigbox><div class = centerbox><div class = starbox><img class = star src=""/static/experiments/stop_signal_with_flanker/images/stopSignal.png""></img></div></div></div>",go,,2000.0,F,,70.0,1.0,0.0,21.0,stop_signal_with_flanker,,,,,,F_incongruent,H,0.0-3.0-43.0,70.0,"[70, 72]",,427,1000.0,"<div class = bigbox><div class = centerbox><div class = flankerLeft_2><div class = cue-text><img class = center src=""/static/experiments/stop_signal_with_flanker/images/H.png""></img></div></div><div class = flankerLeft_1><div class = cue-text><img class = center src=""/static/experiments/stop_signal_with_flanker/images/H.png""></img></div></div><div class = flankerMiddle><div class = cue-text><img class = center src=""/static/experiments/stop_signal_with_flanker/images/F.png""></img></div></div><div class = flankerRight_1><div class = cue-text><img class = center src=""/static/experiments/stop_signal_with_flanker/images/H.png""></img></div></div><div class = flankerRight_2><div class = cue-text><img class = center src=""/static/experiments/stop_signal_with_flanker/images/H.png""></img>",,go,,360076,0.0,test_trial,83,stop-signal,
84,,,,,,,,500.0,,,,,,,stop_signal_with_flanker,,,,,,,,0.0-3.0-44.0,-1.0,none,,-1,500.0,<div class = centerbox><div class = fixation>+</div></div>,,,,360581,0.0,test_fixation,84,poldrack-single-stim,
85,200.0,400.0,200.0,500.0,"<div class = bigbox><div class = centerbox><div class = starbox><img class = star src=""/static/experiments/stop_signal_with_flanker/images/stopSignal.png""></img></div></div></div>",go,,2000.0,F,,70.0,1.0,0.0,22.0,stop_signal_with_flanker,,,,,,F_congruent,F,0.0-3.0-45.0,70.0,"[70, 72]",,460,1000.0,"<div class = bigbox><div class = centerbox><div class = flankerLeft_2><div class = cue-text><img class = center src=""/static/experiments/stop_signal_with_flanker/images/F.png""></img></div></div><div class = flankerLeft_1><div class = cue-text><img class = center src=""/static/experiments/stop_signal_with_flanker/images/F.png""></img></div></div><div class = flankerMiddle><div class = cue-text><img class = center src=""/static/experiments/stop_signal_with_flanker/images/F.png""></img></div></div><div class = flankerRight_1><div class = cue-text><img class = center src=""/static/experiments/stop_signal_with_flanker/images/F.png""></img></div></div><div class = flankerRight_2><div class = cue-text><img class = center src=""/static/experiments/stop_signal_with_flanker/images/F.png""></img>",,go,,362585,0.0,test_trial,85,stop-signal,
86,,,,,,,,500.0,,,,,,,stop_signal_with_flanker,,,,,,,,0.0-3.0-46.0,-1.0,none,,-1,500.0,<div class = centerbox><div class = fixation>+</div></div>,,,,363088,0.0,test_fixation,86,poldrack-single-stim,
87,200.0,400.0,200.0,500.0,"<div class = bigbox><div class = centerbox><div class = starbox><img class = star src=""/static/experiments/stop_signal_with_flanker/images/stopSignal.png""></img></div></div></div>",go,,2000.0,H,,72.0,1.0,0.0,23.0,stop_signal_with_flanker,,,,,,H_congruent,H,0.0-3.0-47.0,72.0,"[70, 72]",,594,1000.0,"<div class = bigbox><div class = centerbox><div class = flankerLeft_2><div class = cue-text><img class = center src=""/static/experiments/stop_signal_with_flanker/images/H.png""></img></div></div><div class = flankerLeft_1><div class = cue-text><img class = center src=""/static/experiments/stop_signal_with_flanker/images/H.png""></img></div></div><div class = flankerMiddle><div class = cue-text><img class = center src=""/static/experiments/stop_signal_with_flanker/images/H.png""></img></div></div><div class = flankerRight_1><div class = cue-text><img class = center src=""/static/experiments/stop_signal_with_flanker/images/H.png""></img></div></div><div class = flankerRight_2><div class = cue-text><img class = center src=""/static/experiments/stop_signal_with_flanker/images/H.png""></img>",,go,,365091,0.0,test_trial,87,stop-signal,
88,,,,,,,,500.0,,,,,,,stop_signal_with_flanker,,,,,,,,0.0-3.0-48.0,-1.0,none,,-1,500.0,<div class = centerbox><div class = fixation>+</div></div>,,,,365594,0.0,test_fixation,88,poldrack-single-stim,
89,200.0,400.0,200.0,500.0,"<div class = bigbox><div class = centerbox><div class = starbox><img class = star src=""/static/experiments/stop_signal_with_flanker/images/stopSignal.png""></img></div></div></div>",stop,,2000.0,H,,-1.0,1.0,0.0,24.0,stop_signal_with_flanker,,,,,,H_congruent,H,0.0-3.0-49.0,-1.0,"[70, 72]",,-1,1000.0,"<div class = bigbox><div class = centerbox><div class = flankerLeft_2><div class = cue-text><img class = center src=""/static/experiments/stop_signal_with_flanker/images/H.png""></img></div></div><div class = flankerLeft_1><div class = cue-text><img class = center src=""/static/experiments/stop_signal_with_flanker/images/H.png""></img></div></div><div class = flankerMiddle><div class = cue-text><img class = center src=""/static/experiments/stop_signal_with_flanker/images/H.png""></img></div></div><div class = flankerRight_1><div class = cue-text><img class = center src=""/static/experiments/stop_signal_with_flanker/images/H.png""></img></div></div><div class = flankerRight_2><div class = cue-text><img class = center src=""/static/experiments/stop_signal_with_flanker/images/H.png""></img>",1.0,stop,,367597,0.0,test_trial,89,stop-signal,
90,,,,,,,,500.0,,,,,,,stop_signal_with_flanker,,,,,,,,0.0-3.0-50.0,-1.0,none,,-1,500.0,<div class = centerbox><div class = fixation>+</div></div>,,,,368100,0.0,test_fixation,90,poldrack-single-stim,
91,250.0,400.0,250.0,500.0,"<div class = bigbox><div class = centerbox><div class = starbox><img class = star src=""/static/experiments/stop_signal_with_flanker/images/stopSignal.png""></img></div></div></div>",stop,,2000.0,F,,-1.0,1.0,0.0,25.0,stop_signal_with_flanker,,,,,,F_congruent,F,0.0-3.0-51.0,-1.0,"[70, 72]",,-1,1000.0,"<div class = bigbox><div class = centerbox><div class = flankerLeft_2><div class = cue-text><img class = center src=""/static/experiments/stop_signal_with_flanker/images/F.png""></img></div></div><div class = flankerLeft_1><div class = cue-text><img class = center src=""/static/experiments/stop_signal_with_flanker/images/F.png""></img></div></div><div class = flankerMiddle><div class = cue-text><img class = center src=""/static/experiments/stop_signal_with_flanker/images/F.png""></img></div></div><div class = flankerRight_1><div class = cue-text><img class = center src=""/static/experiments/stop_signal_with_flanker/images/F.png""></img></div></div><div class = flankerRight_2><div class = cue-text><img class = center src=""/static/experiments/stop_signal_with_flanker/images/F.png""></img>",1.0,stop,,370105,0.0,test_trial,91,stop-signal,
92,,,,,,,,500.0,,,,,,,stop_signal_with_flanker,,,,,,,,0.0-3.0-52.0,-1.0,none,,-1,500.0,<div class = centerbox><div class = fixation>+</div></div>,,,,370608,0.0,test_fixation,92,poldrack-single-stim,
93,300.0,400.0,300.0,500.0,"<div class = bigbox><div class = centerbox><div class = starbox><img class = star src=""/static/experiments/stop_signal_with_flanker/images/stopSignal.png""></img></div></div></div>",go,,2000.0,F,,70.0,1.0,0.0,26.0,stop_signal_with_flanker,,,,,,F_congruent,F,0.0-3.0-53.0,70.0,"[70, 72]",,521,1000.0,"<div class = bigbox><div class = centerbox><div class = flankerLeft_2><div class = cue-text><img class = center src=""/static/experiments/stop_signal_with_flanker/images/F.png""></img></div></div><div class = flankerLeft_1><div class = cue-text><img class = center src=""/static/experiments/stop_signal_with_flanker/images/F.png""></img></div></div><div class = flankerMiddle><div class = cue-text><img class = center src=""/static/experiments/stop_signal_with_flanker/images/F.png""></img></div></div><div class = flankerRight_1><div class = cue-text><img class = center src=""/static/experiments/stop_signal_with_flanker/images/F.png""></img></div></div><div class = flankerRight_2><div class = cue-text><img class = center src=""/static/experiments/stop_signal_with_flanker/images/F.png""></img>",,go,,372613,0.0,test_trial,93,stop-signal,
94,,,,,,,,500.0,,,,,,,stop_signal_with_flanker,,,,,,,,0.0-3.0-54.0,-1.0,none,,-1,500.0,<div class = centerbox><div class = fixation>+</div></div>,,,,373117,0.0,test_fixation,94,poldrack-single-stim,
95,300.0,400.0,400.0,500.0,"<div class = bigbox><div class = centerbox><div class = starbox><img class = star src=""/static/experiments/stop_signal_with_flanker/images/stopSignal.png""></img></div></div></div>",go,,2000.0,F,,70.0,1.0,0.0,27.0,stop_signal_with_flanker,,,,,,F_incongruent,H,0.0-3.0-55.0,70.0,"[70, 72]",,437,1000.0,"<div class = bigbox><div class = centerbox><div class = flankerLeft_2><div class = cue-text><img class = center src=""/static/experiments/stop_signal_with_flanker/images/H.png""></img></div></div><div class = flankerLeft_1><div class = cue-text><img class = center src=""/static/experiments/stop_signal_with_flanker/images/H.png""></img></div></div><div class = flankerMiddle><div class = cue-text><img class = center src=""/static/experiments/stop_signal_with_flanker/images/F.png""></img></div></div><div class = flankerRight_1><div class = cue-text><img class = center src=""/static/experiments/stop_signal_with_flanker/images/H.png""></img></div></div><div class = flankerRight_2><div class = cue-text><img class = center src=""/static/experiments/stop_signal_with_flanker/images/H.png""></img>",,go,,375122,0.0,test_trial,95,stop-signal,
96,,,,,,,,500.0,,,,,,,stop_signal_with_flanker,,,,,,,,0.0-3.0-56.0,-1.0,none,,-1,500.0,<div class = centerbox><div class = fixation>+</div></div>,,,,375624,0.0,test_fixation,96,poldrack-single-stim,
97,300.0,400.0,400.0,500.0,"<div class = bigbox><div class = centerbox><div class = starbox><img class = star src=""/static/experiments/stop_signal_with_flanker/images/stopSignal.png""></img></div></div></div>",go,,2000.0,H,,72.0,1.0,0.0,28.0,stop_signal_with_flanker,,,,,,H_incongruent,F,0.0-3.0-57.0,72.0,"[70, 72]",,569,1000.0,"<div class = bigbox><div class = centerbox><div class = flankerLeft_2><div class = cue-text><img class = center src=""/static/experiments/stop_signal_with_flanker/images/F.png""></img></div></div><div class = flankerLeft_1><div class = cue-text><img class = center src=""/static/experiments/stop_signal_with_flanker/images/F.png""></img></div></div><div class = flankerMiddle><div class = cue-text><img class = center src=""/static/experiments/stop_signal_with_flanker/images/H.png""></img></div></div><div class = flankerRight_1><div class = cue-text><img class = center src=""/static/experiments/stop_signal_with_flanker/images/F.png""></img></div></div><div class = flankerRight_2><div class = cue-text><img class = center src=""/static/experiments/stop_signal_with_flanker/images/F.png""></img>",,go,,377629,0.0,test_trial,97,stop-signal,
98,,,,,,,,500.0,,,,,,,stop_signal_with_flanker,,,,,,,,0.0-3.0-58.0,-1.0,none,,-1,500.0,<div class = centerbox><div class = fixation>+</div></div>,,,,378131,0.0,test_fixation,98,poldrack-single-stim,
99,300.0,400.0,300.0,500.0,"<div class = bigbox><div class = centerbox><div class = starbox><img class = star src=""/static/experiments/stop_signal_with_flanker/images/stopSignal.png""></img></div></div></div>",go,,2000.0,H,,72.0,1.0,0.0,29.0,stop_signal_with_flanker,,,,,,H_congruent,H,0.0-3.0-59.0,72.0,"[70, 72]",,702,1000.0,"<div class = bigbox><div class = centerbox><div class = flankerLeft_2><div class = cue-text><img class = center src=""/static/experiments/stop_signal_with_flanker/images/H.png""></img></div></div><div class = flankerLeft_1><div class = cue-text><img class = center src=""/static/experiments/stop_signal_with_flanker/images/H.png""></img></div></div><div class = flankerMiddle><div class = cue-text><img class = center src=""/static/experiments/stop_signal_with_flanker/images/H.png""></img></div></div><div class = flankerRight_1><div class = cue-text><img class = center src=""/static/experiments/stop_signal_with_flanker/images/H.png""></img></div></div><div class = flankerRight_2><div class = cue-text><img class = center src=""/static/experiments/stop_signal_with_flanker/images/H.png""></img>",,go,,380136,0.0,test_trial,99,stop-signal,
100,,,,,,,,500.0,,,,,,,stop_signal_with_flanker,,,,,,,,0.0-3.0-60.0,-1.0,none,,-1,500.0,<div class = centerbox><div class = fixation>+</div></div>,,,,380640,0.0,test_fixation,100,poldrack-single-stim,
101,300.0,400.0,300.0,500.0,"<div class = bigbox><div class = centerbox><div class = starbox><img class = star src=""/static/experiments/stop_signal_with_flanker/images/stopSignal.png""></img></div></div></div>",stop,,2000.0,H,,-1.0,0.0,0.0,30.0,stop_signal_with_flanker,,,,,,H_congruent,H,0.0-3.0-61.0,72.0,"[70, 72]",,418,1000.0,"<div class = bigbox><div class = centerbox><div class = flankerLeft_2><div class = cue-text><img class = center src=""/static/experiments/stop_signal_with_flanker/images/H.png""></img></div></div><div class = flankerLeft_1><div class = cue-text><img class = center src=""/static/experiments/stop_signal_with_flanker/images/H.png""></img></div></div><div class = flankerMiddle><div class = cue-text><img class = center src=""/static/experiments/stop_signal_with_flanker/images/H.png""></img></div></div><div class = flankerRight_1><div class = cue-text><img class = center src=""/static/experiments/stop_signal_with_flanker/images/H.png""></img></div></div><div class = flankerRight_2><div class = cue-text><img class = center src=""/static/experiments/stop_signal_with_flanker/images/H.png""></img>",0.0,stop,,382646,0.0,test_trial,101,stop-signal,
102,,,,,,,,500.0,,,,,,,stop_signal_with_flanker,,,,,,,,0.0-3.0-62.0,-1.0,none,,-1,500.0,<div class = centerbox><div class = fixation>+</div></div>,,,,383148,0.0,test_fixation,102,poldrack-single-stim,
103,250.0,400.0,250.0,500.0,"<div class = bigbox><div class = centerbox><div class = starbox><img class = star src=""/static/experiments/stop_signal_with_flanker/images/stopSignal.png""></img></div></div></div>",go,,2000.0,H,,72.0,1.0,0.0,31.0,stop_signal_with_flanker,,,,,,H_congruent,H,0.0-3.0-63.0,72.0,"[70, 72]",,552,1000.0,"<div class = bigbox><div class = centerbox><div class = flankerLeft_2><div class = cue-text><img class = center src=""/static/experiments/stop_signal_with_flanker/images/H.png""></img></div></div><div class = flankerLeft_1><div class = cue-text><img class = center src=""/static/experiments/stop_signal_with_flanker/images/H.png""></img></div></div><div class = flankerMiddle><div class = cue-text><img class = center src=""/static/experiments/stop_signal_with_flanker/images/H.png""></img></div></div><div class = flankerRight_1><div class = cue-text><img class = center src=""/static/experiments/stop_signal_with_flanker/images/H.png""></img></div></div><div class = flankerRight_2><div class = cue-text><img class = center src=""/static/experiments/stop_signal_with_flanker/images/H.png""></img>",,go,,385154,0.0,test_trial,103,stop-signal,
104,,,,,,,,500.0,,,,,,,stop_signal_with_flanker,,,,,,,,0.0-3.0-64.0,-1.0,none,,-1,500.0,<div class = centerbox><div class = fixation>+</div></div>,,,,385659,0.0,test_fixation,104,poldrack-single-stim,
105,250.0,400.0,400.0,500.0,"<div class = bigbox><div class = centerbox><div class = starbox><img class = star src=""/static/experiments/stop_signal_with_flanker/images/stopSignal.png""></img></div></div></div>",go,,2000.0,F,,70.0,1.0,0.0,32.0,stop_signal_with_flanker,,,,,,F_incongruent,H,0.0-3.0-65.0,70.0,"[70, 72]",,507,1000.0,"<div class = bigbox><div class = centerbox><div class = flankerLeft_2><div class = cue-text><img class = center src=""/static/experiments/stop_signal_with_flanker/images/H.png""></img></div></div><div class = flankerLeft_1><div class = cue-text><img class = center src=""/static/experiments/stop_signal_with_flanker/images/H.png""></img></div></div><div class = flankerMiddle><div class = cue-text><img class = center src=""/static/experiments/stop_signal_with_flanker/images/F.png""></img></div></div><div class = flankerRight_1><div class = cue-text><img class = center src=""/static/experiments/stop_signal_with_flanker/images/H.png""></img></div></div><div class = flankerRight_2><div class = cue-text><img class = center src=""/static/experiments/stop_signal_with_flanker/images/H.png""></img>",,go,,387665,0.0,test_trial,105,stop-signal,
106,,,,,,,,500.0,,,,,,,stop_signal_with_flanker,,,,,,,,0.0-3.0-66.0,-1.0,none,,-1,500.0,<div class = centerbox><div class = fixation>+</div></div>,,,,388169,0.0,test_fixation,106,poldrack-single-stim,
107,250.0,400.0,250.0,500.0,"<div class = bigbox><div class = centerbox><div class = starbox><img class = star src=""/static/experiments/stop_signal_with_flanker/images/stopSignal.png""></img></div></div></div>",go,,2000.0,F,,70.0,1.0,0.0,33.0,stop_signal_with_flanker,,,,,,F_congruent,F,0.0-3.0-67.0,70.0,"[70, 72]",,379,1000.0,"<div class = bigbox><div class = centerbox><div class = flankerLeft_2><div class = cue-text><img class = center src=""/static/experiments/stop_signal_with_flanker/images/F.png""></img></div></div><div class = flankerLeft_1><div class = cue-text><img class = center src=""/static/experiments/stop_signal_with_flanker/images/F.png""></img></div></div><div class = flankerMiddle><div class = cue-text><img class = center src=""/static/experiments/stop_signal_with_flanker/images/F.png""></img></div></div><div class = flankerRight_1><div class = cue-text><img class = center src=""/static/experiments/stop_signal_with_flanker/images/F.png""></img></div></div><div class = flankerRight_2><div class = cue-text><img class = center src=""/static/experiments/stop_signal_with_flanker/images/F.png""></img>",,go,,390175,0.0,test_trial,107,stop-signal,
108,,,,,,,,500.0,,,,,,,stop_signal_with_flanker,,,,,,,,0.0-3.0-68.0,-1.0,none,,-1,500.0,<div class = centerbox><div class = fixation>+</div></div>,,,,390680,0.0,test_fixation,108,poldrack-single-stim,
109,250.0,400.0,250.0,500.0,"<div class = bigbox><div class = centerbox><div class = starbox><img class = star src=""/static/experiments/stop_signal_with_flanker/images/stopSignal.png""></img></div></div></div>",go,,2000.0,H,,72.0,1.0,0.0,34.0,stop_signal_with_flanker,,,,,,H_congruent,H,0.0-3.0-69.0,72.0,"[70, 72]",,494,1000.0,"<div class = bigbox><div class = centerbox><div class = flankerLeft_2><div class = cue-text><img class = center src=""/static/experiments/stop_signal_with_flanker/images/H.png""></img></div></div><div class = flankerLeft_1><div class = cue-text><img class = center src=""/static/experiments/stop_signal_with_flanker/images/H.png""></img></div></div><div class = flankerMiddle><div class = cue-text><img class = center src=""/static/experiments/stop_signal_with_flanker/images/H.png""></img></div></div><div class = flankerRight_1><div class = cue-text><img class = center src=""/static/experiments/stop_signal_with_flanker/images/H.png""></img></div></div><div class = flankerRight_2><div class = cue-text><img class = center src=""/static/experiments/stop_signal_with_flanker/images/H.png""></img>",,go,,392685,0.0,test_trial,109,stop-signal,
110,,,,,,,,500.0,,,,,,,stop_signal_with_flanker,,,,,,,,0.0-3.0-70.0,-1.0,none,,-1,500.0,<div class = centerbox><div class = fixation>+</div></div>,,,,393189,0.0,test_fixation,110,poldrack-single-stim,
111,250.0,400.0,250.0,500.0,"<div class = bigbox><div class = centerbox><div class = starbox><img class = star src=""/static/experiments/stop_signal_with_flanker/images/stopSignal.png""></img></div></div></div>",go,,2000.0,H,,72.0,1.0,0.0,35.0,stop_signal_with_flanker,,,,,,H_congruent,H,0.0-3.0-71.0,72.0,"[70, 72]",,483,1000.0,"<div class = bigbox><div class = centerbox><div class = flankerLeft_2><div class = cue-text><img class = center src=""/static/experiments/stop_signal_with_flanker/images/H.png""></img></div></div><div class = flankerLeft_1><div class = cue-text><img class = center src=""/static/experiments/stop_signal_with_flanker/images/H.png""></img></div></div><div class = flankerMiddle><div class = cue-text><img class = center src=""/static/experiments/stop_signal_with_flanker/images/H.png""></img></div></div><div class = flankerRight_1><div class = cue-text><img class = center src=""/static/experiments/stop_signal_with_flanker/images/H.png""></img></div></div><div class = flankerRight_2><div class = cue-text><img class = center src=""/static/experiments/stop_signal_with_flanker/images/H.png""></img>",,go,,395193,0.0,test_trial,111,stop-signal,
112,,,,,,,,500.0,,,,,,,stop_signal_with_flanker,,,,,,,,0.0-3.0-72.0,-1.0,none,,-1,500.0,<div class = centerbox><div class = fixation>+</div></div>,,,,395695,0.0,test_fixation,112,poldrack-single-stim,
113,250.0,400.0,400.0,500.0,"<div class = bigbox><div class = centerbox><div class = starbox><img class = star src=""/static/experiments/stop_signal_with_flanker/images/stopSignal.png""></img></div></div></div>",stop,,2000.0,H,,-1.0,0.0,0.0,36.0,stop_signal_with_flanker,,,,,,H_incongruent,F,0.0-3.0-73.0,72.0,"[70, 72]",,391,1000.0,"<div class = bigbox><div class = centerbox><div class = flankerLeft_2><div class = cue-text><img class = center src=""/static/experiments/stop_signal_with_flanker/images/F.png""></img></div></div><div class = flankerLeft_1><div class = cue-text><img class = center src=""/static/experiments/stop_signal_with_flanker/images/F.png""></img></div></div><div class = flankerMiddle><div class = cue-text><img class = center src=""/static/experiments/stop_signal_with_flanker/images/H.png""></img></div></div><div class = flankerRight_1><div class = cue-text><img class = center src=""/static/experiments/stop_signal_with_flanker/images/F.png""></img></div></div><div class = flankerRight_2><div class = cue-text><img class = center src=""/static/experiments/stop_signal_with_flanker/images/F.png""></img>",0.0,stop,,397698,0.0,test_trial,113,stop-signal,
114,,,,,,,,500.0,,,,,,,stop_signal_with_flanker,,,,,,,,0.0-3.0-74.0,-1.0,none,,-1,500.0,<div class = centerbox><div class = fixation>+</div></div>,,,,398201,0.0,test_fixation,114,poldrack-single-stim,
115,250.0,350.0,350.0,500.0,"<div class = bigbox><div class = centerbox><div class = starbox><img class = star src=""/static/experiments/stop_signal_with_flanker/images/stopSignal.png""></img></div></div></div>",go,,2000.0,H,,72.0,0.0,0.0,37.0,stop_signal_with_flanker,,,,,,H_incongruent,F,0.0-3.0-75.0,70.0,"[70, 72]",,496,1000.0,"<div class = bigbox><div class = centerbox><div class = flankerLeft_2><div class = cue-text><img class = center src=""/static/experiments/stop_signal_with_flanker/images/F.png""></img></div></div><div class = flankerLeft_1><div class = cue-text><img class = center src=""/static/experiments/stop_signal_with_flanker/images/F.png""></img></div></div><div class = flankerMiddle><div class = cue-text><img class = center src=""/static/experiments/stop_signal_with_flanker/images/H.png""></img></div></div><div class = flankerRight_1><div class = cue-text><img class = center src=""/static/experiments/stop_signal_with_flanker/images/F.png""></img></div></div><div class = flankerRight_2><div class = cue-text><img class = center src=""/static/experiments/stop_signal_with_flanker/images/F.png""></img>",,go,,400205,0.0,test_trial,115,stop-signal,
116,,,,,,,,500.0,,,,,,,stop_signal_with_flanker,,,,,,,,0.0-3.0-76.0,-1.0,none,,-1,500.0,<div class = centerbox><div class = fixation>+</div></div>,,,,400709,0.0,test_fixation,116,poldrack-single-stim,
117,250.0,350.0,250.0,500.0,"<div class = bigbox><div class = centerbox><div class = starbox><img class = star src=""/static/experiments/stop_signal_with_flanker/images/stopSignal.png""></img></div></div></div>",stop,,2000.0,H,,-1.0,1.0,0.0,38.0,stop_signal_with_flanker,,,,,,H_congruent,H,0.0-3.0-77.0,-1.0,"[70, 72]",,-1,1000.0,"<div class = bigbox><div class = centerbox><div class = flankerLeft_2><div class = cue-text><img class = center src=""/static/experiments/stop_signal_with_flanker/images/H.png""></img></div></div><div class = flankerLeft_1><div class = cue-text><img class = center src=""/static/experiments/stop_signal_with_flanker/images/H.png""></img></div></div><div class = flankerMiddle><div class = cue-text><img class = center src=""/static/experiments/stop_signal_with_flanker/images/H.png""></img></div></div><div class = flankerRight_1><div class = cue-text><img class = center src=""/static/experiments/stop_signal_with_flanker/images/H.png""></img></div></div><div class = flankerRight_2><div class = cue-text><img class = center src=""/static/experiments/stop_signal_with_flanker/images/H.png""></img>",1.0,stop,,402714,0.0,test_trial,117,stop-signal,
118,,,,,,,,500.0,,,,,,,stop_signal_with_flanker,,,,,,,,0.0-3.0-78.0,-1.0,none,,-1,500.0,<div class = centerbox><div class = fixation>+</div></div>,,,,403218,0.0,test_fixation,118,poldrack-single-stim,
119,300.0,350.0,300.0,500.0,"<div class = bigbox><div class = centerbox><div class = starbox><img class = star src=""/static/experiments/stop_signal_with_flanker/images/stopSignal.png""></img></div></div></div>",stop,,2000.0,F,,-1.0,0.0,0.0,39.0,stop_signal_with_flanker,,,,,,F_congruent,F,0.0-3.0-79.0,70.0,"[70, 72]",,471,1000.0,"<div class = bigbox><div class = centerbox><div class = flankerLeft_2><div class = cue-text><img class = center src=""/static/experiments/stop_signal_with_flanker/images/F.png""></img></div></div><div class = flankerLeft_1><div class = cue-text><img class = center src=""/static/experiments/stop_signal_with_flanker/images/F.png""></img></div></div><div class = flankerMiddle><div class = cue-text><img class = center src=""/static/experiments/stop_signal_with_flanker/images/F.png""></img></div></div><div class = flankerRight_1><div class = cue-text><img class = center src=""/static/experiments/stop_signal_with_flanker/images/F.png""></img></div></div><div class = flankerRight_2><div class = cue-text><img class = center src=""/static/experiments/stop_signal_with_flanker/images/F.png""></img>",0.0,stop,,405224,0.0,test_trial,119,stop-signal,
120,,,,,,,,500.0,,,,,,,stop_signal_with_flanker,,,,,,,,0.0-3.0-80.0,-1.0,none,,-1,500.0,<div class = centerbox><div class = fixation>+</div></div>,,,,405727,0.0,test_fixation,120,poldrack-single-stim,
121,250.0,350.0,250.0,500.0,"<div class = bigbox><div class = centerbox><div class = starbox><img class = star src=""/static/experiments/stop_signal_with_flanker/images/stopSignal.png""></img></div></div></div>",go,,2000.0,F,,70.0,1.0,0.0,40.0,stop_signal_with_flanker,,,,,,F_congruent,F,0.0-3.0-81.0,70.0,"[70, 72]",,531,1000.0,"<div class = bigbox><div class = centerbox><div class = flankerLeft_2><div class = cue-text><img class = center src=""/static/experiments/stop_signal_with_flanker/images/F.png""></img></div></div><div class = flankerLeft_1><div class = cue-text><img class = center src=""/static/experiments/stop_signal_with_flanker/images/F.png""></img></div></div><div class = flankerMiddle><div class = cue-text><img class = center src=""/static/experiments/stop_signal_with_flanker/images/F.png""></img></div></div><div class = flankerRight_1><div class = cue-text><img class = center src=""/static/experiments/stop_signal_with_flanker/images/F.png""></img></div></div><div class = flankerRight_2><div class = cue-text><img class = center src=""/static/experiments/stop_signal_with_flanker/images/F.png""></img>",,go,,407732,0.0,test_trial,121,stop-signal,
122,,,,,,,,500.0,,,,,,,stop_signal_with_flanker,,,,,,,,0.0-3.0-82.0,-1.0,none,,-1,500.0,<div class = centerbox><div class = fixation>+</div></div>,,,,408234,0.0,test_fixation,122,poldrack-single-stim,
123,250.0,350.0,250.0,500.0,"<div class = bigbox><div class = centerbox><div class = starbox><img class = star src=""/static/experiments/stop_signal_with_flanker/images/stopSignal.png""></img></div></div></div>",go,,2000.0,F,,70.0,1.0,0.0,41.0,stop_signal_with_flanker,,,,,,F_congruent,F,0.0-3.0-83.0,70.0,"[70, 72]",,548,1000.0,"<div class = bigbox><div class = centerbox><div class = flankerLeft_2><div class = cue-text><img class = center src=""/static/experiments/stop_signal_with_flanker/images/F.png""></img></div></div><div class = flankerLeft_1><div class = cue-text><img class = center src=""/static/experiments/stop_signal_with_flanker/images/F.png""></img></div></div><div class = flankerMiddle><div class = cue-text><img class = center src=""/static/experiments/stop_signal_with_flanker/images/F.png""></img></div></div><div class = flankerRight_1><div class = cue-text><img class = center src=""/static/experiments/stop_signal_with_flanker/images/F.png""></img></div></div><div class = flankerRight_2><div class = cue-text><img class = center src=""/static/experiments/stop_signal_with_flanker/images/F.png""></img>",,go,,410240,0.0,test_trial,123,stop-signal,
124,,,,,,,,500.0,,,,,,,stop_signal_with_flanker,,,,,,,,0.0-3.0-84.0,-1.0,none,,-1,500.0,<div class = centerbox><div class = fixation>+</div></div>,,,,410744,0.0,test_fixation,124,poldrack-single-stim,
125,250.0,350.0,350.0,500.0,"<div class = bigbox><div class = centerbox><div class = starbox><img class = star src=""/static/experiments/stop_signal_with_flanker/images/stopSignal.png""></img></div></div></div>",go,,2000.0,H,,72.0,1.0,0.0,42.0,stop_signal_with_flanker,,,,,,H_incongruent,F,0.0-3.0-85.0,72.0,"[70, 72]",,578,1000.0,"<div class = bigbox><div class = centerbox><div class = flankerLeft_2><div class = cue-text><img class = center src=""/static/experiments/stop_signal_with_flanker/images/F.png""></img></div></div><div class = flankerLeft_1><div class = cue-text><img class = center src=""/static/experiments/stop_signal_with_flanker/images/F.png""></img></div></div><div class = flankerMiddle><div class = cue-text><img class = center src=""/static/experiments/stop_signal_with_flanker/images/H.png""></img></div></div><div class = flankerRight_1><div class = cue-text><img class = center src=""/static/experiments/stop_signal_with_flanker/images/F.png""></img></div></div><div class = flankerRight_2><div class = cue-text><img class = center src=""/static/experiments/stop_signal_with_flanker/images/F.png""></img>",,go,,412749,0.0,test_trial,125,stop-signal,
126,,,,,,,,500.0,,,,,,,stop_signal_with_flanker,,,,,,,,0.0-3.0-86.0,-1.0,none,,-1,500.0,<div class = centerbox><div class = fixation>+</div></div>,,,,413252,0.0,test_fixation,126,poldrack-single-stim,
127,250.0,350.0,350.0,500.0,"<div class = bigbox><div class = centerbox><div class = starbox><img class = star src=""/static/experiments/stop_signal_with_flanker/images/stopSignal.png""></img></div></div></div>",go,,2000.0,H,,72.0,1.0,0.0,43.0,stop_signal_with_flanker,,,,,,H_incongruent,F,0.0-3.0-87.0,72.0,"[70, 72]",,468,1000.0,"<div class = bigbox><div class = centerbox><div class = flankerLeft_2><div class = cue-text><img class = center src=""/static/experiments/stop_signal_with_flanker/images/F.png""></img></div></div><div class = flankerLeft_1><div class = cue-text><img class = center src=""/static/experiments/stop_signal_with_flanker/images/F.png""></img></div></div><div class = flankerMiddle><div class = cue-text><img class = center src=""/static/experiments/stop_signal_with_flanker/images/H.png""></img></div></div><div class = flankerRight_1><div class = cue-text><img class = center src=""/static/experiments/stop_signal_with_flanker/images/F.png""></img></div></div><div class = flankerRight_2><div class = cue-text><img class = center src=""/static/experiments/stop_signal_with_flanker/images/F.png""></img>",,go,,415258,0.0,test_trial,127,stop-signal,
128,,,,,,,,500.0,,,,,,,stop_signal_with_flanker,,,,,,,,0.0-3.0-88.0,-1.0,none,,-1,500.0,<div class = centerbox><div class = fixation>+</div></div>,,,,415761,0.0,test_fixation,128,poldrack-single-stim,
129,250.0,350.0,350.0,500.0,"<div class = bigbox><div class = centerbox><div class = starbox><img class = star src=""/static/experiments/stop_signal_with_flanker/images/stopSignal.png""></img></div></div></div>",stop,,2000.0,F,,-1.0,0.0,0.0,44.0,stop_signal_with_flanker,,,,,,F_incongruent,H,0.0-3.0-89.0,70.0,"[70, 72]",,529,1000.0,"<div class = bigbox><div class = centerbox><div class = flankerLeft_2><div class = cue-text><img class = center src=""/static/experiments/stop_signal_with_flanker/images/H.png""></img></div></div><div class = flankerLeft_1><div class = cue-text><img class = center src=""/static/experiments/stop_signal_with_flanker/images/H.png""></img></div></div><div class = flankerMiddle><div class = cue-text><img class = center src=""/static/experiments/stop_signal_with_flanker/images/F.png""></img></div></div><div class = flankerRight_1><div class = cue-text><img class = center src=""/static/experiments/stop_signal_with_flanker/images/H.png""></img></div></div><div class = flankerRight_2><div class = cue-text><img class = center src=""/static/experiments/stop_signal_with_flanker/images/H.png""></img>",0.0,stop,,417768,0.0,test_trial,129,stop-signal,
130,,,,,,,,500.0,,,,,,,stop_signal_with_flanker,,,,,,,,0.0-3.0-90.0,-1.0,none,,-1,500.0,<div class = centerbox><div class = fixation>+</div></div>,,,,418272,0.0,test_fixation,130,poldrack-single-stim,
131,250.0,300.0,300.0,500.0,"<div class = bigbox><div class = centerbox><div class = starbox><img class = star src=""/static/experiments/stop_signal_with_flanker/images/stopSignal.png""></img></div></div></div>",go,,2000.0,F,,70.0,1.0,0.0,45.0,stop_signal_with_flanker,,,,,,F_incongruent,H,0.0-3.0-91.0,70.0,"[70, 72]",,516,1000.0,"<div class = bigbox><div class = centerbox><div class = flankerLeft_2><div class = cue-text><img class = center src=""/static/experiments/stop_signal_with_flanker/images/H.png""></img></div></div><div class = flankerLeft_1><div class = cue-text><img class = center src=""/static/experiments/stop_signal_with_flanker/images/H.png""></img></div></div><div class = flankerMiddle><div class = cue-text><img class = center src=""/static/experiments/stop_signal_with_flanker/images/F.png""></img></div></div><div class = flankerRight_1><div class = cue-text><img class = center src=""/static/experiments/stop_signal_with_flanker/images/H.png""></img></div></div><div class = flankerRight_2><div class = cue-text><img class = center src=""/static/experiments/stop_signal_with_flanker/images/H.png""></img>",,go,,420276,0.0,test_trial,131,stop-signal,
132,,,,,,,,500.0,,,,,,,stop_signal_with_flanker,,,,,,,,0.0-3.0-92.0,-1.0,none,,-1,500.0,<div class = centerbox><div class = fixation>+</div></div>,,,,420780,0.0,test_fixation,132,poldrack-single-stim,
133,250.0,300.0,250.0,500.0,"<div class = bigbox><div class = centerbox><div class = starbox><img class = star src=""/static/experiments/stop_signal_with_flanker/images/stopSignal.png""></img></div></div></div>",go,,2000.0,F,,70.0,1.0,0.0,46.0,stop_signal_with_flanker,,,,,,F_congruent,F,0.0-3.0-93.0,70.0,"[70, 72]",,434,1000.0,"<div class = bigbox><div class = centerbox><div class = flankerLeft_2><div class = cue-text><img class = center src=""/static/experiments/stop_signal_with_flanker/images/F.png""></img></div></div><div class = flankerLeft_1><div class = cue-text><img class = center src=""/static/experiments/stop_signal_with_flanker/images/F.png""></img></div></div><div class = flankerMiddle><div class = cue-text><img class = center src=""/static/experiments/stop_signal_with_flanker/images/F.png""></img></div></div><div class = flankerRight_1><div class = cue-text><img class = center src=""/static/experiments/stop_signal_with_flanker/images/F.png""></img></div></div><div class = flankerRight_2><div class = cue-text><img class = center src=""/static/experiments/stop_signal_with_flanker/images/F.png""></img>",,go,,422782,0.0,test_trial,133,stop-signal,
134,,,,,,,,500.0,,,,,,,stop_signal_with_flanker,,,,,,,,0.0-3.0-94.0,-1.0,none,,-1,500.0,<div class = centerbox><div class = fixation>+</div></div>,,,,423284,0.0,test_fixation,134,poldrack-single-stim,
135,250.0,300.0,250.0,500.0,"<div class = bigbox><div class = centerbox><div class = starbox><img class = star src=""/static/experiments/stop_signal_with_flanker/images/stopSignal.png""></img></div></div></div>",go,,2000.0,F,,70.0,1.0,0.0,47.0,stop_signal_with_flanker,,,,,,F_congruent,F,0.0-3.0-95.0,70.0,"[70, 72]",,368,1000.0,"<div class = bigbox><div class = centerbox><div class = flankerLeft_2><div class = cue-text><img class = center src=""/static/experiments/stop_signal_with_flanker/images/F.png""></img></div></div><div class = flankerLeft_1><div class = cue-text><img class = center src=""/static/experiments/stop_signal_with_flanker/images/F.png""></img></div></div><div class = flankerMiddle><div class = cue-text><img class = center src=""/static/experiments/stop_signal_with_flanker/images/F.png""></img></div></div><div class = flankerRight_1><div class = cue-text><img class = center src=""/static/experiments/stop_signal_with_flanker/images/F.png""></img></div></div><div class = flankerRight_2><div class = cue-text><img class = center src=""/static/experiments/stop_signal_with_flanker/images/F.png""></img>",,go,,425290,0.0,test_trial,135,stop-signal,
136,,,,,,,,500.0,,,,,,,stop_signal_with_flanker,,,,,,,,0.0-3.0-96.0,-1.0,none,,-1,500.0,<div class = centerbox><div class = fixation>+</div></div>,,,,425793,0.0,test_fixation,136,poldrack-single-stim,
137,250.0,300.0,300.0,500.0,"<div class = bigbox><div class = centerbox><div class = starbox><img class = star src=""/static/experiments/stop_signal_with_flanker/images/stopSignal.png""></img></div></div></div>",stop,,2000.0,H,,-1.0,0.0,0.0,48.0,stop_signal_with_flanker,,,,,,H_incongruent,F,0.0-3.0-97.0,72.0,"[70, 72]",,504,1000.0,"<div class = bigbox><div class = centerbox><div class = flankerLeft_2><div class = cue-text><img class = center src=""/static/experiments/stop_signal_with_flanker/images/F.png""></img></div></div><div class = flankerLeft_1><div class = cue-text><img class = center src=""/static/experiments/stop_signal_with_flanker/images/F.png""></img></div></div><div class = flankerMiddle><div class = cue-text><img class = center src=""/static/experiments/stop_signal_with_flanker/images/H.png""></img></div></div><div class = flankerRight_1><div class = cue-text><img class = center src=""/static/experiments/stop_signal_with_flanker/images/F.png""></img></div></div><div class = flankerRight_2><div class = cue-text><img class = center src=""/static/experiments/stop_signal_with_flanker/images/F.png""></img>",0.0,stop,,427795,0.0,test_trial,137,stop-signal,
138,,,,,,,,19234.0,,,,,,,stop_signal_with_flanker,,,,,,,,0.0-3.1-0.1,13.0,[13],,19234,19234.0,<div class = bigbox><div class = picture_box><p class = block-text><br>Please take this time to read your feedback and to take a short break! Press enter to continue</p><p class = block-text>You have completed: 1 out of 5 blocks of trials.</p></div></div>,,,,447032,0.0,feedback_block,138,poldrack-single-stim,
139,,,,,,,,7248.0,,False,51.0,,,,stop_signal_with_flanker,,,,,,,,0.0-3.1-1.1-0.1,99.0,[],,7248,7248.0,<p>Press the number corresponding to the number of sides that a triangle has.<p>,,,,454281,200.0,attention_check,139,attention-check,
140,,,,,,,,500.0,,,,,,,stop_signal_with_flanker,,,,,,,,0.0-3.1-2.1,-1.0,none,,-1,500.0,<div class = centerbox><div class = fixation>+</div></div>,,,,454984,0.0,test_fixation,140,poldrack-single-stim,
141,250.0,250.0,250.0,500.0,"<div class = bigbox><div class = centerbox><div class = starbox><img class = star src=""/static/experiments/stop_signal_with_flanker/images/stopSignal.png""></img></div></div></div>",stop,,2000.0,H,,-1.0,1.0,1.0,1.0,stop_signal_with_flanker,,,,,,H_congruent,H,0.0-3.1-3.1,-1.0,"[70, 72]",,-1,1000.0,"<div class = bigbox><div class = centerbox><div class = flankerLeft_2><div class = cue-text><img class = center src=""/static/experiments/stop_signal_with_flanker/images/H.png""></img></div></div><div class = flankerLeft_1><div class = cue-text><img class = center src=""/static/experiments/stop_signal_with_flanker/images/H.png""></img></div></div><div class = flankerMiddle><div class = cue-text><img class = center src=""/static/experiments/stop_signal_with_flanker/images/H.png""></img></div></div><div class = flankerRight_1><div class = cue-text><img class = center src=""/static/experiments/stop_signal_with_flanker/images/H.png""></img></div></div><div class = flankerRight_2><div class = cue-text><img class = center src=""/static/experiments/stop_signal_with_flanker/images/H.png""></img>",1.0,stop,,456987,0.0,test_trial,141,stop-signal,
142,,,,,,,,500.0,,,,,,,stop_signal_with_flanker,,,,,,,,0.0-3.1-4.1,-1.0,none,,-1,500.0,<div class = centerbox><div class = fixation>+</div></div>,,,,457491,0.0,test_fixation,142,poldrack-single-stim,
143,300.0,250.0,250.0,500.0,"<div class = bigbox><div class = centerbox><div class = starbox><img class = star src=""/static/experiments/stop_signal_with_flanker/images/stopSignal.png""></img></div></div></div>",stop,,2000.0,H,,-1.0,1.0,1.0,2.0,stop_signal_with_flanker,,,,,,H_incongruent,F,0.0-3.1-5.1,-1.0,"[70, 72]",,-1,1000.0,"<div class = bigbox><div class = centerbox><div class = flankerLeft_2><div class = cue-text><img class = center src=""/static/experiments/stop_signal_with_flanker/images/F.png""></img></div></div><div class = flankerLeft_1><div class = cue-text><img class = center src=""/static/experiments/stop_signal_with_flanker/images/F.png""></img></div></div><div class = flankerMiddle><div class = cue-text><img class = center src=""/static/experiments/stop_signal_with_flanker/images/H.png""></img></div></div><div class = flankerRight_1><div class = cue-text><img class = center src=""/static/experiments/stop_signal_with_flanker/images/F.png""></img></div></div><div class = flankerRight_2><div class = cue-text><img class = center src=""/static/experiments/stop_signal_with_flanker/images/F.png""></img>",1.0,stop,,459494,0.0,test_trial,143,stop-signal,
144,,,,,,,,500.0,,,,,,,stop_signal_with_flanker,,,,,,,,0.0-3.1-6.1,-1.0,none,,-1,500.0,<div class = centerbox><div class = fixation>+</div></div>,,,,459998,0.0,test_fixation,144,poldrack-single-stim,
145,300.0,300.0,300.0,500.0,"<div class = bigbox><div class = centerbox><div class = starbox><img class = star src=""/static/experiments/stop_signal_with_flanker/images/stopSignal.png""></img></div></div></div>",go,,2000.0,F,,70.0,1.0,1.0,3.0,stop_signal_with_flanker,,,,,,F_incongruent,H,0.0-3.1-7.1,70.0,"[70, 72]",,566,1000.0,"<div class = bigbox><div class = centerbox><div class = flankerLeft_2><div class = cue-text><img class = center src=""/static/experiments/stop_signal_with_flanker/images/H.png""></img></div></div><div class = flankerLeft_1><div class = cue-text><img class = center src=""/static/experiments/stop_signal_with_flanker/images/H.png""></img></div></div><div class = flankerMiddle><div class = cue-text><img class = center src=""/static/experiments/stop_signal_with_flanker/images/F.png""></img></div></div><div class = flankerRight_1><div class = cue-text><img class = center src=""/static/experiments/stop_signal_with_flanker/images/H.png""></img></div></div><div class = flankerRight_2><div class = cue-text><img class = center src=""/static/experiments/stop_signal_with_flanker/images/H.png""></img>",,go,,462003,0.0,test_trial,145,stop-signal,
146,,,,,,,,500.0,,,,,,,stop_signal_with_flanker,,,,,,,,0.0-3.1-8.1,-1.0,none,,-1,500.0,<div class = centerbox><div class = fixation>+</div></div>,,,,462505,0.0,test_fixation,146,poldrack-single-stim,
147,300.0,300.0,300.0,500.0,"<div class = bigbox><div class = centerbox><div class = starbox><img class = star src=""/static/experiments/stop_signal_with_flanker/images/stopSignal.png""></img></div></div></div>",go,,2000.0,F,,70.0,1.0,1.0,4.0,stop_signal_with_flanker,,,,,,F_congruent,F,0.0-3.1-9.1,70.0,"[70, 72]",,456,1000.0,"<div class = bigbox><div class = centerbox><div class = flankerLeft_2><div class = cue-text><img class = center src=""/static/experiments/stop_signal_with_flanker/images/F.png""></img></div></div><div class = flankerLeft_1><div class = cue-text><img class = center src=""/static/experiments/stop_signal_with_flanker/images/F.png""></img></div></div><div class = flankerMiddle><div class = cue-text><img class = center src=""/static/experiments/stop_signal_with_flanker/images/F.png""></img></div></div><div class = flankerRight_1><div class = cue-text><img class = center src=""/static/experiments/stop_signal_with_flanker/images/F.png""></img></div></div><div class = flankerRight_2><div class = cue-text><img class = center src=""/static/experiments/stop_signal_with_flanker/images/F.png""></img>",,go,,464507,0.0,test_trial,147,stop-signal,
148,,,,,,,,500.0,,,,,,,stop_signal_with_flanker,,,,,,,,0.0-3.1-10.1,-1.0,none,,-1,500.0,<div class = centerbox><div class = fixation>+</div></div>,,,,465010,0.0,test_fixation,148,poldrack-single-stim,
149,300.0,300.0,300.0,500.0,"<div class = bigbox><div class = centerbox><div class = starbox><img class = star src=""/static/experiments/stop_signal_with_flanker/images/stopSignal.png""></img></div></div></div>",stop,,2000.0,F,,-1.0,0.0,1.0,5.0,stop_signal_with_flanker,,,,,,F_incongruent,H,0.0-3.1-11.1,70.0,"[70, 72]",,375,1000.0,"<div class = bigbox><div class = centerbox><div class = flankerLeft_2><div class = cue-text><img class = center src=""/static/experiments/stop_signal_with_flanker/images/H.png""></img></div></div><div class = flankerLeft_1><div class = cue-text><img class = center src=""/static/experiments/stop_signal_with_flanker/images/H.png""></img></div></div><div class = flankerMiddle><div class = cue-text><img class = center src=""/static/experiments/stop_signal_with_flanker/images/F.png""></img></div></div><div class = flankerRight_1><div class = cue-text><img class = center src=""/static/experiments/stop_signal_with_flanker/images/H.png""></img></div></div><div class = flankerRight_2><div class = cue-text><img class = center src=""/static/experiments/stop_signal_with_flanker/images/H.png""></img>",0.0,stop,,467014,0.0,test_trial,149,stop-signal,
150,,,,,,,,500.0,,,,,,,stop_signal_with_flanker,,,,,,,,0.0-3.1-12.1,-1.0,none,,-1,500.0,<div class = centerbox><div class = fixation>+</div></div>,,,,467518,0.0,test_fixation,150,poldrack-single-stim,
