,SS_delay,SS_duration,SS_stimulus,SS_trial_type,att_check_percent,block_duration,bottom_stim,correct_response,correct_trial,cue,current_block,current_trial,directed_forgetting_condition,exp_id,final_accuracy,final_avg_rt,final_credit_var,final_missed_percent,final_responses_ok,internal_node_id,key_press,possible_responses,probe,responses,rt,stim_duration,stimulus,stop_acc,stop_signal_condition,text,time_elapsed,timing_post_trial,top_stim,trial_id,trial_index,trial_type,view_history
0,,,,,,4878.0,,,,,,,,stop_signal_with_directed_forgetting,,,,,,0.0-0.0-0.0,13.0,[13],,,4878,4878.0,<div class = bigbox><div class = picture_box><p class = block-text>Welcome to the experiment. This experiment will take about 30 minutes. Press <i>enter</i> to begin.</p></div></div>,,,,4882,0.0,,feedback_block,0,poldrack-single-stim,
1,,,,,,,,,,,,,,stop_signal_with_directed_forgetting,,,,,,0.0-0.0-1.0,,,,,61066,,,,,,65950,,,instruction,1,poldrack-instructions,"[{""page_index"":0,""viewing_time"":18898},{""page_index"":1,""viewing_time"":8072},{""page_index"":2,""viewing_time"":21239},{""page_index"":3,""viewing_time"":12856}]"
2,,,,,,500.0,,,,,,,,stop_signal_with_directed_forgetting,,,,,,0.0-0.0-2.0,-1.0,none,,,-1,500.0,"<div class = centerbox><div class = fixation><span style=""color:white"">+</span></div></div>",,,,67459,0.0,,practice_fixation,2,poldrack-single-stim,
3,,,,,,2000.0,,,,,,,,stop_signal_with_directed_forgetting,,,,,,0.0-0.0-3.0,-1.0,none,,,-1,2000.0,"<div class = bigbox><div class = topLeft><div class = cue-text><img class = center src=""/static/experiments/stop_signal_with_directed_forgetting/images/M.png""></img></div></div><div class = topMiddle><div class = cue-text></div></div><div class = topRight><div class = cue-text><img class = center src=""/static/experiments/stop_signal_with_directed_forgetting/images/P.png""></img></div></div><div class = bottomLeft><div class = cue-text><img class = center src=""/static/experiments/stop_signal_with_directed_forgetting/images/Z.png""></img></div></div><div class = bottomMiddle><div class = cue-text></div></div><div class = bottomRight><div class = cue-text><img class = center src=""/static/experiments/stop_signal_with_directed_forgetting/images/A.png""></img></div></div></div>",,,,69467,0.0,,practice_stim,3,poldrack-single-stim,
4,,,,,,1000.0,,,,,,,,stop_signal_with_directed_forgetting,,,,,,0.0-0.0-4.0,-1.0,[],,,-1,1000.0,"<div class = bigbox><div class = centerbox><div class = cue-text><img class = center src=""/static/experiments/stop_signal_with_directed_forgetting/images/BOT.png""></img></font></div></div></div>",,,,70475,0.0,,practice_cue,4,poldrack-single-stim,
5,,,,,,2000.0,,,,,,,,stop_signal_with_directed_forgetting,,,,,,0.0-0.0-5.0,-1.0,none,,,-1,2000.0,"<div class = centerbox><div class = fixation><span style=""color:white"">+</span></div></div>",,,,72480,0.0,,practice_fixation,5,poldrack-single-stim,
6,350.0,500.0,"<div class = bigbox><div class = starbox><img class = center src=""/static/experiments/stop_signal_with_directed_forgetting/images/stopSignal.png""></img></div></div>",go,,1000.0,"['Z', 'A']",90.0,0.0,BOT,0.0,1.0,neg,stop_signal_with_directed_forgetting,,,,,,0.0-0.0-6.0,-1.0,"[77, 90]",Z,,-1,1000.0,"<div class = bigbox><div class = centerbox><div class = cue-text><img class = center src=""/static/experiments/stop_signal_with_directed_forgetting/images/Z.png""></img></font></div></div></div>",,go,,73489,0.0,"['M', 'P']",practice_trial,6,stop-signal,
7,,,,,,1000.0,,,,,,,,stop_signal_with_directed_forgetting,,,,,,0.0-0.0-7.0,90.0,"[77, 90]",,,3,1000.0,,,,,74494,0.0,,practice_ITI_fixation,7,poldrack-single-stim,
8,,,,,,500.0,,,,,,,,stop_signal_with_directed_forgetting,,,,,,0.0-0.0-8.0,-1.0,none,,,-1,500.0,"<div class = fb_box><div class = center-text><font size = 20>Respond Faster!</font></div></div><div class = prompt_box><p class = center-block-text style = ""font-size:16px; line-height:80%%;"">Please respond if the probe was in the memory set.</p><p class = center-block-text style = ""font-size:16px; line-height:80%%;"">In memory set: M Key</p><p class = center-block-text style = ""font-size:16px; line-height:80%%;"">Not in memory set: Z Key</p><p class = center-block-text style = ""font-size:16px; line-height:80%%;"">Do not respond if a star appears around the probe!</p></div>",,,,74999,0.0,,practice-stop-feedback,8,poldrack-single-stim,
9,,,,,,500.0,,,,,,,,stop_signal_with_directed_forgetting,,,,,,0.0-0.0-9.0,-1.0,none,,,-1,500.0,"<div class = centerbox><div class = fixation><span style=""color:white"">+</span></div></div>",,,,75507,0.0,,practice_fixation,9,poldrack-single-stim,
10,,,,,,2000.0,,,,,,,,stop_signal_with_directed_forgetting,,,,,,0.0-0.0-10.0,-1.0,none,,,-1,2000.0,"<div class = bigbox><div class = topLeft><div class = cue-text><img class = center src=""/static/experiments/stop_signal_with_directed_forgetting/images/K.png""></img></div></div><div class = topMiddle><div class = cue-text></div></div><div class = topRight><div class = cue-text><img class = center src=""/static/experiments/stop_signal_with_directed_forgetting/images/Y.png""></img></div></div><div class = bottomLeft><div class = cue-text><img class = center src=""/static/experiments/stop_signal_with_directed_forgetting/images/F.png""></img></div></div><div class = bottomMiddle><div class = cue-text></div></div><div class = bottomRight><div class = cue-text><img class = center src=""/static/experiments/stop_signal_with_directed_forgetting/images/B.png""></img></div></div></div>",,,,77512,0.0,,practice_stim,10,poldrack-single-stim,
11,,,,,,1000.0,,,,,,,,stop_signal_with_directed_forgetting,,,,,,0.0-0.0-11.0,-1.0,[],,,-1,1000.0,"<div class = bigbox><div class = centerbox><div class = cue-text><img class = center src=""/static/experiments/stop_signal_with_directed_forgetting/images/BOT.png""></img></font></div></div></div>",,,,78518,0.0,,practice_cue,11,poldrack-single-stim,
12,,,,,,2000.0,,,,,,,,stop_signal_with_directed_forgetting,,,,,,0.0-0.0-12.0,-1.0,none,,,-1,2000.0,"<div class = centerbox><div class = fixation><span style=""color:white"">+</span></div></div>",,,,80522,0.0,,practice_fixation,12,poldrack-single-stim,
13,350.0,500.0,"<div class = bigbox><div class = starbox><img class = center src=""/static/experiments/stop_signal_with_directed_forgetting/images/stopSignal.png""></img></div></div>",go,,1000.0,"['F', 'B']",90.0,1.0,BOT,0.0,2.0,con,stop_signal_with_directed_forgetting,,,,,,0.0-0.0-13.0,90.0,"[77, 90]",G,,760,1000.0,"<div class = bigbox><div class = centerbox><div class = cue-text><img class = center src=""/static/experiments/stop_signal_with_directed_forgetting/images/G.png""></img></font></div></div></div>",,go,,81529,0.0,"['K', 'Y']",practice_trial,13,stop-signal,
14,,,,,,1000.0,,,,,,,,stop_signal_with_directed_forgetting,,,,,,0.0-0.0-14.0,-1.0,"[77, 90]",,,-1,1000.0,,,,,82533,0.0,,practice_ITI_fixation,14,poldrack-single-stim,
15,,,,,,500.0,,,,,,,,stop_signal_with_directed_forgetting,,,,,,0.0-0.0-15.0,-1.0,none,,,-1,500.0,"<div class = fb_box><div class = center-text><font size = 20>Correct!</font></div></div><div class = prompt_box><p class = center-block-text style = ""font-size:16px; line-height:80%%;"">Please respond if the probe was in the memory set.</p><p class = center-block-text style = ""font-size:16px; line-height:80%%;"">In memory set: M Key</p><p class = center-block-text style = ""font-size:16px; line-height:80%%;"">Not in memory set: Z Key</p><p class = center-block-text style = ""font-size:16px; line-height:80%%;"">Do not respond if a star appears around the probe!</p></div>",,,,83038,0.0,,practice-stop-feedback,15,poldrack-single-stim,
16,,,,,,500.0,,,,,,,,stop_signal_with_directed_forgetting,,,,,,0.0-0.0-16.0,-1.0,none,,,-1,500.0,"<div class = centerbox><div class = fixation><span style=""color:white"">+</span></div></div>",,,,83543,0.0,,practice_fixation,16,poldrack-single-stim,
17,,,,,,2000.0,,,,,,,,stop_signal_with_directed_forgetting,,,,,,0.0-0.0-17.0,-1.0,none,,,-1,2000.0,"<div class = bigbox><div class = topLeft><div class = cue-text><img class = center src=""/static/experiments/stop_signal_with_directed_forgetting/images/L.png""></img></div></div><div class = topMiddle><div class = cue-text></div></div><div class = topRight><div class = cue-text><img class = center src=""/static/experiments/stop_signal_with_directed_forgetting/images/U.png""></img></div></div><div class = bottomLeft><div class = cue-text><img class = center src=""/static/experiments/stop_signal_with_directed_forgetting/images/T.png""></img></div></div><div class = bottomMiddle><div class = cue-text></div></div><div class = bottomRight><div class = cue-text><img class = center src=""/static/experiments/stop_signal_with_directed_forgetting/images/W.png""></img></div></div></div>",,,,85547,0.0,,practice_stim,17,poldrack-single-stim,
18,,,,,,1000.0,,,,,,,,stop_signal_with_directed_forgetting,,,,,,0.0-0.0-18.0,-1.0,[],,,-1,1000.0,"<div class = bigbox><div class = centerbox><div class = cue-text><img class = center src=""/static/experiments/stop_signal_with_directed_forgetting/images/TOP.png""></img></font></div></div></div>",,,,86555,0.0,,practice_cue,18,poldrack-single-stim,
19,,,,,,2000.0,,,,,,,,stop_signal_with_directed_forgetting,,,,,,0.0-0.0-19.0,-1.0,none,,,-1,2000.0,"<div class = centerbox><div class = fixation><span style=""color:white"">+</span></div></div>",,,,88559,0.0,,practice_fixation,19,poldrack-single-stim,
20,350.0,500.0,"<div class = bigbox><div class = starbox><img class = center src=""/static/experiments/stop_signal_with_directed_forgetting/images/stopSignal.png""></img></div></div>",go,,1000.0,"['T', 'W']",77.0,1.0,TOP,0.0,3.0,pos,stop_signal_with_directed_forgetting,,,,,,0.0-0.0-20.0,77.0,"[77, 90]",W,,747,1000.0,"<div class = bigbox><div class = centerbox><div class = cue-text><img class = center src=""/static/experiments/stop_signal_with_directed_forgetting/images/W.png""></img></font></div></div></div>",,go,,89563,0.0,"['L', 'U']",practice_trial,20,stop-signal,
21,,,,,,1000.0,,,,,,,,stop_signal_with_directed_forgetting,,,,,,0.0-0.0-21.0,-1.0,"[77, 90]",,,-1,1000.0,,,,,90567,0.0,,practice_ITI_fixation,21,poldrack-single-stim,
22,,,,,,500.0,,,,,,,,stop_signal_with_directed_forgetting,,,,,,0.0-0.0-22.0,-1.0,none,,,-1,500.0,"<div class = fb_box><div class = center-text><font size = 20>Correct!</font></div></div><div class = prompt_box><p class = center-block-text style = ""font-size:16px; line-height:80%%;"">Please respond if the probe was in the memory set.</p><p class = center-block-text style = ""font-size:16px; line-height:80%%;"">In memory set: M Key</p><p class = center-block-text style = ""font-size:16px; line-height:80%%;"">Not in memory set: Z Key</p><p class = center-block-text style = ""font-size:16px; line-height:80%%;"">Do not respond if a star appears around the probe!</p></div>",,,,91074,0.0,,practice-stop-feedback,22,poldrack-single-stim,
23,,,,,,500.0,,,,,,,,stop_signal_with_directed_forgetting,,,,,,0.0-0.0-23.0,-1.0,none,,,-1,500.0,"<div class = centerbox><div class = fixation><span style=""color:white"">+</span></div></div>",,,,91577,0.0,,practice_fixation,23,poldrack-single-stim,
24,,,,,,2000.0,,,,,,,,stop_signal_with_directed_forgetting,,,,,,0.0-0.0-24.0,-1.0,none,,,-1,2000.0,"<div class = bigbox><div class = topLeft><div class = cue-text><img class = center src=""/static/experiments/stop_signal_with_directed_forgetting/images/Q.png""></img></div></div><div class = topMiddle><div class = cue-text></div></div><div class = topRight><div class = cue-text><img class = center src=""/static/experiments/stop_signal_with_directed_forgetting/images/S.png""></img></div></div><div class = bottomLeft><div class = cue-text><img class = center src=""/static/experiments/stop_signal_with_directed_forgetting/images/J.png""></img></div></div><div class = bottomMiddle><div class = cue-text></div></div><div class = bottomRight><div class = cue-text><img class = center src=""/static/experiments/stop_signal_with_directed_forgetting/images/O.png""></img></div></div></div>",,,,93581,0.0,,practice_stim,24,poldrack-single-stim,
25,,,,,,1000.0,,,,,,,,stop_signal_with_directed_forgetting,,,,,,0.0-0.0-25.0,-1.0,[],,,-1,1000.0,"<div class = bigbox><div class = centerbox><div class = cue-text><img class = center src=""/static/experiments/stop_signal_with_directed_forgetting/images/TOP.png""></img></font></div></div></div>",,,,94586,0.0,,practice_cue,25,poldrack-single-stim,
26,,,,,,2000.0,,,,,,,,stop_signal_with_directed_forgetting,,,,,,0.0-0.0-26.0,-1.0,none,,,-1,2000.0,"<div class = centerbox><div class = fixation><span style=""color:white"">+</span></div></div>",,,,96593,0.0,,practice_fixation,26,poldrack-single-stim,
27,350.0,500.0,"<div class = bigbox><div class = starbox><img class = center src=""/static/experiments/stop_signal_with_directed_forgetting/images/stopSignal.png""></img></div></div>",stop,,1000.0,"['J', 'O']",-1.0,0.0,TOP,0.0,4.0,con,stop_signal_with_directed_forgetting,,,,,,0.0-0.0-27.0,90.0,"[77, 90]",E,,609,1000.0,"<div class = bigbox><div class = centerbox><div class = cue-text><img class = center src=""/static/experiments/stop_signal_with_directed_forgetting/images/E.png""></img></font></div></div></div>",0.0,stop,,97598,0.0,"['Q', 'S']",practice_trial,27,stop-signal,
28,,,,,,1000.0,,,,,,,,stop_signal_with_directed_forgetting,,,,,,0.0-0.0-28.0,-1.0,"[77, 90]",,,-1,1000.0,,,,,98601,0.0,,practice_ITI_fixation,28,poldrack-single-stim,
29,,,,,,500.0,,,,,,,,stop_signal_with_directed_forgetting,,,,,,0.0-0.0-29.0,-1.0,none,,,-1,500.0,"<div class = fb_box><div class = center-text><font size = 20>There was a star.</font></div></div><div class = prompt_box><p class = center-block-text style = ""font-size:16px; line-height:80%%;"">Please respond if the probe was in the memory set.</p><p class = center-block-text style = ""font-size:16px; line-height:80%%;"">In memory set: M Key</p><p class = center-block-text style = ""font-size:16px; line-height:80%%;"">Not in memory set: Z Key</p><p class = center-block-text style = ""font-size:16px; line-height:80%%;"">Do not respond if a star appears around the probe!</p></div>",,,,99107,0.0,,practice-stop-feedback,29,poldrack-single-stim,
30,,,,,,500.0,,,,,,,,stop_signal_with_directed_forgetting,,,,,,0.0-0.0-30.0,-1.0,none,,,-1,500.0,"<div class = centerbox><div class = fixation><span style=""color:white"">+</span></div></div>",,,,99613,0.0,,practice_fixation,30,poldrack-single-stim,
31,,,,,,2000.0,,,,,,,,stop_signal_with_directed_forgetting,,,,,,0.0-0.0-31.0,-1.0,none,,,-1,2000.0,"<div class = bigbox><div class = topLeft><div class = cue-text><img class = center src=""/static/experiments/stop_signal_with_directed_forgetting/images/B.png""></img></div></div><div class = topMiddle><div class = cue-text></div></div><div class = topRight><div class = cue-text><img class = center src=""/static/experiments/stop_signal_with_directed_forgetting/images/I.png""></img></div></div><div class = bottomLeft><div class = cue-text><img class = center src=""/static/experiments/stop_signal_with_directed_forgetting/images/C.png""></img></div></div><div class = bottomMiddle><div class = cue-text></div></div><div class = bottomRight><div class = cue-text><img class = center src=""/static/experiments/stop_signal_with_directed_forgetting/images/D.png""></img></div></div></div>",,,,101621,0.0,,practice_stim,31,poldrack-single-stim,
32,,,,,,1000.0,,,,,,,,stop_signal_with_directed_forgetting,,,,,,0.0-0.0-32.0,-1.0,[],,,-1,1000.0,"<div class = bigbox><div class = centerbox><div class = cue-text><img class = center src=""/static/experiments/stop_signal_with_directed_forgetting/images/BOT.png""></img></font></div></div></div>",,,,102629,0.0,,practice_cue,32,poldrack-single-stim,
33,,,,,,2000.0,,,,,,,,stop_signal_with_directed_forgetting,,,,,,0.0-0.0-33.0,-1.0,none,,,-1,2000.0,"<div class = centerbox><div class = fixation><span style=""color:white"">+</span></div></div>",,,,104632,0.0,,practice_fixation,33,poldrack-single-stim,
34,300.0,500.0,"<div class = bigbox><div class = starbox><img class = center src=""/static/experiments/stop_signal_with_directed_forgetting/images/stopSignal.png""></img></div></div>",go,,1000.0,"['C', 'D']",90.0,0.0,BOT,0.0,5.0,con,stop_signal_with_directed_forgetting,,,,,,0.0-0.0-34.0,77.0,"[77, 90]",A,,818,1000.0,"<div class = bigbox><div class = centerbox><div class = cue-text><img class = center src=""/static/experiments/stop_signal_with_directed_forgetting/images/A.png""></img></font></div></div></div>",,go,,105637,0.0,"['B', 'I']",practice_trial,34,stop-signal,
35,,,,,,1000.0,,,,,,,,stop_signal_with_directed_forgetting,,,,,,0.0-0.0-35.0,-1.0,"[77, 90]",,,-1,1000.0,,,,,106641,0.0,,practice_ITI_fixation,35,poldrack-single-stim,
36,,,,,,500.0,,,,,,,,stop_signal_with_directed_forgetting,,,,,,0.0-0.0-36.0,-1.0,none,,,-1,500.0,"<div class = fb_box><div class = center-text><font size = 20>Incorrect</font></div></div><div class = prompt_box><p class = center-block-text style = ""font-size:16px; line-height:80%%;"">Please respond if the probe was in the memory set.</p><p class = center-block-text style = ""font-size:16px; line-height:80%%;"">In memory set: M Key</p><p class = center-block-text style = ""font-size:16px; line-height:80%%;"">Not in memory set: Z Key</p><p class = center-block-text style = ""font-size:16px; line-height:80%%;"">Do not respond if a star appears around the probe!</p></div>",,,,107146,0.0,,practice-stop-feedback,36,poldrack-single-stim,
37,,,,,,500.0,,,,,,,,stop_signal_with_directed_forgetting,,,,,,0.0-0.0-37.0,-1.0,none,,,-1,500.0,"<div class = centerbox><div class = fixation><span style=""color:white"">+</span></div></div>",,,,107653,0.0,,practice_fixation,37,poldrack-single-stim,
38,,,,,,2000.0,,,,,,,,stop_signal_with_directed_forgetting,,,,,,0.0-0.0-38.0,-1.0,none,,,-1,2000.0,"<div class = bigbox><div class = topLeft><div class = cue-text><img class = center src=""/static/experiments/stop_signal_with_directed_forgetting/images/F.png""></img></div></div><div class = topMiddle><div class = cue-text></div></div><div class = topRight><div class = cue-text><img class = center src=""/static/experiments/stop_signal_with_directed_forgetting/images/T.png""></img></div></div><div class = bottomLeft><div class = cue-text><img class = center src=""/static/experiments/stop_signal_with_directed_forgetting/images/A.png""></img></div></div><div class = bottomMiddle><div class = cue-text></div></div><div class = bottomRight><div class = cue-text><img class = center src=""/static/experiments/stop_signal_with_directed_forgetting/images/H.png""></img></div></div></div>",,,,109661,0.0,,practice_stim,38,poldrack-single-stim,
39,,,,,,1000.0,,,,,,,,stop_signal_with_directed_forgetting,,,,,,0.0-0.0-39.0,-1.0,[],,,-1,1000.0,"<div class = bigbox><div class = centerbox><div class = cue-text><img class = center src=""/static/experiments/stop_signal_with_directed_forgetting/images/BOT.png""></img></font></div></div></div>",,,,110664,0.0,,practice_cue,39,poldrack-single-stim,
40,,,,,,2000.0,,,,,,,,stop_signal_with_directed_forgetting,,,,,,0.0-0.0-40.0,-1.0,none,,,-1,2000.0,"<div class = centerbox><div class = fixation><span style=""color:white"">+</span></div></div>",,,,112672,0.0,,practice_fixation,40,poldrack-single-stim,
41,300.0,500.0,"<div class = bigbox><div class = starbox><img class = center src=""/static/experiments/stop_signal_with_directed_forgetting/images/stopSignal.png""></img></div></div>",stop,,1000.0,"['A', 'H']",-1.0,1.0,BOT,0.0,6.0,pos,stop_signal_with_directed_forgetting,,,,,,0.0-0.0-41.0,-1.0,"[77, 90]",F,,-1,1000.0,"<div class = bigbox><div class = centerbox><div class = cue-text><img class = center src=""/static/experiments/stop_signal_with_directed_forgetting/images/F.png""></img></font></div></div></div>",1.0,stop,,113677,0.0,"['F', 'T']",practice_trial,41,stop-signal,
42,,,,,,1000.0,,,,,,,,stop_signal_with_directed_forgetting,,,,,,0.0-0.0-42.0,-1.0,"[77, 90]",,,-1,1000.0,,,,,114684,0.0,,practice_ITI_fixation,42,poldrack-single-stim,
43,,,,,,500.0,,,,,,,,stop_signal_with_directed_forgetting,,,,,,0.0-0.0-43.0,-1.0,none,,,-1,500.0,"<div class = fb_box><div class = center-text><font size = 20>Correct!</font></div></div><div class = prompt_box><p class = center-block-text style = ""font-size:16px; line-height:80%%;"">Please respond if the probe was in the memory set.</p><p class = center-block-text style = ""font-size:16px; line-height:80%%;"">In memory set: M Key</p><p class = center-block-text style = ""font-size:16px; line-height:80%%;"">Not in memory set: Z Key</p><p class = center-block-text style = ""font-size:16px; line-height:80%%;"">Do not respond if a star appears around the probe!</p></div>",,,,115190,0.0,,practice-stop-feedback,43,poldrack-single-stim,
44,,,,,,500.0,,,,,,,,stop_signal_with_directed_forgetting,,,,,,0.0-0.0-44.0,-1.0,none,,,-1,500.0,"<div class = centerbox><div class = fixation><span style=""color:white"">+</span></div></div>",,,,115697,0.0,,practice_fixation,44,poldrack-single-stim,
45,,,,,,2000.0,,,,,,,,stop_signal_with_directed_forgetting,,,,,,0.0-0.0-45.0,-1.0,none,,,-1,2000.0,"<div class = bigbox><div class = topLeft><div class = cue-text><img class = center src=""/static/experiments/stop_signal_with_directed_forgetting/images/P.png""></img></div></div><div class = topMiddle><div class = cue-text></div></div><div class = topRight><div class = cue-text><img class = center src=""/static/experiments/stop_signal_with_directed_forgetting/images/O.png""></img></div></div><div class = bottomLeft><div class = cue-text><img class = center src=""/static/experiments/stop_signal_with_directed_forgetting/images/S.png""></img></div></div><div class = bottomMiddle><div class = cue-text></div></div><div class = bottomRight><div class = cue-text><img class = center src=""/static/experiments/stop_signal_with_directed_forgetting/images/R.png""></img></div></div></div>",,,,117704,0.0,,practice_stim,45,poldrack-single-stim,
46,,,,,,1000.0,,,,,,,,stop_signal_with_directed_forgetting,,,,,,0.0-0.0-46.0,-1.0,[],,,-1,1000.0,"<div class = bigbox><div class = centerbox><div class = cue-text><img class = center src=""/static/experiments/stop_signal_with_directed_forgetting/images/TOP.png""></img></font></div></div></div>",,,,118710,0.0,,practice_cue,46,poldrack-single-stim,
47,,,,,,2000.0,,,,,,,,stop_signal_with_directed_forgetting,,,,,,0.0-0.0-47.0,-1.0,none,,,-1,2000.0,"<div class = centerbox><div class = fixation><span style=""color:white"">+</span></div></div>",,,,120712,0.0,,practice_fixation,47,poldrack-single-stim,
48,350.0,500.0,"<div class = bigbox><div class = starbox><img class = center src=""/static/experiments/stop_signal_with_directed_forgetting/images/stopSignal.png""></img></div></div>",stop,,1000.0,"['S', 'R']",-1.0,0.0,TOP,0.0,7.0,neg,stop_signal_with_directed_forgetting,,,,,,0.0-0.0-48.0,90.0,"[77, 90]",O,,617,1000.0,"<div class = bigbox><div class = centerbox><div class = cue-text><img class = center src=""/static/experiments/stop_signal_with_directed_forgetting/images/O.png""></img></font></div></div></div>",0.0,stop,,121716,0.0,"['P', 'O']",practice_trial,48,stop-signal,
49,,,,,,1000.0,,,,,,,,stop_signal_with_directed_forgetting,,,,,,0.0-0.0-49.0,-1.0,"[77, 90]",,,-1,1000.0,,,,,122723,0.0,,practice_ITI_fixation,49,poldrack-single-stim,
50,,,,,,500.0,,,,,,,,stop_signal_with_directed_forgetting,,,,,,0.0-0.0-50.0,-1.0,none,,,-1,500.0,"<div class = fb_box><div class = center-text><font size = 20>There was a star.</font></div></div><div class = prompt_box><p class = center-block-text style = ""font-size:16px; line-height:80%%;"">Please respond if the probe was in the memory set.</p><p class = center-block-text style = ""font-size:16px; line-height:80%%;"">In memory set: M Key</p><p class = center-block-text style = ""font-size:16px; line-height:80%%;"">Not in memory set: Z Key</p><p class = center-block-text style = ""font-size:16px; line-height:80%%;"">Do not respond if a star appears around the probe!</p></div>",,,,123230,0.0,,practice-stop-feedback,50,poldrack-single-stim,
51,,,,,,500.0,,,,,,,,stop_signal_with_directed_forgetting,,,,,,0.0-0.0-51.0,-1.0,none,,,-1,500.0,"<div class = centerbox><div class = fixation><span style=""color:white"">+</span></div></div>",,,,123735,0.0,,practice_fixation,51,poldrack-single-stim,
52,,,,,,2000.0,,,,,,,,stop_signal_with_directed_forgetting,,,,,,0.0-0.0-52.0,-1.0,none,,,-1,2000.0,"<div class = bigbox><div class = topLeft><div class = cue-text><img class = center src=""/static/experiments/stop_signal_with_directed_forgetting/images/V.png""></img></div></div><div class = topMiddle><div class = cue-text></div></div><div class = topRight><div class = cue-text><img class = center src=""/static/experiments/stop_signal_with_directed_forgetting/images/L.png""></img></div></div><div class = bottomLeft><div class = cue-text><img class = center src=""/static/experiments/stop_signal_with_directed_forgetting/images/C.png""></img></div></div><div class = bottomMiddle><div class = cue-text></div></div><div class = bottomRight><div class = cue-text><img class = center src=""/static/experiments/stop_signal_with_directed_forgetting/images/J.png""></img></div></div></div>",,,,125743,0.0,,practice_stim,52,poldrack-single-stim,
53,,,,,,1000.0,,,,,,,,stop_signal_with_directed_forgetting,,,,,,0.0-0.0-53.0,-1.0,[],,,-1,1000.0,"<div class = bigbox><div class = centerbox><div class = cue-text><img class = center src=""/static/experiments/stop_signal_with_directed_forgetting/images/TOP.png""></img></font></div></div></div>",,,,126751,0.0,,practice_cue,53,poldrack-single-stim,
54,,,,,,2000.0,,,,,,,,stop_signal_with_directed_forgetting,,,,,,0.0-0.0-54.0,-1.0,none,,,-1,2000.0,"<div class = centerbox><div class = fixation><span style=""color:white"">+</span></div></div>",,,,128759,0.0,,practice_fixation,54,poldrack-single-stim,
55,300.0,500.0,"<div class = bigbox><div class = starbox><img class = center src=""/static/experiments/stop_signal_with_directed_forgetting/images/stopSignal.png""></img></div></div>",go,,1000.0,"['C', 'J']",77.0,1.0,TOP,0.0,8.0,pos,stop_signal_with_directed_forgetting,,,,,,0.0-0.0-55.0,77.0,"[77, 90]",J,,888,1000.0,"<div class = bigbox><div class = centerbox><div class = cue-text><img class = center src=""/static/experiments/stop_signal_with_directed_forgetting/images/J.png""></img></font></div></div></div>",,go,,129767,0.0,"['V', 'L']",practice_trial,55,stop-signal,
56,,,,,,1000.0,,,,,,,,stop_signal_with_directed_forgetting,,,,,,0.0-0.0-56.0,-1.0,"[77, 90]",,,-1,1000.0,,,,,130771,0.0,,practice_ITI_fixation,56,poldrack-single-stim,
57,,,,,,500.0,,,,,,,,stop_signal_with_directed_forgetting,,,,,,0.0-0.0-57.0,-1.0,none,,,-1,500.0,"<div class = fb_box><div class = center-text><font size = 20>Correct!</font></div></div><div class = prompt_box><p class = center-block-text style = ""font-size:16px; line-height:80%%;"">Please respond if the probe was in the memory set.</p><p class = center-block-text style = ""font-size:16px; line-height:80%%;"">In memory set: M Key</p><p class = center-block-text style = ""font-size:16px; line-height:80%%;"">Not in memory set: Z Key</p><p class = center-block-text style = ""font-size:16px; line-height:80%%;"">Do not respond if a star appears around the probe!</p></div>",,,,131277,0.0,,practice-stop-feedback,57,poldrack-single-stim,
58,,,,,,500.0,,,,,,,,stop_signal_with_directed_forgetting,,,,,,0.0-0.0-58.0,-1.0,none,,,-1,500.0,"<div class = centerbox><div class = fixation><span style=""color:white"">+</span></div></div>",,,,131782,0.0,,practice_fixation,58,poldrack-single-stim,
59,,,,,,2000.0,,,,,,,,stop_signal_with_directed_forgetting,,,,,,0.0-0.0-59.0,-1.0,none,,,-1,2000.0,"<div class = bigbox><div class = topLeft><div class = cue-text><img class = center src=""/static/experiments/stop_signal_with_directed_forgetting/images/T.png""></img></div></div><div class = topMiddle><div class = cue-text></div></div><div class = topRight><div class = cue-text><img class = center src=""/static/experiments/stop_signal_with_directed_forgetting/images/W.png""></img></div></div><div class = bottomLeft><div class = cue-text><img class = center src=""/static/experiments/stop_signal_with_directed_forgetting/images/D.png""></img></div></div><div class = bottomMiddle><div class = cue-text></div></div><div class = bottomRight><div class = cue-text><img class = center src=""/static/experiments/stop_signal_with_directed_forgetting/images/U.png""></img></div></div></div>",,,,133787,0.0,,practice_stim,59,poldrack-single-stim,
60,,,,,,1000.0,,,,,,,,stop_signal_with_directed_forgetting,,,,,,0.0-0.0-60.0,-1.0,[],,,-1,1000.0,"<div class = bigbox><div class = centerbox><div class = cue-text><img class = center src=""/static/experiments/stop_signal_with_directed_forgetting/images/TOP.png""></img></font></div></div></div>",,,,134795,0.0,,practice_cue,60,poldrack-single-stim,
61,,,,,,2000.0,,,,,,,,stop_signal_with_directed_forgetting,,,,,,0.0-0.0-61.0,-1.0,none,,,-1,2000.0,"<div class = centerbox><div class = fixation><span style=""color:white"">+</span></div></div>",,,,136803,0.0,,practice_fixation,61,poldrack-single-stim,
62,300.0,500.0,"<div class = bigbox><div class = starbox><img class = center src=""/static/experiments/stop_signal_with_directed_forgetting/images/stopSignal.png""></img></div></div>",go,,1000.0,"['D', 'U']",77.0,1.0,TOP,0.0,9.0,pos,stop_signal_with_directed_forgetting,,,,,,0.0-0.0-62.0,77.0,"[77, 90]",U,,614,1000.0,"<div class = bigbox><div class = centerbox><div class = cue-text><img class = center src=""/static/experiments/stop_signal_with_directed_forgetting/images/U.png""></img></font></div></div></div>",,go,,137811,0.0,"['T', 'W']",practice_trial,62,stop-signal,
63,,,,,,1000.0,,,,,,,,stop_signal_with_directed_forgetting,,,,,,0.0-0.0-63.0,-1.0,"[77, 90]",,,-1,1000.0,,,,,138818,0.0,,practice_ITI_fixation,63,poldrack-single-stim,
64,,,,,,500.0,,,,,,,,stop_signal_with_directed_forgetting,,,,,,0.0-0.0-64.0,-1.0,none,,,-1,500.0,"<div class = fb_box><div class = center-text><font size = 20>Correct!</font></div></div><div class = prompt_box><p class = center-block-text style = ""font-size:16px; line-height:80%%;"">Please respond if the probe was in the memory set.</p><p class = center-block-text style = ""font-size:16px; line-height:80%%;"">In memory set: M Key</p><p class = center-block-text style = ""font-size:16px; line-height:80%%;"">Not in memory set: Z Key</p><p class = center-block-text style = ""font-size:16px; line-height:80%%;"">Do not respond if a star appears around the probe!</p></div>",,,,139324,0.0,,practice-stop-feedback,64,poldrack-single-stim,
65,,,,,,500.0,,,,,,,,stop_signal_with_directed_forgetting,,,,,,0.0-0.0-65.0,-1.0,none,,,-1,500.0,"<div class = centerbox><div class = fixation><span style=""color:white"">+</span></div></div>",,,,139832,0.0,,practice_fixation,65,poldrack-single-stim,
66,,,,,,2000.0,,,,,,,,stop_signal_with_directed_forgetting,,,,,,0.0-0.0-66.0,-1.0,none,,,-1,2000.0,"<div class = bigbox><div class = topLeft><div class = cue-text><img class = center src=""/static/experiments/stop_signal_with_directed_forgetting/images/H.png""></img></div></div><div class = topMiddle><div class = cue-text></div></div><div class = topRight><div class = cue-text><img class = center src=""/static/experiments/stop_signal_with_directed_forgetting/images/R.png""></img></div></div><div class = bottomLeft><div class = cue-text><img class = center src=""/static/experiments/stop_signal_with_directed_forgetting/images/K.png""></img></div></div><div class = bottomMiddle><div class = cue-text></div></div><div class = bottomRight><div class = cue-text><img class = center src=""/static/experiments/stop_signal_with_directed_forgetting/images/Y.png""></img></div></div></div>",,,,141836,0.0,,practice_stim,66,poldrack-single-stim,
67,,,,,,1000.0,,,,,,,,stop_signal_with_directed_forgetting,,,,,,0.0-0.0-67.0,-1.0,[],,,-1,1000.0,"<div class = bigbox><div class = centerbox><div class = cue-text><img class = center src=""/static/experiments/stop_signal_with_directed_forgetting/images/BOT.png""></img></font></div></div></div>",,,,142843,0.0,,practice_cue,67,poldrack-single-stim,
68,,,,,,2000.0,,,,,,,,stop_signal_with_directed_forgetting,,,,,,0.0-0.0-68.0,-1.0,none,,,-1,2000.0,"<div class = centerbox><div class = fixation><span style=""color:white"">+</span></div></div>",,,,144849,0.0,,practice_fixation,68,poldrack-single-stim,
69,300.0,500.0,"<div class = bigbox><div class = starbox><img class = center src=""/static/experiments/stop_signal_with_directed_forgetting/images/stopSignal.png""></img></div></div>",stop,,1000.0,"['K', 'Y']",-1.0,1.0,BOT,0.0,10.0,pos,stop_signal_with_directed_forgetting,,,,,,0.0-0.0-69.0,-1.0,"[77, 90]",H,,-1,1000.0,"<div class = bigbox><div class = centerbox><div class = cue-text><img class = center src=""/static/experiments/stop_signal_with_directed_forgetting/images/H.png""></img></font></div></div></div>",1.0,stop,,145854,0.0,"['H', 'R']",practice_trial,69,stop-signal,
70,,,,,,1000.0,,,,,,,,stop_signal_with_directed_forgetting,,,,,,0.0-0.0-70.0,-1.0,"[77, 90]",,,-1,1000.0,,,,,146858,0.0,,practice_ITI_fixation,70,poldrack-single-stim,
71,,,,,,500.0,,,,,,,,stop_signal_with_directed_forgetting,,,,,,0.0-0.0-71.0,-1.0,none,,,-1,500.0,"<div class = fb_box><div class = center-text><font size = 20>Correct!</font></div></div><div class = prompt_box><p class = center-block-text style = ""font-size:16px; line-height:80%%;"">Please respond if the probe was in the memory set.</p><p class = center-block-text style = ""font-size:16px; line-height:80%%;"">In memory set: M Key</p><p class = center-block-text style = ""font-size:16px; line-height:80%%;"">Not in memory set: Z Key</p><p class = center-block-text style = ""font-size:16px; line-height:80%%;"">Do not respond if a star appears around the probe!</p></div>",,,,147363,0.0,,practice-stop-feedback,71,poldrack-single-stim,
72,,,,,,500.0,,,,,,,,stop_signal_with_directed_forgetting,,,,,,0.0-0.0-72.0,-1.0,none,,,-1,500.0,"<div class = centerbox><div class = fixation><span style=""color:white"">+</span></div></div>",,,,147871,0.0,,practice_fixation,72,poldrack-single-stim,
73,,,,,,2000.0,,,,,,,,stop_signal_with_directed_forgetting,,,,,,0.0-0.0-73.0,-1.0,none,,,-1,2000.0,"<div class = bigbox><div class = topLeft><div class = cue-text><img class = center src=""/static/experiments/stop_signal_with_directed_forgetting/images/N.png""></img></div></div><div class = topMiddle><div class = cue-text></div></div><div class = topRight><div class = cue-text><img class = center src=""/static/experiments/stop_signal_with_directed_forgetting/images/I.png""></img></div></div><div class = bottomLeft><div class = cue-text><img class = center src=""/static/experiments/stop_signal_with_directed_forgetting/images/E.png""></img></div></div><div class = bottomMiddle><div class = cue-text></div></div><div class = bottomRight><div class = cue-text><img class = center src=""/static/experiments/stop_signal_with_directed_forgetting/images/Z.png""></img></div></div></div>",,,,149877,0.0,,practice_stim,73,poldrack-single-stim,
74,,,,,,1000.0,,,,,,,,stop_signal_with_directed_forgetting,,,,,,0.0-0.0-74.0,-1.0,[],,,-1,1000.0,"<div class = bigbox><div class = centerbox><div class = cue-text><img class = center src=""/static/experiments/stop_signal_with_directed_forgetting/images/BOT.png""></img></font></div></div></div>",,,,150880,0.0,,practice_cue,74,poldrack-single-stim,
75,,,,,,2000.0,,,,,,,,stop_signal_with_directed_forgetting,,,,,,0.0-0.0-75.0,-1.0,none,,,-1,2000.0,"<div class = centerbox><div class = fixation><span style=""color:white"">+</span></div></div>",,,,152883,0.0,,practice_fixation,75,poldrack-single-stim,
76,350.0,500.0,"<div class = bigbox><div class = starbox><img class = center src=""/static/experiments/stop_signal_with_directed_forgetting/images/stopSignal.png""></img></div></div>",go,,1000.0,"['E', 'Z']",77.0,1.0,BOT,0.0,11.0,pos,stop_signal_with_directed_forgetting,,,,,,0.0-0.0-76.0,77.0,"[77, 90]",I,,661,1000.0,"<div class = bigbox><div class = centerbox><div class = cue-text><img class = center src=""/static/experiments/stop_signal_with_directed_forgetting/images/I.png""></img></font></div></div></div>",,go,,153892,0.0,"['N', 'I']",practice_trial,76,stop-signal,
77,,,,,,1000.0,,,,,,,,stop_signal_with_directed_forgetting,,,,,,0.0-0.0-77.0,-1.0,"[77, 90]",,,-1,1000.0,,,,,154899,0.0,,practice_ITI_fixation,77,poldrack-single-stim,
78,,,,,,500.0,,,,,,,,stop_signal_with_directed_forgetting,,,,,,0.0-0.0-78.0,-1.0,none,,,-1,500.0,"<div class = fb_box><div class = center-text><font size = 20>Correct!</font></div></div><div class = prompt_box><p class = center-block-text style = ""font-size:16px; line-height:80%%;"">Please respond if the probe was in the memory set.</p><p class = center-block-text style = ""font-size:16px; line-height:80%%;"">In memory set: M Key</p><p class = center-block-text style = ""font-size:16px; line-height:80%%;"">Not in memory set: Z Key</p><p class = center-block-text style = ""font-size:16px; line-height:80%%;"">Do not respond if a star appears around the probe!</p></div>",,,,155403,0.0,,practice-stop-feedback,78,poldrack-single-stim,
79,,,,,,500.0,,,,,,,,stop_signal_with_directed_forgetting,,,,,,0.0-0.0-79.0,-1.0,none,,,-1,500.0,"<div class = centerbox><div class = fixation><span style=""color:white"">+</span></div></div>",,,,155907,0.0,,practice_fixation,79,poldrack-single-stim,
80,,,,,,2000.0,,,,,,,,stop_signal_with_directed_forgetting,,,,,,0.0-0.0-80.0,-1.0,none,,,-1,2000.0,"<div class = bigbox><div class = topLeft><div class = cue-text><img class = center src=""/static/experiments/stop_signal_with_directed_forgetting/images/J.png""></img></div></div><div class = topMiddle><div class = cue-text></div></div><div class = topRight><div class = cue-text><img class = center src=""/static/experiments/stop_signal_with_directed_forgetting/images/W.png""></img></div></div><div class = bottomLeft><div class = cue-text><img class = center src=""/static/experiments/stop_signal_with_directed_forgetting/images/C.png""></img></div></div><div class = bottomMiddle><div class = cue-text></div></div><div class = bottomRight><div class = cue-text><img class = center src=""/static/experiments/stop_signal_with_directed_forgetting/images/L.png""></img></div></div></div>",,,,157916,0.0,,practice_stim,80,poldrack-single-stim,
81,,,,,,1000.0,,,,,,,,stop_signal_with_directed_forgetting,,,,,,0.0-0.0-81.0,-1.0,[],,,-1,1000.0,"<div class = bigbox><div class = centerbox><div class = cue-text><img class = center src=""/static/experiments/stop_signal_with_directed_forgetting/images/BOT.png""></img></font></div></div></div>",,,,158924,0.0,,practice_cue,81,poldrack-single-stim,
82,,,,,,2000.0,,,,,,,,stop_signal_with_directed_forgetting,,,,,,0.0-0.0-82.0,-1.0,none,,,-1,2000.0,"<div class = centerbox><div class = fixation><span style=""color:white"">+</span></div></div>",,,,160928,0.0,,practice_fixation,82,poldrack-single-stim,
83,350.0,500.0,"<div class = bigbox><div class = starbox><img class = center src=""/static/experiments/stop_signal_with_directed_forgetting/images/stopSignal.png""></img></div></div>",go,,1000.0,"['C', 'L']",90.0,1.0,BOT,0.0,12.0,neg,stop_signal_with_directed_forgetting,,,,,,0.0-0.0-83.0,90.0,"[77, 90]",L,,505,1000.0,"<div class = bigbox><div class = centerbox><div class = cue-text><img class = center src=""/static/experiments/stop_signal_with_directed_forgetting/images/L.png""></img></font></div></div></div>",,go,,161932,0.0,"['J', 'W']",practice_trial,83,stop-signal,
84,,,,,,1000.0,,,,,,,,stop_signal_with_directed_forgetting,,,,,,0.0-0.0-84.0,-1.0,"[77, 90]",,,-1,1000.0,,,,,162937,0.0,,practice_ITI_fixation,84,poldrack-single-stim,
85,,,,,,500.0,,,,,,,,stop_signal_with_directed_forgetting,,,,,,0.0-0.0-85.0,-1.0,none,,,-1,500.0,"<div class = fb_box><div class = center-text><font size = 20>Correct!</font></div></div><div class = prompt_box><p class = center-block-text style = ""font-size:16px; line-height:80%%;"">Please respond if the probe was in the memory set.</p><p class = center-block-text style = ""font-size:16px; line-height:80%%;"">In memory set: M Key</p><p class = center-block-text style = ""font-size:16px; line-height:80%%;"">Not in memory set: Z Key</p><p class = center-block-text style = ""font-size:16px; line-height:80%%;"">Do not respond if a star appears around the probe!</p></div>",,,,163441,0.0,,practice-stop-feedback,85,poldrack-single-stim,
86,,,,,,8250.0,,,,,,,,stop_signal_with_directed_forgetting,,,,,,0.0-0.1-0.1,13.0,[13],,,8250,8250.0,<div class = bigbox><div class = picture_box><p class = block-text><br>Please take this time to read your feedback and to take a short break! Press enter to continue</p><p class = block-text>You have not been responding to some trials.  Please respond on every trial that requires a response.</p><p class = block-text>Redoing this practice. Press Enter to continue.</p></div></div>,,,,171699,0.0,,feedback_block,86,poldrack-single-stim,
87,,,,,,,,,,,,,,stop_signal_with_directed_forgetting,,,,,,0.0-0.1-1.1,,,,,8263,,,,,,179964,,,instruction,87,poldrack-instructions,"[{""page_index"":0,""viewing_time"":3230},{""page_index"":1,""viewing_time"":1736},{""page_index"":2,""viewing_time"":1568},{""page_index"":3,""viewing_time"":1729}]"
88,,,,,,500.0,,,,,,,,stop_signal_with_directed_forgetting,,,,,,0.0-0.1-2.1,-1.0,none,,,-1,500.0,"<div class = centerbox><div class = fixation><span style=""color:white"">+</span></div></div>",,,,181471,0.0,,practice_fixation,88,poldrack-single-stim,
89,,,,,,2000.0,,,,,,,,stop_signal_with_directed_forgetting,,,,,,0.0-0.1-3.1,-1.0,none,,,-1,2000.0,"<div class = bigbox><div class = topLeft><div class = cue-text><img class = center src=""/static/experiments/stop_signal_with_directed_forgetting/images/K.png""></img></div></div><div class = topMiddle><div class = cue-text></div></div><div class = topRight><div class = cue-text><img class = center src=""/static/experiments/stop_signal_with_directed_forgetting/images/P.png""></img></div></div><div class = bottomLeft><div class = cue-text><img class = center src=""/static/experiments/stop_signal_with_directed_forgetting/images/L.png""></img></div></div><div class = bottomMiddle><div class = cue-text></div></div><div class = bottomRight><div class = cue-text><img class = center src=""/static/experiments/stop_signal_with_directed_forgetting/images/T.png""></img></div></div></div>",,,,183478,0.0,,practice_stim,89,poldrack-single-stim,
90,,,,,,1000.0,,,,,,,,stop_signal_with_directed_forgetting,,,,,,0.0-0.1-4.1,-1.0,[],,,-1,1000.0,"<div class = bigbox><div class = centerbox><div class = cue-text><img class = center src=""/static/experiments/stop_signal_with_directed_forgetting/images/TOP.png""></img></font></div></div></div>",,,,184485,0.0,,practice_cue,90,poldrack-single-stim,
91,,,,,,2000.0,,,,,,,,stop_signal_with_directed_forgetting,,,,,,0.0-0.1-5.1,-1.0,none,,,-1,2000.0,"<div class = centerbox><div class = fixation><span style=""color:white"">+</span></div></div>",,,,186491,0.0,,practice_fixation,91,poldrack-single-stim,
92,350.0,500.0,"<div class = bigbox><div class = starbox><img class = center src=""/static/experiments/stop_signal_with_directed_forgetting/images/stopSignal.png""></img></div></div>",stop,,1000.0,"['L', 'T']",-1.0,1.0,TOP,1.0,1.0,neg,stop_signal_with_directed_forgetting,,,,,,0.0-0.1-6.1,-1.0,"[77, 90]",K,,-1,1000.0,"<div class = bigbox><div class = centerbox><div class = cue-text><img class = center src=""/static/experiments/stop_signal_with_directed_forgetting/images/K.png""></img></font></div></div></div>",1.0,stop,,187497,0.0,"['K', 'P']",practice_trial,92,stop-signal,
93,,,,,,1000.0,,,,,,,,stop_signal_with_directed_forgetting,,,,,,0.0-0.1-7.1,-1.0,"[77, 90]",,,-1,1000.0,,,,,188501,0.0,,practice_ITI_fixation,93,poldrack-single-stim,
94,,,,,,500.0,,,,,,,,stop_signal_with_directed_forgetting,,,,,,0.0-0.1-8.1,-1.0,none,,,-1,500.0,"<div class = fb_box><div class = center-text><font size = 20>Correct!</font></div></div><div class = prompt_box><p class = center-block-text style = ""font-size:16px; line-height:80%%;"">Please respond if the probe was in the memory set.</p><p class = center-block-text style = ""font-size:16px; line-height:80%%;"">In memory set: M Key</p><p class = center-block-text style = ""font-size:16px; line-height:80%%;"">Not in memory set: Z Key</p><p class = center-block-text style = ""font-size:16px; line-height:80%%;"">Do not respond if a star appears around the probe!</p></div>",,,,189007,0.0,,practice-stop-feedback,94,poldrack-single-stim,
95,,,,,,500.0,,,,,,,,stop_signal_with_directed_forgetting,,,,,,0.0-0.1-9.1,-1.0,none,,,-1,500.0,"<div class = centerbox><div class = fixation><span style=""color:white"">+</span></div></div>",,,,189512,0.0,,practice_fixation,95,poldrack-single-stim,
96,,,,,,2000.0,,,,,,,,stop_signal_with_directed_forgetting,,,,,,0.0-0.1-10.1,-1.0,none,,,-1,2000.0,"<div class = bigbox><div class = topLeft><div class = cue-text><img class = center src=""/static/experiments/stop_signal_with_directed_forgetting/images/Y.png""></img></div></div><div class = topMiddle><div class = cue-text></div></div><div class = topRight><div class = cue-text><img class = center src=""/static/experiments/stop_signal_with_directed_forgetting/images/J.png""></img></div></div><div class = bottomLeft><div class = cue-text><img class = center src=""/static/experiments/stop_signal_with_directed_forgetting/images/S.png""></img></div></div><div class = bottomMiddle><div class = cue-text></div></div><div class = bottomRight><div class = cue-text><img class = center src=""/static/experiments/stop_signal_with_directed_forgetting/images/I.png""></img></div></div></div>",,,,191518,0.0,,practice_stim,96,poldrack-single-stim,
97,,,,,,1000.0,,,,,,,,stop_signal_with_directed_forgetting,,,,,,0.0-0.1-11.1,-1.0,[],,,-1,1000.0,"<div class = bigbox><div class = centerbox><div class = cue-text><img class = center src=""/static/experiments/stop_signal_with_directed_forgetting/images/BOT.png""></img></font></div></div></div>",,,,192526,0.0,,practice_cue,97,poldrack-single-stim,
98,,,,,,2000.0,,,,,,,,stop_signal_with_directed_forgetting,,,,,,0.0-0.1-12.1,-1.0,none,,,-1,2000.0,"<div class = centerbox><div class = fixation><span style=""color:white"">+</span></div></div>",,,,194533,0.0,,practice_fixation,98,poldrack-single-stim,
99,400.0,500.0,"<div class = bigbox><div class = starbox><img class = center src=""/static/experiments/stop_signal_with_directed_forgetting/images/stopSignal.png""></img></div></div>",stop,,1000.0,"['S', 'I']",-1.0,0.0,BOT,1.0,2.0,con,stop_signal_with_directed_forgetting,,,,,,0.0-0.1-13.1,90.0,"[77, 90]",K,,571,1000.0,"<div class = bigbox><div class = centerbox><div class = cue-text><img class = center src=""/static/experiments/stop_signal_with_directed_forgetting/images/K.png""></img></font></div></div></div>",0.0,stop,,195539,0.0,"['Y', 'J']",practice_trial,99,stop-signal,
100,,,,,,1000.0,,,,,,,,stop_signal_with_directed_forgetting,,,,,,0.0-0.1-14.1,-1.0,"[77, 90]",,,-1,1000.0,,,,,196542,0.0,,practice_ITI_fixation,100,poldrack-single-stim,
101,,,,,,500.0,,,,,,,,stop_signal_with_directed_forgetting,,,,,,0.0-0.1-15.1,-1.0,none,,,-1,500.0,"<div class = fb_box><div class = center-text><font size = 20>There was a star.</font></div></div><div class = prompt_box><p class = center-block-text style = ""font-size:16px; line-height:80%%;"">Please respond if the probe was in the memory set.</p><p class = center-block-text style = ""font-size:16px; line-height:80%%;"">In memory set: M Key</p><p class = center-block-text style = ""font-size:16px; line-height:80%%;"">Not in memory set: Z Key</p><p class = center-block-text style = ""font-size:16px; line-height:80%%;"">Do not respond if a star appears around the probe!</p></div>",,,,197046,0.0,,practice-stop-feedback,101,poldrack-single-stim,
102,,,,,,500.0,,,,,,,,stop_signal_with_directed_forgetting,,,,,,0.0-0.1-16.1,-1.0,none,,,-1,500.0,"<div class = centerbox><div class = fixation><span style=""color:white"">+</span></div></div>",,,,197551,0.0,,practice_fixation,102,poldrack-single-stim,
103,,,,,,2000.0,,,,,,,,stop_signal_with_directed_forgetting,,,,,,0.0-0.1-17.1,-1.0,none,,,-1,2000.0,"<div class = bigbox><div class = topLeft><div class = cue-text><img class = center src=""/static/experiments/stop_signal_with_directed_forgetting/images/V.png""></img></div></div><div class = topMiddle><div class = cue-text></div></div><div class = topRight><div class = cue-text><img class = center src=""/static/experiments/stop_signal_with_directed_forgetting/images/M.png""></img></div></div><div class = bottomLeft><div class = cue-text><img class = center src=""/static/experiments/stop_signal_with_directed_forgetting/images/U.png""></img></div></div><div class = bottomMiddle><div class = cue-text></div></div><div class = bottomRight><div class = cue-text><img class = center src=""/static/experiments/stop_signal_with_directed_forgetting/images/N.png""></img></div></div></div>",,,,199559,0.0,,practice_stim,103,poldrack-single-stim,
104,,,,,,1000.0,,,,,,,,stop_signal_with_directed_forgetting,,,,,,0.0-0.1-18.1,-1.0,[],,,-1,1000.0,"<div class = bigbox><div class = centerbox><div class = cue-text><img class = center src=""/static/experiments/stop_signal_with_directed_forgetting/images/TOP.png""></img></font></div></div></div>",,,,200563,0.0,,practice_cue,104,poldrack-single-stim,
105,,,,,,2000.0,,,,,,,,stop_signal_with_directed_forgetting,,,,,,0.0-0.1-19.1,-1.0,none,,,-1,2000.0,"<div class = centerbox><div class = fixation><span style=""color:white"">+</span></div></div>",,,,202567,0.0,,practice_fixation,105,poldrack-single-stim,
106,350.0,500.0,"<div class = bigbox><div class = starbox><img class = center src=""/static/experiments/stop_signal_with_directed_forgetting/images/stopSignal.png""></img></div></div>",go,,1000.0,"['U', 'N']",90.0,1.0,TOP,1.0,3.0,con,stop_signal_with_directed_forgetting,,,,,,0.0-0.1-20.1,90.0,"[77, 90]",I,,809,1000.0,"<div class = bigbox><div class = centerbox><div class = cue-text><img class = center src=""/static/experiments/stop_signal_with_directed_forgetting/images/I.png""></img></font></div></div></div>",,go,,203575,0.0,"['V', 'M']",practice_trial,106,stop-signal,
107,,,,,,1000.0,,,,,,,,stop_signal_with_directed_forgetting,,,,,,0.0-0.1-21.1,-1.0,"[77, 90]",,,-1,1000.0,,,,,204582,0.0,,practice_ITI_fixation,107,poldrack-single-stim,
108,,,,,,500.0,,,,,,,,stop_signal_with_directed_forgetting,,,,,,0.0-0.1-22.1,-1.0,none,,,-1,500.0,"<div class = fb_box><div class = center-text><font size = 20>Correct!</font></div></div><div class = prompt_box><p class = center-block-text style = ""font-size:16px; line-height:80%%;"">Please respond if the probe was in the memory set.</p><p class = center-block-text style = ""font-size:16px; line-height:80%%;"">In memory set: M Key</p><p class = center-block-text style = ""font-size:16px; line-height:80%%;"">Not in memory set: Z Key</p><p class = center-block-text style = ""font-size:16px; line-height:80%%;"">Do not respond if a star appears around the probe!</p></div>",,,,205088,0.0,,practice-stop-feedback,108,poldrack-single-stim,
109,,,,,,500.0,,,,,,,,stop_signal_with_directed_forgetting,,,,,,0.0-0.1-23.1,-1.0,none,,,-1,500.0,"<div class = centerbox><div class = fixation><span style=""color:white"">+</span></div></div>",,,,205596,0.0,,practice_fixation,109,poldrack-single-stim,
110,,,,,,2000.0,,,,,,,,stop_signal_with_directed_forgetting,,,,,,0.0-0.1-24.1,-1.0,none,,,-1,2000.0,"<div class = bigbox><div class = topLeft><div class = cue-text><img class = center src=""/static/experiments/stop_signal_with_directed_forgetting/images/G.png""></img></div></div><div class = topMiddle><div class = cue-text></div></div><div class = topRight><div class = cue-text><img class = center src=""/static/experiments/stop_signal_with_directed_forgetting/images/O.png""></img></div></div><div class = bottomLeft><div class = cue-text><img class = center src=""/static/experiments/stop_signal_with_directed_forgetting/images/E.png""></img></div></div><div class = bottomMiddle><div class = cue-text></div></div><div class = bottomRight><div class = cue-text><img class = center src=""/static/experiments/stop_signal_with_directed_forgetting/images/Q.png""></img></div></div></div>",,,,207600,0.0,,practice_stim,110,poldrack-single-stim,
111,,,,,,1000.0,,,,,,,,stop_signal_with_directed_forgetting,,,,,,0.0-0.1-25.1,-1.0,[],,,-1,1000.0,"<div class = bigbox><div class = centerbox><div class = cue-text><img class = center src=""/static/experiments/stop_signal_with_directed_forgetting/images/TOP.png""></img></font></div></div></div>",,,,208607,0.0,,practice_cue,111,poldrack-single-stim,
112,,,,,,2000.0,,,,,,,,stop_signal_with_directed_forgetting,,,,,,0.0-0.1-26.1,-1.0,none,,,-1,2000.0,"<div class = centerbox><div class = fixation><span style=""color:white"">+</span></div></div>",,,,210612,0.0,,practice_fixation,112,poldrack-single-stim,
113,350.0,500.0,"<div class = bigbox><div class = starbox><img class = center src=""/static/experiments/stop_signal_with_directed_forgetting/images/stopSignal.png""></img></div></div>",go,,1000.0,"['E', 'Q']",90.0,1.0,TOP,1.0,4.0,con,stop_signal_with_directed_forgetting,,,,,,0.0-0.1-27.1,90.0,"[77, 90]",D,,691,1000.0,"<div class = bigbox><div class = centerbox><div class = cue-text><img class = center src=""/static/experiments/stop_signal_with_directed_forgetting/images/D.png""></img></font></div></div></div>",,go,,211620,0.0,"['G', 'O']",practice_trial,113,stop-signal,
114,,,,,,1000.0,,,,,,,,stop_signal_with_directed_forgetting,,,,,,0.0-0.1-28.1,-1.0,"[77, 90]",,,-1,1000.0,,,,,212626,0.0,,practice_ITI_fixation,114,poldrack-single-stim,
115,,,,,,500.0,,,,,,,,stop_signal_with_directed_forgetting,,,,,,0.0-0.1-29.1,-1.0,none,,,-1,500.0,"<div class = fb_box><div class = center-text><font size = 20>Correct!</font></div></div><div class = prompt_box><p class = center-block-text style = ""font-size:16px; line-height:80%%;"">Please respond if the probe was in the memory set.</p><p class = center-block-text style = ""font-size:16px; line-height:80%%;"">In memory set: M Key</p><p class = center-block-text style = ""font-size:16px; line-height:80%%;"">Not in memory set: Z Key</p><p class = center-block-text style = ""font-size:16px; line-height:80%%;"">Do not respond if a star appears around the probe!</p></div>",,,,213132,0.0,,practice-stop-feedback,115,poldrack-single-stim,
116,,,,,,500.0,,,,,,,,stop_signal_with_directed_forgetting,,,,,,0.0-0.1-30.1,-1.0,none,,,-1,500.0,"<div class = centerbox><div class = fixation><span style=""color:white"">+</span></div></div>",,,,213636,0.0,,practice_fixation,116,poldrack-single-stim,
117,,,,,,2000.0,,,,,,,,stop_signal_with_directed_forgetting,,,,,,0.0-0.1-31.1,-1.0,none,,,-1,2000.0,"<div class = bigbox><div class = topLeft><div class = cue-text><img class = center src=""/static/experiments/stop_signal_with_directed_forgetting/images/W.png""></img></div></div><div class = topMiddle><div class = cue-text></div></div><div class = topRight><div class = cue-text><img class = center src=""/static/experiments/stop_signal_with_directed_forgetting/images/J.png""></img></div></div><div class = bottomLeft><div class = cue-text><img class = center src=""/static/experiments/stop_signal_with_directed_forgetting/images/Z.png""></img></div></div><div class = bottomMiddle><div class = cue-text></div></div><div class = bottomRight><div class = cue-text><img class = center src=""/static/experiments/stop_signal_with_directed_forgetting/images/B.png""></img></div></div></div>",,,,215640,0.0,,practice_stim,117,poldrack-single-stim,
118,,,,,,1000.0,,,,,,,,stop_signal_with_directed_forgetting,,,,,,0.0-0.1-32.1,-1.0,[],,,-1,1000.0,"<div class = bigbox><div class = centerbox><div class = cue-text><img class = center src=""/static/experiments/stop_signal_with_directed_forgetting/images/BOT.png""></img></font></div></div></div>",,,,216644,0.0,,practice_cue,118,poldrack-single-stim,
119,,,,,,2000.0,,,,,,,,stop_signal_with_directed_forgetting,,,,,,0.0-0.1-33.1,-1.0,none,,,-1,2000.0,"<div class = centerbox><div class = fixation><span style=""color:white"">+</span></div></div>",,,,218650,0.0,,practice_fixation,119,poldrack-single-stim,
120,350.0,500.0,"<div class = bigbox><div class = starbox><img class = center src=""/static/experiments/stop_signal_with_directed_forgetting/images/stopSignal.png""></img></div></div>",go,,1000.0,"['Z', 'B']",90.0,1.0,BOT,1.0,5.0,neg,stop_signal_with_directed_forgetting,,,,,,0.0-0.1-34.1,90.0,"[77, 90]",Z,,780,1000.0,"<div class = bigbox><div class = centerbox><div class = cue-text><img class = center src=""/static/experiments/stop_signal_with_directed_forgetting/images/Z.png""></img></font></div></div></div>",,go,,219656,0.0,"['W', 'J']",practice_trial,120,stop-signal,
121,,,,,,1000.0,,,,,,,,stop_signal_with_directed_forgetting,,,,,,0.0-0.1-35.1,-1.0,"[77, 90]",,,-1,1000.0,,,,,220660,0.0,,practice_ITI_fixation,121,poldrack-single-stim,
122,,,,,,500.0,,,,,,,,stop_signal_with_directed_forgetting,,,,,,0.0-0.1-36.1,-1.0,none,,,-1,500.0,"<div class = fb_box><div class = center-text><font size = 20>Correct!</font></div></div><div class = prompt_box><p class = center-block-text style = ""font-size:16px; line-height:80%%;"">Please respond if the probe was in the memory set.</p><p class = center-block-text style = ""font-size:16px; line-height:80%%;"">In memory set: M Key</p><p class = center-block-text style = ""font-size:16px; line-height:80%%;"">Not in memory set: Z Key</p><p class = center-block-text style = ""font-size:16px; line-height:80%%;"">Do not respond if a star appears around the probe!</p></div>",,,,221165,0.0,,practice-stop-feedback,122,poldrack-single-stim,
123,,,,,,500.0,,,,,,,,stop_signal_with_directed_forgetting,,,,,,0.0-0.1-37.1,-1.0,none,,,-1,500.0,"<div class = centerbox><div class = fixation><span style=""color:white"">+</span></div></div>",,,,221670,0.0,,practice_fixation,123,poldrack-single-stim,
124,,,,,,2000.0,,,,,,,,stop_signal_with_directed_forgetting,,,,,,0.0-0.1-38.1,-1.0,none,,,-1,2000.0,"<div class = bigbox><div class = topLeft><div class = cue-text><img class = center src=""/static/experiments/stop_signal_with_directed_forgetting/images/R.png""></img></div></div><div class = topMiddle><div class = cue-text></div></div><div class = topRight><div class = cue-text><img class = center src=""/static/experiments/stop_signal_with_directed_forgetting/images/U.png""></img></div></div><div class = bottomLeft><div class = cue-text><img class = center src=""/static/experiments/stop_signal_with_directed_forgetting/images/T.png""></img></div></div><div class = bottomMiddle><div class = cue-text></div></div><div class = bottomRight><div class = cue-text><img class = center src=""/static/experiments/stop_signal_with_directed_forgetting/images/M.png""></img></div></div></div>",,,,223677,0.0,,practice_stim,124,poldrack-single-stim,
125,,,,,,1000.0,,,,,,,,stop_signal_with_directed_forgetting,,,,,,0.0-0.1-39.1,-1.0,[],,,-1,1000.0,"<div class = bigbox><div class = centerbox><div class = cue-text><img class = center src=""/static/experiments/stop_signal_with_directed_forgetting/images/BOT.png""></img></font></div></div></div>",,,,224685,0.0,,practice_cue,125,poldrack-single-stim,
126,,,,,,2000.0,,,,,,,,stop_signal_with_directed_forgetting,,,,,,0.0-0.1-40.1,-1.0,none,,,-1,2000.0,"<div class = centerbox><div class = fixation><span style=""color:white"">+</span></div></div>",,,,226693,0.0,,practice_fixation,126,poldrack-single-stim,
127,350.0,500.0,"<div class = bigbox><div class = starbox><img class = center src=""/static/experiments/stop_signal_with_directed_forgetting/images/stopSignal.png""></img></div></div>",go,,1000.0,"['T', 'M']",77.0,1.0,BOT,1.0,6.0,pos,stop_signal_with_directed_forgetting,,,,,,0.0-0.1-41.1,77.0,"[77, 90]",U,,634,1000.0,"<div class = bigbox><div class = centerbox><div class = cue-text><img class = center src=""/static/experiments/stop_signal_with_directed_forgetting/images/U.png""></img></font></div></div></div>",,go,,227701,0.0,"['R', 'U']",practice_trial,127,stop-signal,
128,,,,,,1000.0,,,,,,,,stop_signal_with_directed_forgetting,,,,,,0.0-0.1-42.1,-1.0,"[77, 90]",,,-1,1000.0,,,,,228706,0.0,,practice_ITI_fixation,128,poldrack-single-stim,
129,,,,,,500.0,,,,,,,,stop_signal_with_directed_forgetting,,,,,,0.0-0.1-43.1,-1.0,none,,,-1,500.0,"<div class = fb_box><div class = center-text><font size = 20>Correct!</font></div></div><div class = prompt_box><p class = center-block-text style = ""font-size:16px; line-height:80%%;"">Please respond if the probe was in the memory set.</p><p class = center-block-text style = ""font-size:16px; line-height:80%%;"">In memory set: M Key</p><p class = center-block-text style = ""font-size:16px; line-height:80%%;"">Not in memory set: Z Key</p><p class = center-block-text style = ""font-size:16px; line-height:80%%;"">Do not respond if a star appears around the probe!</p></div>",,,,229213,0.0,,practice-stop-feedback,129,poldrack-single-stim,
130,,,,,,500.0,,,,,,,,stop_signal_with_directed_forgetting,,,,,,0.0-0.1-44.1,-1.0,none,,,-1,500.0,"<div class = centerbox><div class = fixation><span style=""color:white"">+</span></div></div>",,,,229721,0.0,,practice_fixation,130,poldrack-single-stim,
131,,,,,,2000.0,,,,,,,,stop_signal_with_directed_forgetting,,,,,,0.0-0.1-45.1,-1.0,none,,,-1,2000.0,"<div class = bigbox><div class = topLeft><div class = cue-text><img class = center src=""/static/experiments/stop_signal_with_directed_forgetting/images/L.png""></img></div></div><div class = topMiddle><div class = cue-text></div></div><div class = topRight><div class = cue-text><img class = center src=""/static/experiments/stop_signal_with_directed_forgetting/images/V.png""></img></div></div><div class = bottomLeft><div class = cue-text><img class = center src=""/static/experiments/stop_signal_with_directed_forgetting/images/I.png""></img></div></div><div class = bottomMiddle><div class = cue-text></div></div><div class = bottomRight><div class = cue-text><img class = center src=""/static/experiments/stop_signal_with_directed_forgetting/images/X.png""></img></div></div></div>",,,,231725,0.0,,practice_stim,131,poldrack-single-stim,
132,,,,,,1000.0,,,,,,,,stop_signal_with_directed_forgetting,,,,,,0.0-0.1-46.1,-1.0,[],,,-1,1000.0,"<div class = bigbox><div class = centerbox><div class = cue-text><img class = center src=""/static/experiments/stop_signal_with_directed_forgetting/images/BOT.png""></img></font></div></div></div>",,,,232729,0.0,,practice_cue,132,poldrack-single-stim,
133,,,,,,2000.0,,,,,,,,stop_signal_with_directed_forgetting,,,,,,0.0-0.1-47.1,-1.0,none,,,-1,2000.0,"<div class = centerbox><div class = fixation><span style=""color:white"">+</span></div></div>",,,,234731,0.0,,practice_fixation,133,poldrack-single-stim,
134,350.0,500.0,"<div class = bigbox><div class = starbox><img class = center src=""/static/experiments/stop_signal_with_directed_forgetting/images/stopSignal.png""></img></div></div>",go,,1000.0,"['I', 'X']",90.0,1.0,BOT,1.0,7.0,neg,stop_signal_with_directed_forgetting,,,,,,0.0-0.1-48.1,90.0,"[77, 90]",X,,747,1000.0,"<div class = bigbox><div class = centerbox><div class = cue-text><img class = center src=""/static/experiments/stop_signal_with_directed_forgetting/images/X.png""></img></font></div></div></div>",,go,,235737,0.0,"['L', 'V']",practice_trial,134,stop-signal,
135,,,,,,1000.0,,,,,,,,stop_signal_with_directed_forgetting,,,,,,0.0-0.1-49.1,-1.0,"[77, 90]",,,-1,1000.0,,,,,236740,0.0,,practice_ITI_fixation,135,poldrack-single-stim,
136,,,,,,500.0,,,,,,,,stop_signal_with_directed_forgetting,,,,,,0.0-0.1-50.1,-1.0,none,,,-1,500.0,"<div class = fb_box><div class = center-text><font size = 20>Correct!</font></div></div><div class = prompt_box><p class = center-block-text style = ""font-size:16px; line-height:80%%;"">Please respond if the probe was in the memory set.</p><p class = center-block-text style = ""font-size:16px; line-height:80%%;"">In memory set: M Key</p><p class = center-block-text style = ""font-size:16px; line-height:80%%;"">Not in memory set: Z Key</p><p class = center-block-text style = ""font-size:16px; line-height:80%%;"">Do not respond if a star appears around the probe!</p></div>",,,,237245,0.0,,practice-stop-feedback,136,poldrack-single-stim,
137,,,,,,500.0,,,,,,,,stop_signal_with_directed_forgetting,,,,,,0.0-0.1-51.1,-1.0,none,,,-1,500.0,"<div class = centerbox><div class = fixation><span style=""color:white"">+</span></div></div>",,,,237749,0.0,,practice_fixation,137,poldrack-single-stim,
138,,,,,,2000.0,,,,,,,,stop_signal_with_directed_forgetting,,,,,,0.0-0.1-52.1,-1.0,none,,,-1,2000.0,"<div class = bigbox><div class = topLeft><div class = cue-text><img class = center src=""/static/experiments/stop_signal_with_directed_forgetting/images/D.png""></img></div></div><div class = topMiddle><div class = cue-text></div></div><div class = topRight><div class = cue-text><img class = center src=""/static/experiments/stop_signal_with_directed_forgetting/images/K.png""></img></div></div><div class = bottomLeft><div class = cue-text><img class = center src=""/static/experiments/stop_signal_with_directed_forgetting/images/A.png""></img></div></div><div class = bottomMiddle><div class = cue-text></div></div><div class = bottomRight><div class = cue-text><img class = center src=""/static/experiments/stop_signal_with_directed_forgetting/images/J.png""></img></div></div></div>",,,,239759,0.0,,practice_stim,138,poldrack-single-stim,
139,,,,,,1000.0,,,,,,,,stop_signal_with_directed_forgetting,,,,,,0.0-0.1-53.1,-1.0,[],,,-1,1000.0,"<div class = bigbox><div class = centerbox><div class = cue-text><img class = center src=""/static/experiments/stop_signal_with_directed_forgetting/images/BOT.png""></img></font></div></div></div>",,,,240763,0.0,,practice_cue,139,poldrack-single-stim,
140,,,,,,2000.0,,,,,,,,stop_signal_with_directed_forgetting,,,,,,0.0-0.1-54.1,-1.0,none,,,-1,2000.0,"<div class = centerbox><div class = fixation><span style=""color:white"">+</span></div></div>",,,,242769,0.0,,practice_fixation,140,poldrack-single-stim,
141,350.0,500.0,"<div class = bigbox><div class = starbox><img class = center src=""/static/experiments/stop_signal_with_directed_forgetting/images/stopSignal.png""></img></div></div>",go,,1000.0,"['A', 'J']",77.0,1.0,BOT,1.0,8.0,pos,stop_signal_with_directed_forgetting,,,,,,0.0-0.1-55.1,77.0,"[77, 90]",K,,686,1000.0,"<div class = bigbox><div class = centerbox><div class = cue-text><img class = center src=""/static/experiments/stop_signal_with_directed_forgetting/images/K.png""></img></font></div></div></div>",,go,,243776,0.0,"['D', 'K']",practice_trial,141,stop-signal,
142,,,,,,1000.0,,,,,,,,stop_signal_with_directed_forgetting,,,,,,0.0-0.1-56.1,-1.0,"[77, 90]",,,-1,1000.0,,,,,244781,0.0,,practice_ITI_fixation,142,poldrack-single-stim,
143,,,,,,500.0,,,,,,,,stop_signal_with_directed_forgetting,,,,,,0.0-0.1-57.1,-1.0,none,,,-1,500.0,"<div class = fb_box><div class = center-text><font size = 20>Correct!</font></div></div><div class = prompt_box><p class = center-block-text style = ""font-size:16px; line-height:80%%;"">Please respond if the probe was in the memory set.</p><p class = center-block-text style = ""font-size:16px; line-height:80%%;"">In memory set: M Key</p><p class = center-block-text style = ""font-size:16px; line-height:80%%;"">Not in memory set: Z Key</p><p class = center-block-text style = ""font-size:16px; line-height:80%%;"">Do not respond if a star appears around the probe!</p></div>",,,,245284,0.0,,practice-stop-feedback,143,poldrack-single-stim,
144,,,,,,500.0,,,,,,,,stop_signal_with_directed_forgetting,,,,,,0.0-0.1-58.1,-1.0,none,,,-1,500.0,"<div class = centerbox><div class = fixation><span style=""color:white"">+</span></div></div>",,,,245792,0.0,,practice_fixation,144,poldrack-single-stim,
145,,,,,,2000.0,,,,,,,,stop_signal_with_directed_forgetting,,,,,,0.0-0.1-59.1,-1.0,none,,,-1,2000.0,"<div class = bigbox><div class = topLeft><div class = cue-text><img class = center src=""/static/experiments/stop_signal_with_directed_forgetting/images/W.png""></img></div></div><div class = topMiddle><div class = cue-text></div></div><div class = topRight><div class = cue-text><img class = center src=""/static/experiments/stop_signal_with_directed_forgetting/images/Q.png""></img></div></div><div class = bottomLeft><div class = cue-text><img class = center src=""/static/experiments/stop_signal_with_directed_forgetting/images/F.png""></img></div></div><div class = bottomMiddle><div class = cue-text></div></div><div class = bottomRight><div class = cue-text><img class = center src=""/static/experiments/stop_signal_with_directed_forgetting/images/T.png""></img></div></div></div>",,,,247796,0.0,,practice_stim,145,poldrack-single-stim,
146,,,,,,1000.0,,,,,,,,stop_signal_with_directed_forgetting,,,,,,0.0-0.1-60.1,-1.0,[],,,-1,1000.0,"<div class = bigbox><div class = centerbox><div class = cue-text><img class = center src=""/static/experiments/stop_signal_with_directed_forgetting/images/BOT.png""></img></font></div></div></div>",,,,248802,0.0,,practice_cue,146,poldrack-single-stim,
147,,,,,,2000.0,,,,,,,,stop_signal_with_directed_forgetting,,,,,,0.0-0.1-61.1,-1.0,none,,,-1,2000.0,"<div class = centerbox><div class = fixation><span style=""color:white"">+</span></div></div>",,,,250810,0.0,,practice_fixation,147,poldrack-single-stim,
148,350.0,500.0,"<div class = bigbox><div class = starbox><img class = center src=""/static/experiments/stop_signal_with_directed_forgetting/images/stopSignal.png""></img></div></div>",go,,1000.0,"['F', 'T']",77.0,0.0,BOT,1.0,9.0,pos,stop_signal_with_directed_forgetting,,,,,,0.0-0.1-62.1,90.0,"[77, 90]",W,,860,1000.0,"<div class = bigbox><div class = centerbox><div class = cue-text><img class = center src=""/static/experiments/stop_signal_with_directed_forgetting/images/W.png""></img></font></div></div></div>",,go,,251815,0.0,"['W', 'Q']",practice_trial,148,stop-signal,
149,,,,,,1000.0,,,,,,,,stop_signal_with_directed_forgetting,,,,,,0.0-0.1-63.1,-1.0,"[77, 90]",,,-1,1000.0,,,,,252821,0.0,,practice_ITI_fixation,149,poldrack-single-stim,
150,,,,,,500.0,,,,,,,,stop_signal_with_directed_forgetting,,,,,,0.0-0.1-64.1,-1.0,none,,,-1,500.0,"<div class = fb_box><div class = center-text><font size = 20>Incorrect</font></div></div><div class = prompt_box><p class = center-block-text style = ""font-size:16px; line-height:80%%;"">Please respond if the probe was in the memory set.</p><p class = center-block-text style = ""font-size:16px; line-height:80%%;"">In memory set: M Key</p><p class = center-block-text style = ""font-size:16px; line-height:80%%;"">Not in memory set: Z Key</p><p class = center-block-text style = ""font-size:16px; line-height:80%%;"">Do not respond if a star appears around the probe!</p></div>",,,,253324,0.0,,practice-stop-feedback,150,poldrack-single-stim,
151,,,,,,500.0,,,,,,,,stop_signal_with_directed_forgetting,,,,,,0.0-0.1-65.1,-1.0,none,,,-1,500.0,"<div class = centerbox><div class = fixation><span style=""color:white"">+</span></div></div>",,,,253829,0.0,,practice_fixation,151,poldrack-single-stim,
152,,,,,,2000.0,,,,,,,,stop_signal_with_directed_forgetting,,,,,,0.0-0.1-66.1,-1.0,none,,,-1,2000.0,"<div class = bigbox><div class = topLeft><div class = cue-text><img class = center src=""/static/experiments/stop_signal_with_directed_forgetting/images/L.png""></img></div></div><div class = topMiddle><div class = cue-text></div></div><div class = topRight><div class = cue-text><img class = center src=""/static/experiments/stop_signal_with_directed_forgetting/images/G.png""></img></div></div><div class = bottomLeft><div class = cue-text><img class = center src=""/static/experiments/stop_signal_with_directed_forgetting/images/X.png""></img></div></div><div class = bottomMiddle><div class = cue-text></div></div><div class = bottomRight><div class = cue-text><img class = center src=""/static/experiments/stop_signal_with_directed_forgetting/images/E.png""></img></div></div></div>",,,,255833,0.0,,practice_stim,152,poldrack-single-stim,
153,,,,,,1000.0,,,,,,,,stop_signal_with_directed_forgetting,,,,,,0.0-0.1-67.1,-1.0,[],,,-1,1000.0,"<div class = bigbox><div class = centerbox><div class = cue-text><img class = center src=""/static/experiments/stop_signal_with_directed_forgetting/images/TOP.png""></img></font></div></div></div>",,,,256840,0.0,,practice_cue,153,poldrack-single-stim,
154,,,,,,2000.0,,,,,,,,stop_signal_with_directed_forgetting,,,,,,0.0-0.1-68.1,-1.0,none,,,-1,2000.0,"<div class = centerbox><div class = fixation><span style=""color:white"">+</span></div></div>",,,,258845,0.0,,practice_fixation,154,poldrack-single-stim,
155,350.0,500.0,"<div class = bigbox><div class = starbox><img class = center src=""/static/experiments/stop_signal_with_directed_forgetting/images/stopSignal.png""></img></div></div>",go,,1000.0,"['X', 'E']",77.0,1.0,TOP,1.0,10.0,pos,stop_signal_with_directed_forgetting,,,,,,0.0-0.1-69.1,77.0,"[77, 90]",X,,777,1000.0,"<div class = bigbox><div class = centerbox><div class = cue-text><img class = center src=""/static/experiments/stop_signal_with_directed_forgetting/images/X.png""></img></font></div></div></div>",,go,,259853,0.0,"['L', 'G']",practice_trial,155,stop-signal,
156,,,,,,1000.0,,,,,,,,stop_signal_with_directed_forgetting,,,,,,0.0-0.1-70.1,-1.0,"[77, 90]",,,-1,1000.0,,,,,260859,0.0,,practice_ITI_fixation,156,poldrack-single-stim,
157,,,,,,500.0,,,,,,,,stop_signal_with_directed_forgetting,,,,,,0.0-0.1-71.1,-1.0,none,,,-1,500.0,"<div class = fb_box><div class = center-text><font size = 20>Correct!</font></div></div><div class = prompt_box><p class = center-block-text style = ""font-size:16px; line-height:80%%;"">Please respond if the probe was in the memory set.</p><p class = center-block-text style = ""font-size:16px; line-height:80%%;"">In memory set: M Key</p><p class = center-block-text style = ""font-size:16px; line-height:80%%;"">Not in memory set: Z Key</p><p class = center-block-text style = ""font-size:16px; line-height:80%%;"">Do not respond if a star appears around the probe!</p></div>",,,,261364,0.0,,practice-stop-feedback,157,poldrack-single-stim,
158,,,,,,500.0,,,,,,,,stop_signal_with_directed_forgetting,,,,,,0.0-0.1-72.1,-1.0,none,,,-1,500.0,"<div class = centerbox><div class = fixation><span style=""color:white"">+</span></div></div>",,,,261872,0.0,,practice_fixation,158,poldrack-single-stim,
159,,,,,,2000.0,,,,,,,,stop_signal_with_directed_forgetting,,,,,,0.0-0.1-73.1,-1.0,none,,,-1,2000.0,"<div class = bigbox><div class = topLeft><div class = cue-text><img class = center src=""/static/experiments/stop_signal_with_directed_forgetting/images/K.png""></img></div></div><div class = topMiddle><div class = cue-text></div></div><div class = topRight><div class = cue-text><img class = center src=""/static/experiments/stop_signal_with_directed_forgetting/images/R.png""></img></div></div><div class = bottomLeft><div class = cue-text><img class = center src=""/static/experiments/stop_signal_with_directed_forgetting/images/O.png""></img></div></div><div class = bottomMiddle><div class = cue-text></div></div><div class = bottomRight><div class = cue-text><img class = center src=""/static/experiments/stop_signal_with_directed_forgetting/images/M.png""></img></div></div></div>",,,,263878,0.0,,practice_stim,159,poldrack-single-stim,
160,,,,,,1000.0,,,,,,,,stop_signal_with_directed_forgetting,,,,,,0.0-0.1-74.1,-1.0,[],,,-1,1000.0,"<div class = bigbox><div class = centerbox><div class = cue-text><img class = center src=""/static/experiments/stop_signal_with_directed_forgetting/images/BOT.png""></img></font></div></div></div>",,,,264882,0.0,,practice_cue,160,poldrack-single-stim,
161,,,,,,2000.0,,,,,,,,stop_signal_with_directed_forgetting,,,,,,0.0-0.1-75.1,-1.0,none,,,-1,2000.0,"<div class = centerbox><div class = fixation><span style=""color:white"">+</span></div></div>",,,,266885,0.0,,practice_fixation,161,poldrack-single-stim,
162,350.0,500.0,"<div class = bigbox><div class = starbox><img class = center src=""/static/experiments/stop_signal_with_directed_forgetting/images/stopSignal.png""></img></div></div>",stop,,1000.0,"['O', 'M']",-1.0,0.0,BOT,1.0,11.0,pos,stop_signal_with_directed_forgetting,,,,,,0.0-0.1-76.1,77.0,"[77, 90]",R,,576,1000.0,"<div class = bigbox><div class = centerbox><div class = cue-text><img class = center src=""/static/experiments/stop_signal_with_directed_forgetting/images/R.png""></img></font></div></div></div>",0.0,stop,,267888,0.0,"['K', 'R']",practice_trial,162,stop-signal,
163,,,,,,1000.0,,,,,,,,stop_signal_with_directed_forgetting,,,,,,0.0-0.1-77.1,-1.0,"[77, 90]",,,-1,1000.0,,,,,268895,0.0,,practice_ITI_fixation,163,poldrack-single-stim,
164,,,,,,500.0,,,,,,,,stop_signal_with_directed_forgetting,,,,,,0.0-0.1-78.1,-1.0,none,,,-1,500.0,"<div class = fb_box><div class = center-text><font size = 20>There was a star.</font></div></div><div class = prompt_box><p class = center-block-text style = ""font-size:16px; line-height:80%%;"">Please respond if the probe was in the memory set.</p><p class = center-block-text style = ""font-size:16px; line-height:80%%;"">In memory set: M Key</p><p class = center-block-text style = ""font-size:16px; line-height:80%%;"">Not in memory set: Z Key</p><p class = center-block-text style = ""font-size:16px; line-height:80%%;"">Do not respond if a star appears around the probe!</p></div>",,,,269404,0.0,,practice-stop-feedback,164,poldrack-single-stim,
165,,,,,,500.0,,,,,,,,stop_signal_with_directed_forgetting,,,,,,0.0-0.1-79.1,-1.0,none,,,-1,500.0,"<div class = centerbox><div class = fixation><span style=""color:white"">+</span></div></div>",,,,269908,0.0,,practice_fixation,165,poldrack-single-stim,
166,,,,,,2000.0,,,,,,,,stop_signal_with_directed_forgetting,,,,,,0.0-0.1-80.1,-1.0,none,,,-1,2000.0,"<div class = bigbox><div class = topLeft><div class = cue-text><img class = center src=""/static/experiments/stop_signal_with_directed_forgetting/images/T.png""></img></div></div><div class = topMiddle><div class = cue-text></div></div><div class = topRight><div class = cue-text><img class = center src=""/static/experiments/stop_signal_with_directed_forgetting/images/U.png""></img></div></div><div class = bottomLeft><div class = cue-text><img class = center src=""/static/experiments/stop_signal_with_directed_forgetting/images/Z.png""></img></div></div><div class = bottomMiddle><div class = cue-text></div></div><div class = bottomRight><div class = cue-text><img class = center src=""/static/experiments/stop_signal_with_directed_forgetting/images/C.png""></img></div></div></div>",,,,271912,0.0,,practice_stim,166,poldrack-single-stim,
167,,,,,,1000.0,,,,,,,,stop_signal_with_directed_forgetting,,,,,,0.0-0.1-81.1,-1.0,[],,,-1,1000.0,"<div class = bigbox><div class = centerbox><div class = cue-text><img class = center src=""/static/experiments/stop_signal_with_directed_forgetting/images/TOP.png""></img></font></div></div></div>",,,,272919,0.0,,practice_cue,167,poldrack-single-stim,
168,,,,,,2000.0,,,,,,,,stop_signal_with_directed_forgetting,,,,,,0.0-0.1-82.1,-1.0,none,,,-1,2000.0,"<div class = centerbox><div class = fixation><span style=""color:white"">+</span></div></div>",,,,274924,0.0,,practice_fixation,168,poldrack-single-stim,
169,300.0,500.0,"<div class = bigbox><div class = starbox><img class = center src=""/static/experiments/stop_signal_with_directed_forgetting/images/stopSignal.png""></img></div></div>",stop,,1000.0,"['Z', 'C']",-1.0,1.0,TOP,1.0,12.0,pos,stop_signal_with_directed_forgetting,,,,,,0.0-0.1-83.1,-1.0,"[77, 90]",Z,,-1,1000.0,"<div class = bigbox><div class = centerbox><div class = cue-text><img class = center src=""/static/experiments/stop_signal_with_directed_forgetting/images/Z.png""></img></font></div></div></div>",1.0,stop,,275928,0.0,"['T', 'U']",practice_trial,169,stop-signal,
170,,,,,,1000.0,,,,,,,,stop_signal_with_directed_forgetting,,,,,,0.0-0.1-84.1,-1.0,"[77, 90]",,,-1,1000.0,,,,,276933,0.0,,practice_ITI_fixation,170,poldrack-single-stim,
171,,,,,,500.0,,,,,,,,stop_signal_with_directed_forgetting,,,,,,0.0-0.1-85.1,-1.0,none,,,-1,500.0,"<div class = fb_box><div class = center-text><font size = 20>Correct!</font></div></div><div class = prompt_box><p class = center-block-text style = ""font-size:16px; line-height:80%%;"">Please respond if the probe was in the memory set.</p><p class = center-block-text style = ""font-size:16px; line-height:80%%;"">In memory set: M Key</p><p class = center-block-text style = ""font-size:16px; line-height:80%%;"">Not in memory set: Z Key</p><p class = center-block-text style = ""font-size:16px; line-height:80%%;"">Do not respond if a star appears around the probe!</p></div>",,,,277438,0.0,,practice-stop-feedback,171,poldrack-single-stim,
172,,,,,,8283.0,,,,,,,,stop_signal_with_directed_forgetting,,,,,,0.0-1.0,13.0,[13],,,8283,8283.0,<div class = bigbox><div class = picture_box><p class = block-text><br>Please take this time to read your feedback and to take a short break! Press enter to continue</p><p class = block-text>Done with this practice. Press Enter to continue.</p></div></div>,,,,285729,0.0,,feedback_block,172,poldrack-single-stim,
173,,,,,,8837.0,,,,,,,,stop_signal_with_directed_forgetting,,,,,,0.0-2.0,13.0,,,,8837,,,,,"<div class = centerbox><p class = block-text>We will now start the test portion</p><p class = block-text>In this experiment you will be presented with 4 letters on each trial. You must memorize all 4 letters.</p> <p class = block-text>There will be a short delay, then you will see a cue, either <i>TOP</i> or <i>BOT</i>. This will instruct you to <i>FORGET</i> the 2 letters located at either the top or bottom (respectively) of the screen. The 2 remaining letters that you must remember are called your <i>MEMORY SET</i>. Please forget the letters not in the memory set.</p><p class = block-text>So for example, if you get the cue TOP, please forget the top 2 letters and remember the bottom 2 letters.</p><p class = block-text>After a short delay, you will be presented with a probe.  Please indicate whether this probe was in your memory set.</p><p class = block-text>Press the <i>M Key </i>if the probe was in the memory set, and the <i>Z Key  </i>if not.</p><p class = block-text>On some trials, you will see a star appear with or shortly after the probe. Do not respond if you see a star.  Do not slow down your response to the probe in order to wait for the star.</p><p class = block-text>You will no longer receive the rule prompt, so remember the instructions before you continue. Press Enter to begin.</p></div>",294569,1000.0,,instruction,173,poldrack-text,
174,,,,,,2355.0,,,,,,,,stop_signal_with_directed_forgetting,,,,,,0.0-3.0-0.0,13.0,[13],,,2355,2355.0,<div class = bigbox><div class = picture_box><p class = block-text>We will now start the test portion. Press enter to begin.</p></div></div>,,,,297928,0.0,,feedback_block,174,poldrack-single-stim,
175,,,,,,500.0,,,,,,,,stop_signal_with_directed_forgetting,,,,,,0.0-3.0-1.0,-1.0,none,,,-1,500.0,"<div class = centerbox><div class = fixation><span style=""color:white"">+</span></div></div>",,,,298430,0.0,,fixation,175,poldrack-single-stim,
176,,,,,,2000.0,,,,,,,,stop_signal_with_directed_forgetting,,,,,,0.0-3.0-2.0,-1.0,none,,,-1,2000.0,"<div class = bigbox><div class = topLeft><div class = cue-text><img class = center src=""/static/experiments/stop_signal_with_directed_forgetting/images/K.png""></img></div></div><div class = topMiddle><div class = cue-text></div></div><div class = topRight><div class = cue-text><img class = center src=""/static/experiments/stop_signal_with_directed_forgetting/images/P.png""></img></div></div><div class = bottomLeft><div class = cue-text><img class = center src=""/static/experiments/stop_signal_with_directed_forgetting/images/L.png""></img></div></div><div class = bottomMiddle><div class = cue-text></div></div><div class = bottomRight><div class = cue-text><img class = center src=""/static/experiments/stop_signal_with_directed_forgetting/images/M.png""></img></div></div></div>",,,,300438,0.0,,stim,176,poldrack-single-stim,
177,,,,,,1000.0,,,,,,,,stop_signal_with_directed_forgetting,,,,,,0.0-3.0-3.0,-1.0,[],,,-1,1000.0,"<div class = bigbox><div class = centerbox><div class = cue-text><img class = center src=""/static/experiments/stop_signal_with_directed_forgetting/images/BOT.png""></img></font></div></div></div>",,,,301446,0.0,,cue,177,poldrack-single-stim,
178,,,,,,2000.0,,,,,,,,stop_signal_with_directed_forgetting,,,,,,0.0-3.0-4.0,-1.0,none,,,-1,2000.0,"<div class = centerbox><div class = fixation><span style=""color:white"">+</span></div></div>",,,,303449,0.0,,fixation,178,poldrack-single-stim,
179,350.0,500.0,"<div class = bigbox><div class = starbox><img class = center src=""/static/experiments/stop_signal_with_directed_forgetting/images/stopSignal.png""></img></div></div>",go,,1000.0,"['L', 'M']",77.0,1.0,BOT,0.0,1.0,pos,stop_signal_with_directed_forgetting,,,,,,0.0-3.0-5.0,77.0,"[77, 90]",K,,668,1000.0,"<div class = bigbox><div class = centerbox><div class = cue-text><img class = center src=""/static/experiments/stop_signal_with_directed_forgetting/images/K.png""></img></font></div></div></div>",,go,,304454,0.0,"['K', 'P']",test_trial,179,stop-signal,
180,,,,,,1000.0,,,,,,,,stop_signal_with_directed_forgetting,,,,,,0.0-3.0-6.0,-1.0,"[77, 90]",,,-1,1000.0,,,,,305457,0.0,,ITI_fixation,180,poldrack-single-stim,
181,,,,,,500.0,,,,,,,,stop_signal_with_directed_forgetting,,,,,,0.0-3.0-7.0,-1.0,none,,,-1,500.0,"<div class = centerbox><div class = fixation><span style=""color:white"">+</span></div></div>",,,,305963,0.0,,fixation,181,poldrack-single-stim,
182,,,,,,2000.0,,,,,,,,stop_signal_with_directed_forgetting,,,,,,0.0-3.0-8.0,-1.0,none,,,-1,2000.0,"<div class = bigbox><div class = topLeft><div class = cue-text><img class = center src=""/static/experiments/stop_signal_with_directed_forgetting/images/O.png""></img></div></div><div class = topMiddle><div class = cue-text></div></div><div class = topRight><div class = cue-text><img class = center src=""/static/experiments/stop_signal_with_directed_forgetting/images/J.png""></img></div></div><div class = bottomLeft><div class = cue-text><img class = center src=""/static/experiments/stop_signal_with_directed_forgetting/images/A.png""></img></div></div><div class = bottomMiddle><div class = cue-text></div></div><div class = bottomRight><div class = cue-text><img class = center src=""/static/experiments/stop_signal_with_directed_forgetting/images/C.png""></img></div></div></div>",,,,307971,0.0,,stim,182,poldrack-single-stim,
183,,,,,,1000.0,,,,,,,,stop_signal_with_directed_forgetting,,,,,,0.0-3.0-9.0,-1.0,[],,,-1,1000.0,"<div class = bigbox><div class = centerbox><div class = cue-text><img class = center src=""/static/experiments/stop_signal_with_directed_forgetting/images/BOT.png""></img></font></div></div></div>",,,,308976,0.0,,cue,183,poldrack-single-stim,
184,,,,,,2000.0,,,,,,,,stop_signal_with_directed_forgetting,,,,,,0.0-3.0-10.0,-1.0,none,,,-1,2000.0,"<div class = centerbox><div class = fixation><span style=""color:white"">+</span></div></div>",,,,310984,0.0,,fixation,184,poldrack-single-stim,
185,350.0,500.0,"<div class = bigbox><div class = starbox><img class = center src=""/static/experiments/stop_signal_with_directed_forgetting/images/stopSignal.png""></img></div></div>",stop,,1000.0,"['A', 'C']",-1.0,1.0,BOT,0.0,2.0,con,stop_signal_with_directed_forgetting,,,,,,0.0-3.0-11.0,-1.0,"[77, 90]",T,,-1,1000.0,"<div class = bigbox><div class = centerbox><div class = cue-text><img class = center src=""/static/experiments/stop_signal_with_directed_forgetting/images/T.png""></img></font></div></div></div>",1.0,stop,,311992,0.0,"['O', 'J']",test_trial,185,stop-signal,
186,,,,,,1000.0,,,,,,,,stop_signal_with_directed_forgetting,,,,,,0.0-3.0-12.0,-1.0,"[77, 90]",,,-1,1000.0,,,,,312999,0.0,,ITI_fixation,186,poldrack-single-stim,
187,,,,,,500.0,,,,,,,,stop_signal_with_directed_forgetting,,,,,,0.0-3.0-13.0,-1.0,none,,,-1,500.0,"<div class = centerbox><div class = fixation><span style=""color:white"">+</span></div></div>",,,,313503,0.0,,fixation,187,poldrack-single-stim,
188,,,,,,2000.0,,,,,,,,stop_signal_with_directed_forgetting,,,,,,0.0-3.0-14.0,-1.0,none,,,-1,2000.0,"<div class = bigbox><div class = topLeft><div class = cue-text><img class = center src=""/static/experiments/stop_signal_with_directed_forgetting/images/Y.png""></img></div></div><div class = topMiddle><div class = cue-text></div></div><div class = topRight><div class = cue-text><img class = center src=""/static/experiments/stop_signal_with_directed_forgetting/images/Z.png""></img></div></div><div class = bottomLeft><div class = cue-text><img class = center src=""/static/experiments/stop_signal_with_directed_forgetting/images/N.png""></img></div></div><div class = bottomMiddle><div class = cue-text></div></div><div class = bottomRight><div class = cue-text><img class = center src=""/static/experiments/stop_signal_with_directed_forgetting/images/D.png""></img></div></div></div>",,,,315511,0.0,,stim,188,poldrack-single-stim,
189,,,,,,1000.0,,,,,,,,stop_signal_with_directed_forgetting,,,,,,0.0-3.0-15.0,-1.0,[],,,-1,1000.0,"<div class = bigbox><div class = centerbox><div class = cue-text><img class = center src=""/static/experiments/stop_signal_with_directed_forgetting/images/BOT.png""></img></font></div></div></div>",,,,316518,0.0,,cue,189,poldrack-single-stim,
190,,,,,,2000.0,,,,,,,,stop_signal_with_directed_forgetting,,,,,,0.0-3.0-16.0,-1.0,none,,,-1,2000.0,"<div class = centerbox><div class = fixation><span style=""color:white"">+</span></div></div>",,,,318523,0.0,,fixation,190,poldrack-single-stim,
191,400.0,500.0,"<div class = bigbox><div class = starbox><img class = center src=""/static/experiments/stop_signal_with_directed_forgetting/images/stopSignal.png""></img></div></div>",stop,,1000.0,"['N', 'D']",-1.0,0.0,BOT,0.0,3.0,pos,stop_signal_with_directed_forgetting,,,,,,0.0-3.0-17.0,77.0,"[77, 90]",Y,,650,1000.0,"<div class = bigbox><div class = centerbox><div class = cue-text><img class = center src=""/static/experiments/stop_signal_with_directed_forgetting/images/Y.png""></img></font></div></div></div>",0.0,stop,,319526,0.0,"['Y', 'Z']",test_trial,191,stop-signal,
192,,,,,,1000.0,,,,,,,,stop_signal_with_directed_forgetting,,,,,,0.0-3.0-18.0,-1.0,"[77, 90]",,,-1,1000.0,,,,,320532,0.0,,ITI_fixation,192,poldrack-single-stim,
193,,,,,,500.0,,,,,,,,stop_signal_with_directed_forgetting,,,,,,0.0-3.0-19.0,-1.0,none,,,-1,500.0,"<div class = centerbox><div class = fixation><span style=""color:white"">+</span></div></div>",,,,321037,0.0,,fixation,193,poldrack-single-stim,
194,,,,,,2000.0,,,,,,,,stop_signal_with_directed_forgetting,,,,,,0.0-3.0-20.0,-1.0,none,,,-1,2000.0,"<div class = bigbox><div class = topLeft><div class = cue-text><img class = center src=""/static/experiments/stop_signal_with_directed_forgetting/images/V.png""></img></div></div><div class = topMiddle><div class = cue-text></div></div><div class = topRight><div class = cue-text><img class = center src=""/static/experiments/stop_signal_with_directed_forgetting/images/T.png""></img></div></div><div class = bottomLeft><div class = cue-text><img class = center src=""/static/experiments/stop_signal_with_directed_forgetting/images/M.png""></img></div></div><div class = bottomMiddle><div class = cue-text></div></div><div class = bottomRight><div class = cue-text><img class = center src=""/static/experiments/stop_signal_with_directed_forgetting/images/G.png""></img></div></div></div>",,,,323044,0.0,,stim,194,poldrack-single-stim,
195,,,,,,1000.0,,,,,,,,stop_signal_with_directed_forgetting,,,,,,0.0-3.0-21.0,-1.0,[],,,-1,1000.0,"<div class = bigbox><div class = centerbox><div class = cue-text><img class = center src=""/static/experiments/stop_signal_with_directed_forgetting/images/BOT.png""></img></font></div></div></div>",,,,324050,0.0,,cue,195,poldrack-single-stim,
196,,,,,,2000.0,,,,,,,,stop_signal_with_directed_forgetting,,,,,,0.0-3.0-22.0,-1.0,none,,,-1,2000.0,"<div class = centerbox><div class = fixation><span style=""color:white"">+</span></div></div>",,,,326053,0.0,,fixation,196,poldrack-single-stim,
197,350.0,500.0,"<div class = bigbox><div class = starbox><img class = center src=""/static/experiments/stop_signal_with_directed_forgetting/images/stopSignal.png""></img></div></div>",go,,1000.0,"['M', 'G']",77.0,1.0,BOT,0.0,4.0,pos,stop_signal_with_directed_forgetting,,,,,,0.0-3.0-23.0,77.0,"[77, 90]",T,,776,1000.0,"<div class = bigbox><div class = centerbox><div class = cue-text><img class = center src=""/static/experiments/stop_signal_with_directed_forgetting/images/T.png""></img></font></div></div></div>",,go,,327057,0.0,"['V', 'T']",test_trial,197,stop-signal,
198,,,,,,1000.0,,,,,,,,stop_signal_with_directed_forgetting,,,,,,0.0-3.0-24.0,-1.0,"[77, 90]",,,-1,1000.0,,,,,328059,0.0,,ITI_fixation,198,poldrack-single-stim,
199,,,,,,500.0,,,,,,,,stop_signal_with_directed_forgetting,,,,,,0.0-3.0-25.0,-1.0,none,,,-1,500.0,"<div class = centerbox><div class = fixation><span style=""color:white"">+</span></div></div>",,,,328566,0.0,,fixation,199,poldrack-single-stim,
200,,,,,,2000.0,,,,,,,,stop_signal_with_directed_forgetting,,,,,,0.0-3.0-26.0,-1.0,none,,,-1,2000.0,"<div class = bigbox><div class = topLeft><div class = cue-text><img class = center src=""/static/experiments/stop_signal_with_directed_forgetting/images/K.png""></img></div></div><div class = topMiddle><div class = cue-text></div></div><div class = topRight><div class = cue-text><img class = center src=""/static/experiments/stop_signal_with_directed_forgetting/images/I.png""></img></div></div><div class = bottomLeft><div class = cue-text><img class = center src=""/static/experiments/stop_signal_with_directed_forgetting/images/A.png""></img></div></div><div class = bottomMiddle><div class = cue-text></div></div><div class = bottomRight><div class = cue-text><img class = center src=""/static/experiments/stop_signal_with_directed_forgetting/images/Q.png""></img></div></div></div>",,,,330569,0.0,,stim,200,poldrack-single-stim,
201,,,,,,1000.0,,,,,,,,stop_signal_with_directed_forgetting,,,,,,0.0-3.0-27.0,-1.0,[],,,-1,1000.0,"<div class = bigbox><div class = centerbox><div class = cue-text><img class = center src=""/static/experiments/stop_signal_with_directed_forgetting/images/TOP.png""></img></font></div></div></div>",,,,331573,0.0,,cue,201,poldrack-single-stim,
202,,,,,,2000.0,,,,,,,,stop_signal_with_directed_forgetting,,,,,,0.0-3.0-28.0,-1.0,none,,,-1,2000.0,"<div class = centerbox><div class = fixation><span style=""color:white"">+</span></div></div>",,,,333580,0.0,,fixation,202,poldrack-single-stim,
203,350.0,500.0,"<div class = bigbox><div class = starbox><img class = center src=""/static/experiments/stop_signal_with_directed_forgetting/images/stopSignal.png""></img></div></div>",stop,,1000.0,"['A', 'Q']",-1.0,1.0,TOP,0.0,5.0,neg,stop_signal_with_directed_forgetting,,,,,,0.0-3.0-29.0,-1.0,"[77, 90]",K,,-1,1000.0,"<div class = bigbox><div class = centerbox><div class = cue-text><img class = center src=""/static/experiments/stop_signal_with_directed_forgetting/images/K.png""></img></font></div></div></div>",1.0,stop,,334588,0.0,"['K', 'I']",test_trial,203,stop-signal,
204,,,,,,1000.0,,,,,,,,stop_signal_with_directed_forgetting,,,,,,0.0-3.0-30.0,-1.0,"[77, 90]",,,-1,1000.0,,,,,335591,0.0,,ITI_fixation,204,poldrack-single-stim,
205,,,,,,500.0,,,,,,,,stop_signal_with_directed_forgetting,,,,,,0.0-3.0-31.0,-1.0,none,,,-1,500.0,"<div class = centerbox><div class = fixation><span style=""color:white"">+</span></div></div>",,,,336095,0.0,,fixation,205,poldrack-single-stim,
206,,,,,,2000.0,,,,,,,,stop_signal_with_directed_forgetting,,,,,,0.0-3.0-32.0,-1.0,none,,,-1,2000.0,"<div class = bigbox><div class = topLeft><div class = cue-text><img class = center src=""/static/experiments/stop_signal_with_directed_forgetting/images/P.png""></img></div></div><div class = topMiddle><div class = cue-text></div></div><div class = topRight><div class = cue-text><img class = center src=""/static/experiments/stop_signal_with_directed_forgetting/images/R.png""></img></div></div><div class = bottomLeft><div class = cue-text><img class = center src=""/static/experiments/stop_signal_with_directed_forgetting/images/W.png""></img></div></div><div class = bottomMiddle><div class = cue-text></div></div><div class = bottomRight><div class = cue-text><img class = center src=""/static/experiments/stop_signal_with_directed_forgetting/images/L.png""></img></div></div></div>",,,,338099,0.0,,stim,206,poldrack-single-stim,
207,,,,,,1000.0,,,,,,,,stop_signal_with_directed_forgetting,,,,,,0.0-3.0-33.0,-1.0,[],,,-1,1000.0,"<div class = bigbox><div class = centerbox><div class = cue-text><img class = center src=""/static/experiments/stop_signal_with_directed_forgetting/images/BOT.png""></img></font></div></div></div>",,,,339108,0.0,,cue,207,poldrack-single-stim,
208,,,,,,2000.0,,,,,,,,stop_signal_with_directed_forgetting,,,,,,0.0-3.0-34.0,-1.0,none,,,-1,2000.0,"<div class = centerbox><div class = fixation><span style=""color:white"">+</span></div></div>",,,,341111,0.0,,fixation,208,poldrack-single-stim,
209,400.0,500.0,"<div class = bigbox><div class = starbox><img class = center src=""/static/experiments/stop_signal_with_directed_forgetting/images/stopSignal.png""></img></div></div>",go,,1000.0,"['W', 'L']",90.0,0.0,BOT,0.0,6.0,neg,stop_signal_with_directed_forgetting,,,,,,0.0-3.0-35.0,77.0,"[77, 90]",L,,765,1000.0,"<div class = bigbox><div class = centerbox><div class = cue-text><img class = center src=""/static/experiments/stop_signal_with_directed_forgetting/images/L.png""></img></font></div></div></div>",,go,,342115,0.0,"['P', 'R']",test_trial,209,stop-signal,
210,,,,,,1000.0,,,,,,,,stop_signal_with_directed_forgetting,,,,,,0.0-3.0-36.0,-1.0,"[77, 90]",,,-1,1000.0,,,,,343118,0.0,,ITI_fixation,210,poldrack-single-stim,
211,,,,,,500.0,,,,,,,,stop_signal_with_directed_forgetting,,,,,,0.0-3.0-37.0,-1.0,none,,,-1,500.0,"<div class = centerbox><div class = fixation><span style=""color:white"">+</span></div></div>",,,,343624,0.0,,fixation,211,poldrack-single-stim,
212,,,,,,2000.0,,,,,,,,stop_signal_with_directed_forgetting,,,,,,0.0-3.0-38.0,-1.0,none,,,-1,2000.0,"<div class = bigbox><div class = topLeft><div class = cue-text><img class = center src=""/static/experiments/stop_signal_with_directed_forgetting/images/U.png""></img></div></div><div class = topMiddle><div class = cue-text></div></div><div class = topRight><div class = cue-text><img class = center src=""/static/experiments/stop_signal_with_directed_forgetting/images/N.png""></img></div></div><div class = bottomLeft><div class = cue-text><img class = center src=""/static/experiments/stop_signal_with_directed_forgetting/images/Z.png""></img></div></div><div class = bottomMiddle><div class = cue-text></div></div><div class = bottomRight><div class = cue-text><img class = center src=""/static/experiments/stop_signal_with_directed_forgetting/images/B.png""></img></div></div></div>",,,,345630,0.0,,stim,212,poldrack-single-stim,
213,,,,,,1000.0,,,,,,,,stop_signal_with_directed_forgetting,,,,,,0.0-3.0-39.0,-1.0,[],,,-1,1000.0,"<div class = bigbox><div class = centerbox><div class = cue-text><img class = center src=""/static/experiments/stop_signal_with_directed_forgetting/images/BOT.png""></img></font></div></div></div>",,,,346637,0.0,,cue,213,poldrack-single-stim,
214,,,,,,2000.0,,,,,,,,stop_signal_with_directed_forgetting,,,,,,0.0-3.0-40.0,-1.0,none,,,-1,2000.0,"<div class = centerbox><div class = fixation><span style=""color:white"">+</span></div></div>",,,,348645,0.0,,fixation,214,poldrack-single-stim,
