,SSD_diff,SSD_neutral,SSD_same,SS_delay,SS_duration,SS_stimulus,SS_trial_type,att_check_percent,block_duration,correct,correct_response,correct_trial,current_block,current_trial,distractor,exp_id,final_accuracy,final_avg_rt,final_credit_var,final_missed_percent,final_responses_ok,internal_node_id,key_press,possible_responses,probe,responses,rt,shape_matching_condition,stim_duration,stimulus,stop_acc,stop_signal_condition,target,text,time_elapsed,timing_post_trial,trial_id,trial_index,trial_type,view_history
0,,,,,,,,,1945.0,,,,,,,stop_signal_with_shape_matching,,,,,,0.0-0.0-0.0,13.0,[13],,,1945,,1945.0,<div class = bigbox><div class = picture_box><p class = block-text>Welcome to the experiment. This experiment will take about 20 minutes. Press <i>enter</i> to begin.</p></div></div>,,,,,1953,0.0,feedback_block,0,poldrack-single-stim,
1,,,,,,,,,,,,,,,,stop_signal_with_shape_matching,,,,,,0.0-0.0-1.0,,,,,23724,,,,,,,,25685,,instruction,1,poldrack-instructions,"[{""page_index"":0,""viewing_time"":13470},{""page_index"":1,""viewing_time"":8483},{""page_index"":2,""viewing_time"":1768}]"
2,,,,,,,,,500.0,,,,,,,stop_signal_with_shape_matching,,,,,,0.0-0.0-2.0,-1.0,none,,,-1,,500.0,"<div class = bigbox><div class = leftbox><img class = center src=""/static/experiments/stop_signal_with_shape_matching/images/mask.png""></img><div class = centerbox><div class = fixation>+</div></div></div><div class = rightbox><img class = center src=""/static/experiments/stop_signal_with_shape_matching/images/mask.png""></img><div class = centerbox><div class = fixation>+</div></div></div></div>",,,,,27199,0.0,practice_mask,2,poldrack-single-stim,
3,350.0,350.0,350.0,350.0,500.0,"<div class = starbox><img class = center src=""/static/experiments/stop_signal_with_shape_matching/images/stopSignal.png""></img></div>",go,,2000.0,,90.0,1.0,0.0,1.0,none,stop_signal_with_shape_matching,,,,,,0.0-0.0-3.0,90.0,"[77, 90]",5.0,,806,DNN,1000.0,"<div class = bigbox><div class = leftbox><img class = center src=""/static/experiments/stop_signal_with_shape_matching/images/4_green.png""></img></div><div class = distractorbox></div><div class = rightbox><img class = center src=""/static/experiments/stop_signal_with_shape_matching/images/5_white.png""></img></div></div>",,go,4.0,,29213,0.0,practice_trial,3,stop-signal,
4,,,,,,,,,500.0,,,,,,,stop_signal_with_shape_matching,,,,,,0.0-0.0-4.0,-1.0,none,,,-1,,500.0,"<div class = fb_box><div class = center-text><font size = 20>Correct!</font></div></div><div class = prompt_box><p class = center-block-text style = ""font-size:16px; line-height:80%;"">Respond if the green and white shapes are the same or different!</p><p class = center-block-text style = ""font-size:16px; line-height:80%;"">Same: M Key</p><p class = center-block-text style = ""font-size:16px; line-height:80%;"">Different: Z Key</p><p class = center-block-text style = ""font-size:16px; line-height:80%;"">Do not respond if you see a star around the white shape</p><p class = center-block-text style = ""font-size:16px; line-height:80%;"">Do not slow down your responses to the shape to wait for the star.</p></div>",,,,,29725,0.0,practice-stop-feedback,4,poldrack-single-stim,
5,,,,,,,,,500.0,,,,,,,stop_signal_with_shape_matching,,,,,,0.0-0.0-5.0,-1.0,none,,,-1,,500.0,"<div class = bigbox><div class = leftbox><img class = center src=""/static/experiments/stop_signal_with_shape_matching/images/mask.png""></img><div class = centerbox><div class = fixation>+</div></div></div><div class = rightbox><img class = center src=""/static/experiments/stop_signal_with_shape_matching/images/mask.png""></img><div class = centerbox><div class = fixation>+</div></div></div></div>",,,,,30237,0.0,practice_mask,5,poldrack-single-stim,
6,350.0,350.0,350.0,350.0,500.0,"<div class = starbox><img class = center src=""/static/experiments/stop_signal_with_shape_matching/images/stopSignal.png""></img></div>",stop,,2000.0,,-1.0,1.0,0.0,2.0,2,stop_signal_with_shape_matching,,,,,,0.0-0.0-6.0,-1.0,"[77, 90]",6.0,,-1,SDD,1000.0,"<div class = bigbox><div class = leftbox><img class = center src=""/static/experiments/stop_signal_with_shape_matching/images/6_green.png""></img></div><div class = distractorbox><img class = center src=""/static/experiments/stop_signal_with_shape_matching/images/2_red.png""></img></div><div class = rightbox><img class = center src=""/static/experiments/stop_signal_with_shape_matching/images/6_white.png""></img></div></div>",1.0,stop,6.0,,32255,0.0,practice_trial,6,stop-signal,
7,,,,,,,,,500.0,,,,,,,stop_signal_with_shape_matching,,,,,,0.0-0.0-7.0,-1.0,none,,,-1,,500.0,"<div class = fb_box><div class = center-text><font size = 20>Correct!</font></div></div><div class = prompt_box><p class = center-block-text style = ""font-size:16px; line-height:80%;"">Respond if the green and white shapes are the same or different!</p><p class = center-block-text style = ""font-size:16px; line-height:80%;"">Same: M Key</p><p class = center-block-text style = ""font-size:16px; line-height:80%;"">Different: Z Key</p><p class = center-block-text style = ""font-size:16px; line-height:80%;"">Do not respond if you see a star around the white shape</p><p class = center-block-text style = ""font-size:16px; line-height:80%;"">Do not slow down your responses to the shape to wait for the star.</p></div>",,,,,32772,0.0,practice-stop-feedback,7,poldrack-single-stim,
8,,,,,,,,,500.0,,,,,,,stop_signal_with_shape_matching,,,,,,0.0-0.0-8.0,-1.0,none,,,-1,,500.0,"<div class = bigbox><div class = leftbox><img class = center src=""/static/experiments/stop_signal_with_shape_matching/images/mask.png""></img><div class = centerbox><div class = fixation>+</div></div></div><div class = rightbox><img class = center src=""/static/experiments/stop_signal_with_shape_matching/images/mask.png""></img><div class = centerbox><div class = fixation>+</div></div></div></div>",,,,,33288,0.0,practice_mask,8,poldrack-single-stim,
9,400.0,350.0,350.0,350.0,500.0,"<div class = starbox><img class = center src=""/static/experiments/stop_signal_with_shape_matching/images/stopSignal.png""></img></div>",go,,2000.0,,77.0,1.0,0.0,3.0,3,stop_signal_with_shape_matching,,,,,,0.0-0.0-9.0,77.0,"[77, 90]",3.0,,768,SSS,1000.0,"<div class = bigbox><div class = leftbox><img class = center src=""/static/experiments/stop_signal_with_shape_matching/images/3_green.png""></img></div><div class = distractorbox><img class = center src=""/static/experiments/stop_signal_with_shape_matching/images/3_red.png""></img></div><div class = rightbox><img class = center src=""/static/experiments/stop_signal_with_shape_matching/images/3_white.png""></img></div></div>",,go,3.0,,35303,0.0,practice_trial,9,stop-signal,
10,,,,,,,,,500.0,,,,,,,stop_signal_with_shape_matching,,,,,,0.0-0.0-10.0,-1.0,none,,,-1,,500.0,"<div class = fb_box><div class = center-text><font size = 20>Correct!</font></div></div><div class = prompt_box><p class = center-block-text style = ""font-size:16px; line-height:80%;"">Respond if the green and white shapes are the same or different!</p><p class = center-block-text style = ""font-size:16px; line-height:80%;"">Same: M Key</p><p class = center-block-text style = ""font-size:16px; line-height:80%;"">Different: Z Key</p><p class = center-block-text style = ""font-size:16px; line-height:80%;"">Do not respond if you see a star around the white shape</p><p class = center-block-text style = ""font-size:16px; line-height:80%;"">Do not slow down your responses to the shape to wait for the star.</p></div>",,,,,35821,0.0,practice-stop-feedback,10,poldrack-single-stim,
11,,,,,,,,,500.0,,,,,,,stop_signal_with_shape_matching,,,,,,0.0-0.0-11.0,-1.0,none,,,-1,,500.0,"<div class = bigbox><div class = leftbox><img class = center src=""/static/experiments/stop_signal_with_shape_matching/images/mask.png""></img><div class = centerbox><div class = fixation>+</div></div></div><div class = rightbox><img class = center src=""/static/experiments/stop_signal_with_shape_matching/images/mask.png""></img><div class = centerbox><div class = fixation>+</div></div></div></div>",,,,,36330,0.0,practice_mask,11,poldrack-single-stim,
12,400.0,350.0,350.0,400.0,500.0,"<div class = starbox><img class = center src=""/static/experiments/stop_signal_with_shape_matching/images/stopSignal.png""></img></div>",go,,2000.0,,77.0,1.0,0.0,4.0,3,stop_signal_with_shape_matching,,,,,,0.0-0.0-12.0,77.0,"[77, 90]",6.0,,609,SDD,1000.0,"<div class = bigbox><div class = leftbox><img class = center src=""/static/experiments/stop_signal_with_shape_matching/images/6_green.png""></img></div><div class = distractorbox><img class = center src=""/static/experiments/stop_signal_with_shape_matching/images/3_red.png""></img></div><div class = rightbox><img class = center src=""/static/experiments/stop_signal_with_shape_matching/images/6_white.png""></img></div></div>",,go,6.0,,38338,0.0,practice_trial,12,stop-signal,
13,,,,,,,,,500.0,,,,,,,stop_signal_with_shape_matching,,,,,,0.0-0.0-13.0,-1.0,none,,,-1,,500.0,"<div class = fb_box><div class = center-text><font size = 20>Correct!</font></div></div><div class = prompt_box><p class = center-block-text style = ""font-size:16px; line-height:80%;"">Respond if the green and white shapes are the same or different!</p><p class = center-block-text style = ""font-size:16px; line-height:80%;"">Same: M Key</p><p class = center-block-text style = ""font-size:16px; line-height:80%;"">Different: Z Key</p><p class = center-block-text style = ""font-size:16px; line-height:80%;"">Do not respond if you see a star around the white shape</p><p class = center-block-text style = ""font-size:16px; line-height:80%;"">Do not slow down your responses to the shape to wait for the star.</p></div>",,,,,38845,0.0,practice-stop-feedback,13,poldrack-single-stim,
14,,,,,,,,,500.0,,,,,,,stop_signal_with_shape_matching,,,,,,0.0-0.0-14.0,-1.0,none,,,-1,,500.0,"<div class = bigbox><div class = leftbox><img class = center src=""/static/experiments/stop_signal_with_shape_matching/images/mask.png""></img><div class = centerbox><div class = fixation>+</div></div></div><div class = rightbox><img class = center src=""/static/experiments/stop_signal_with_shape_matching/images/mask.png""></img><div class = centerbox><div class = fixation>+</div></div></div></div>",,,,,39358,0.0,practice_mask,14,poldrack-single-stim,
15,400.0,350.0,350.0,350.0,500.0,"<div class = starbox><img class = center src=""/static/experiments/stop_signal_with_shape_matching/images/stopSignal.png""></img></div>",go,,2000.0,,90.0,1.0,0.0,5.0,6,stop_signal_with_shape_matching,,,,,,0.0-0.0-15.0,90.0,"[77, 90]",1.0,,712,DSD,1000.0,"<div class = bigbox><div class = leftbox><img class = center src=""/static/experiments/stop_signal_with_shape_matching/images/6_green.png""></img></div><div class = distractorbox><img class = center src=""/static/experiments/stop_signal_with_shape_matching/images/6_red.png""></img></div><div class = rightbox><img class = center src=""/static/experiments/stop_signal_with_shape_matching/images/1_white.png""></img></div></div>",,go,6.0,,41365,0.0,practice_trial,15,stop-signal,
16,,,,,,,,,500.0,,,,,,,stop_signal_with_shape_matching,,,,,,0.0-0.0-16.0,-1.0,none,,,-1,,500.0,"<div class = fb_box><div class = center-text><font size = 20>Correct!</font></div></div><div class = prompt_box><p class = center-block-text style = ""font-size:16px; line-height:80%;"">Respond if the green and white shapes are the same or different!</p><p class = center-block-text style = ""font-size:16px; line-height:80%;"">Same: M Key</p><p class = center-block-text style = ""font-size:16px; line-height:80%;"">Different: Z Key</p><p class = center-block-text style = ""font-size:16px; line-height:80%;"">Do not respond if you see a star around the white shape</p><p class = center-block-text style = ""font-size:16px; line-height:80%;"">Do not slow down your responses to the shape to wait for the star.</p></div>",,,,,41870,0.0,practice-stop-feedback,16,poldrack-single-stim,
17,,,,,,,,,500.0,,,,,,,stop_signal_with_shape_matching,,,,,,0.0-0.0-17.0,-1.0,none,,,-1,,500.0,"<div class = bigbox><div class = leftbox><img class = center src=""/static/experiments/stop_signal_with_shape_matching/images/mask.png""></img><div class = centerbox><div class = fixation>+</div></div></div><div class = rightbox><img class = center src=""/static/experiments/stop_signal_with_shape_matching/images/mask.png""></img><div class = centerbox><div class = fixation>+</div></div></div></div>",,,,,42376,0.0,practice_mask,17,poldrack-single-stim,
18,400.0,350.0,350.0,350.0,500.0,"<div class = starbox><img class = center src=""/static/experiments/stop_signal_with_shape_matching/images/stopSignal.png""></img></div>",go,,2000.0,,77.0,1.0,0.0,6.0,none,stop_signal_with_shape_matching,,,,,,0.0-0.0-18.0,77.0,"[77, 90]",2.0,,535,SNN,1000.0,"<div class = bigbox><div class = leftbox><img class = center src=""/static/experiments/stop_signal_with_shape_matching/images/2_green.png""></img></div><div class = distractorbox></div><div class = rightbox><img class = center src=""/static/experiments/stop_signal_with_shape_matching/images/2_white.png""></img></div></div>",,go,2.0,,44384,0.0,practice_trial,18,stop-signal,
19,,,,,,,,,500.0,,,,,,,stop_signal_with_shape_matching,,,,,,0.0-0.0-19.0,-1.0,none,,,-1,,500.0,"<div class = fb_box><div class = center-text><font size = 20>Correct!</font></div></div><div class = prompt_box><p class = center-block-text style = ""font-size:16px; line-height:80%;"">Respond if the green and white shapes are the same or different!</p><p class = center-block-text style = ""font-size:16px; line-height:80%;"">Same: M Key</p><p class = center-block-text style = ""font-size:16px; line-height:80%;"">Different: Z Key</p><p class = center-block-text style = ""font-size:16px; line-height:80%;"">Do not respond if you see a star around the white shape</p><p class = center-block-text style = ""font-size:16px; line-height:80%;"">Do not slow down your responses to the shape to wait for the star.</p></div>",,,,,44896,0.0,practice-stop-feedback,19,poldrack-single-stim,
20,,,,,,,,,500.0,,,,,,,stop_signal_with_shape_matching,,,,,,0.0-0.0-20.0,-1.0,none,,,-1,,500.0,"<div class = bigbox><div class = leftbox><img class = center src=""/static/experiments/stop_signal_with_shape_matching/images/mask.png""></img><div class = centerbox><div class = fixation>+</div></div></div><div class = rightbox><img class = center src=""/static/experiments/stop_signal_with_shape_matching/images/mask.png""></img><div class = centerbox><div class = fixation>+</div></div></div></div>",,,,,45404,0.0,practice_mask,20,poldrack-single-stim,
21,400.0,350.0,350.0,350.0,500.0,"<div class = starbox><img class = center src=""/static/experiments/stop_signal_with_shape_matching/images/stopSignal.png""></img></div>",stop,,2000.0,,-1.0,1.0,0.0,7.0,none,stop_signal_with_shape_matching,,,,,,0.0-0.0-21.0,-1.0,"[77, 90]",10.0,,-1,DNN,1000.0,"<div class = bigbox><div class = leftbox><img class = center src=""/static/experiments/stop_signal_with_shape_matching/images/7_green.png""></img></div><div class = distractorbox></div><div class = rightbox><img class = center src=""/static/experiments/stop_signal_with_shape_matching/images/10_white.png""></img></div></div>",1.0,stop,7.0,,47412,0.0,practice_trial,21,stop-signal,
22,,,,,,,,,500.0,,,,,,,stop_signal_with_shape_matching,,,,,,0.0-0.0-22.0,-1.0,none,,,-1,,500.0,"<div class = fb_box><div class = center-text><font size = 20>Correct!</font></div></div><div class = prompt_box><p class = center-block-text style = ""font-size:16px; line-height:80%;"">Respond if the green and white shapes are the same or different!</p><p class = center-block-text style = ""font-size:16px; line-height:80%;"">Same: M Key</p><p class = center-block-text style = ""font-size:16px; line-height:80%;"">Different: Z Key</p><p class = center-block-text style = ""font-size:16px; line-height:80%;"">Do not respond if you see a star around the white shape</p><p class = center-block-text style = ""font-size:16px; line-height:80%;"">Do not slow down your responses to the shape to wait for the star.</p></div>",,,,,47917,0.0,practice-stop-feedback,22,poldrack-single-stim,
23,,,,,,,,,500.0,,,,,,,stop_signal_with_shape_matching,,,,,,0.0-0.0-23.0,-1.0,none,,,-1,,500.0,"<div class = bigbox><div class = leftbox><img class = center src=""/static/experiments/stop_signal_with_shape_matching/images/mask.png""></img><div class = centerbox><div class = fixation>+</div></div></div><div class = rightbox><img class = center src=""/static/experiments/stop_signal_with_shape_matching/images/mask.png""></img><div class = centerbox><div class = fixation>+</div></div></div></div>",,,,,48424,0.0,practice_mask,23,poldrack-single-stim,
24,400.0,400.0,350.0,400.0,500.0,"<div class = starbox><img class = center src=""/static/experiments/stop_signal_with_shape_matching/images/stopSignal.png""></img></div>",stop,,2000.0,,-1.0,1.0,0.0,8.0,none,stop_signal_with_shape_matching,,,,,,0.0-0.0-24.0,-1.0,"[77, 90]",10.0,,-1,SNN,1000.0,"<div class = bigbox><div class = leftbox><img class = center src=""/static/experiments/stop_signal_with_shape_matching/images/10_green.png""></img></div><div class = distractorbox></div><div class = rightbox><img class = center src=""/static/experiments/stop_signal_with_shape_matching/images/10_white.png""></img></div></div>",1.0,stop,10.0,,50431,0.0,practice_trial,24,stop-signal,
25,,,,,,,,,500.0,,,,,,,stop_signal_with_shape_matching,,,,,,0.0-0.0-25.0,-1.0,none,,,-1,,500.0,"<div class = fb_box><div class = center-text><font size = 20>Correct!</font></div></div><div class = prompt_box><p class = center-block-text style = ""font-size:16px; line-height:80%;"">Respond if the green and white shapes are the same or different!</p><p class = center-block-text style = ""font-size:16px; line-height:80%;"">Same: M Key</p><p class = center-block-text style = ""font-size:16px; line-height:80%;"">Different: Z Key</p><p class = center-block-text style = ""font-size:16px; line-height:80%;"">Do not respond if you see a star around the white shape</p><p class = center-block-text style = ""font-size:16px; line-height:80%;"">Do not slow down your responses to the shape to wait for the star.</p></div>",,,,,50937,0.0,practice-stop-feedback,25,poldrack-single-stim,
26,,,,,,,,,500.0,,,,,,,stop_signal_with_shape_matching,,,,,,0.0-0.0-26.0,-1.0,none,,,-1,,500.0,"<div class = bigbox><div class = leftbox><img class = center src=""/static/experiments/stop_signal_with_shape_matching/images/mask.png""></img><div class = centerbox><div class = fixation>+</div></div></div><div class = rightbox><img class = center src=""/static/experiments/stop_signal_with_shape_matching/images/mask.png""></img><div class = centerbox><div class = fixation>+</div></div></div></div>",,,,,51445,0.0,practice_mask,26,poldrack-single-stim,
27,400.0,450.0,350.0,400.0,500.0,"<div class = starbox><img class = center src=""/static/experiments/stop_signal_with_shape_matching/images/stopSignal.png""></img></div>",go,,2000.0,,90.0,1.0,0.0,9.0,9,stop_signal_with_shape_matching,,,,,,0.0-0.0-27.0,90.0,"[77, 90]",9.0,,682,DDS,1000.0,"<div class = bigbox><div class = leftbox><img class = center src=""/static/experiments/stop_signal_with_shape_matching/images/2_green.png""></img></div><div class = distractorbox><img class = center src=""/static/experiments/stop_signal_with_shape_matching/images/9_red.png""></img></div><div class = rightbox><img class = center src=""/static/experiments/stop_signal_with_shape_matching/images/9_white.png""></img></div></div>",,go,2.0,,53453,0.0,practice_trial,27,stop-signal,
28,,,,,,,,,500.0,,,,,,,stop_signal_with_shape_matching,,,,,,0.0-0.0-28.0,-1.0,none,,,-1,,500.0,"<div class = fb_box><div class = center-text><font size = 20>Correct!</font></div></div><div class = prompt_box><p class = center-block-text style = ""font-size:16px; line-height:80%;"">Respond if the green and white shapes are the same or different!</p><p class = center-block-text style = ""font-size:16px; line-height:80%;"">Same: M Key</p><p class = center-block-text style = ""font-size:16px; line-height:80%;"">Different: Z Key</p><p class = center-block-text style = ""font-size:16px; line-height:80%;"">Do not respond if you see a star around the white shape</p><p class = center-block-text style = ""font-size:16px; line-height:80%;"">Do not slow down your responses to the shape to wait for the star.</p></div>",,,,,53961,0.0,practice-stop-feedback,28,poldrack-single-stim,
29,,,,,,,,,500.0,,,,,,,stop_signal_with_shape_matching,,,,,,0.0-0.0-29.0,-1.0,none,,,-1,,500.0,"<div class = bigbox><div class = leftbox><img class = center src=""/static/experiments/stop_signal_with_shape_matching/images/mask.png""></img><div class = centerbox><div class = fixation>+</div></div></div><div class = rightbox><img class = center src=""/static/experiments/stop_signal_with_shape_matching/images/mask.png""></img><div class = centerbox><div class = fixation>+</div></div></div></div>",,,,,54471,0.0,practice_mask,29,poldrack-single-stim,
30,400.0,450.0,350.0,350.0,500.0,"<div class = starbox><img class = center src=""/static/experiments/stop_signal_with_shape_matching/images/stopSignal.png""></img></div>",stop,,2000.0,,-1.0,1.0,0.0,10.0,1,stop_signal_with_shape_matching,,,,,,0.0-0.0-30.0,-1.0,"[77, 90]",1.0,,-1,SSS,1000.0,"<div class = bigbox><div class = leftbox><img class = center src=""/static/experiments/stop_signal_with_shape_matching/images/1_green.png""></img></div><div class = distractorbox><img class = center src=""/static/experiments/stop_signal_with_shape_matching/images/1_red.png""></img></div><div class = rightbox><img class = center src=""/static/experiments/stop_signal_with_shape_matching/images/1_white.png""></img></div></div>",1.0,stop,1.0,,56478,0.0,practice_trial,30,stop-signal,
31,,,,,,,,,500.0,,,,,,,stop_signal_with_shape_matching,,,,,,0.0-0.0-31.0,-1.0,none,,,-1,,500.0,"<div class = fb_box><div class = center-text><font size = 20>Correct!</font></div></div><div class = prompt_box><p class = center-block-text style = ""font-size:16px; line-height:80%;"">Respond if the green and white shapes are the same or different!</p><p class = center-block-text style = ""font-size:16px; line-height:80%;"">Same: M Key</p><p class = center-block-text style = ""font-size:16px; line-height:80%;"">Different: Z Key</p><p class = center-block-text style = ""font-size:16px; line-height:80%;"">Do not respond if you see a star around the white shape</p><p class = center-block-text style = ""font-size:16px; line-height:80%;"">Do not slow down your responses to the shape to wait for the star.</p></div>",,,,,56983,0.0,practice-stop-feedback,31,poldrack-single-stim,
32,,,,,,,,,500.0,,,,,,,stop_signal_with_shape_matching,,,,,,0.0-0.0-32.0,-1.0,none,,,-1,,500.0,"<div class = bigbox><div class = leftbox><img class = center src=""/static/experiments/stop_signal_with_shape_matching/images/mask.png""></img><div class = centerbox><div class = fixation>+</div></div></div><div class = rightbox><img class = center src=""/static/experiments/stop_signal_with_shape_matching/images/mask.png""></img><div class = centerbox><div class = fixation>+</div></div></div></div>",,,,,57490,0.0,practice_mask,32,poldrack-single-stim,
33,400.0,450.0,400.0,400.0,500.0,"<div class = starbox><img class = center src=""/static/experiments/stop_signal_with_shape_matching/images/stopSignal.png""></img></div>",go,,2000.0,,77.0,1.0,0.0,11.0,1,stop_signal_with_shape_matching,,,,,,0.0-0.0-33.0,77.0,"[77, 90]",1.0,,640,SSS,1000.0,"<div class = bigbox><div class = leftbox><img class = center src=""/static/experiments/stop_signal_with_shape_matching/images/1_green.png""></img></div><div class = distractorbox><img class = center src=""/static/experiments/stop_signal_with_shape_matching/images/1_red.png""></img></div><div class = rightbox><img class = center src=""/static/experiments/stop_signal_with_shape_matching/images/1_white.png""></img></div></div>",,go,1.0,,59497,0.0,practice_trial,33,stop-signal,
34,,,,,,,,,500.0,,,,,,,stop_signal_with_shape_matching,,,,,,0.0-0.0-34.0,-1.0,none,,,-1,,500.0,"<div class = fb_box><div class = center-text><font size = 20>Correct!</font></div></div><div class = prompt_box><p class = center-block-text style = ""font-size:16px; line-height:80%;"">Respond if the green and white shapes are the same or different!</p><p class = center-block-text style = ""font-size:16px; line-height:80%;"">Same: M Key</p><p class = center-block-text style = ""font-size:16px; line-height:80%;"">Different: Z Key</p><p class = center-block-text style = ""font-size:16px; line-height:80%;"">Do not respond if you see a star around the white shape</p><p class = center-block-text style = ""font-size:16px; line-height:80%;"">Do not slow down your responses to the shape to wait for the star.</p></div>",,,,,60004,0.0,practice-stop-feedback,34,poldrack-single-stim,
35,,,,,,,,,500.0,,,,,,,stop_signal_with_shape_matching,,,,,,0.0-0.0-35.0,-1.0,none,,,-1,,500.0,"<div class = bigbox><div class = leftbox><img class = center src=""/static/experiments/stop_signal_with_shape_matching/images/mask.png""></img><div class = centerbox><div class = fixation>+</div></div></div><div class = rightbox><img class = center src=""/static/experiments/stop_signal_with_shape_matching/images/mask.png""></img><div class = centerbox><div class = fixation>+</div></div></div></div>",,,,,60512,0.0,practice_mask,35,poldrack-single-stim,
36,400.0,450.0,400.0,400.0,500.0,"<div class = starbox><img class = center src=""/static/experiments/stop_signal_with_shape_matching/images/stopSignal.png""></img></div>",go,,2000.0,,90.0,1.0,0.0,12.0,6,stop_signal_with_shape_matching,,,,,,0.0-0.0-36.0,90.0,"[77, 90]",4.0,,701,DDD,1000.0,"<div class = bigbox><div class = leftbox><img class = center src=""/static/experiments/stop_signal_with_shape_matching/images/3_green.png""></img></div><div class = distractorbox><img class = center src=""/static/experiments/stop_signal_with_shape_matching/images/6_red.png""></img></div><div class = rightbox><img class = center src=""/static/experiments/stop_signal_with_shape_matching/images/4_white.png""></img></div></div>",,go,3.0,,62520,0.0,practice_trial,36,stop-signal,
37,,,,,,,,,500.0,,,,,,,stop_signal_with_shape_matching,,,,,,0.0-0.0-37.0,-1.0,none,,,-1,,500.0,"<div class = fb_box><div class = center-text><font size = 20>Correct!</font></div></div><div class = prompt_box><p class = center-block-text style = ""font-size:16px; line-height:80%;"">Respond if the green and white shapes are the same or different!</p><p class = center-block-text style = ""font-size:16px; line-height:80%;"">Same: M Key</p><p class = center-block-text style = ""font-size:16px; line-height:80%;"">Different: Z Key</p><p class = center-block-text style = ""font-size:16px; line-height:80%;"">Do not respond if you see a star around the white shape</p><p class = center-block-text style = ""font-size:16px; line-height:80%;"">Do not slow down your responses to the shape to wait for the star.</p></div>",,,,,63026,0.0,practice-stop-feedback,37,poldrack-single-stim,
38,,,,,,,,,500.0,,,,,,,stop_signal_with_shape_matching,,,,,,0.0-0.0-38.0,-1.0,none,,,-1,,500.0,"<div class = bigbox><div class = leftbox><img class = center src=""/static/experiments/stop_signal_with_shape_matching/images/mask.png""></img><div class = centerbox><div class = fixation>+</div></div></div><div class = rightbox><img class = center src=""/static/experiments/stop_signal_with_shape_matching/images/mask.png""></img><div class = centerbox><div class = fixation>+</div></div></div></div>",,,,,63532,0.0,practice_mask,38,poldrack-single-stim,
39,400.0,450.0,400.0,400.0,500.0,"<div class = starbox><img class = center src=""/static/experiments/stop_signal_with_shape_matching/images/stopSignal.png""></img></div>",go,,2000.0,,77.0,1.0,0.0,13.0,1,stop_signal_with_shape_matching,,,,,,0.0-0.0-39.0,77.0,"[77, 90]",4.0,,663,SDD,1000.0,"<div class = bigbox><div class = leftbox><img class = center src=""/static/experiments/stop_signal_with_shape_matching/images/4_green.png""></img></div><div class = distractorbox><img class = center src=""/static/experiments/stop_signal_with_shape_matching/images/1_red.png""></img></div><div class = rightbox><img class = center src=""/static/experiments/stop_signal_with_shape_matching/images/4_white.png""></img></div></div>",,go,4.0,,65539,0.0,practice_trial,39,stop-signal,
40,,,,,,,,,500.0,,,,,,,stop_signal_with_shape_matching,,,,,,0.0-0.0-40.0,-1.0,none,,,-1,,500.0,"<div class = fb_box><div class = center-text><font size = 20>Correct!</font></div></div><div class = prompt_box><p class = center-block-text style = ""font-size:16px; line-height:80%;"">Respond if the green and white shapes are the same or different!</p><p class = center-block-text style = ""font-size:16px; line-height:80%;"">Same: M Key</p><p class = center-block-text style = ""font-size:16px; line-height:80%;"">Different: Z Key</p><p class = center-block-text style = ""font-size:16px; line-height:80%;"">Do not respond if you see a star around the white shape</p><p class = center-block-text style = ""font-size:16px; line-height:80%;"">Do not slow down your responses to the shape to wait for the star.</p></div>",,,,,66045,0.0,practice-stop-feedback,40,poldrack-single-stim,
41,,,,,,,,,500.0,,,,,,,stop_signal_with_shape_matching,,,,,,0.0-0.0-41.0,-1.0,none,,,-1,,500.0,"<div class = bigbox><div class = leftbox><img class = center src=""/static/experiments/stop_signal_with_shape_matching/images/mask.png""></img><div class = centerbox><div class = fixation>+</div></div></div><div class = rightbox><img class = center src=""/static/experiments/stop_signal_with_shape_matching/images/mask.png""></img><div class = centerbox><div class = fixation>+</div></div></div></div>",,,,,66552,0.0,practice_mask,41,poldrack-single-stim,
42,400.0,450.0,400.0,400.0,500.0,"<div class = starbox><img class = center src=""/static/experiments/stop_signal_with_shape_matching/images/stopSignal.png""></img></div>",stop,,2000.0,,-1.0,1.0,0.0,14.0,7,stop_signal_with_shape_matching,,,,,,0.0-0.0-42.0,-1.0,"[77, 90]",1.0,,-1,DSD,1000.0,"<div class = bigbox><div class = leftbox><img class = center src=""/static/experiments/stop_signal_with_shape_matching/images/7_green.png""></img></div><div class = distractorbox><img class = center src=""/static/experiments/stop_signal_with_shape_matching/images/7_red.png""></img></div><div class = rightbox><img class = center src=""/static/experiments/stop_signal_with_shape_matching/images/1_white.png""></img></div></div>",1.0,stop,7.0,,68561,0.0,practice_trial,42,stop-signal,
43,,,,,,,,,500.0,,,,,,,stop_signal_with_shape_matching,,,,,,0.0-0.0-43.0,-1.0,none,,,-1,,500.0,"<div class = fb_box><div class = center-text><font size = 20>Correct!</font></div></div><div class = prompt_box><p class = center-block-text style = ""font-size:16px; line-height:80%;"">Respond if the green and white shapes are the same or different!</p><p class = center-block-text style = ""font-size:16px; line-height:80%;"">Same: M Key</p><p class = center-block-text style = ""font-size:16px; line-height:80%;"">Different: Z Key</p><p class = center-block-text style = ""font-size:16px; line-height:80%;"">Do not respond if you see a star around the white shape</p><p class = center-block-text style = ""font-size:16px; line-height:80%;"">Do not slow down your responses to the shape to wait for the star.</p></div>",,,,,69067,0.0,practice-stop-feedback,43,poldrack-single-stim,
44,,,,,,,,,500.0,,,,,,,stop_signal_with_shape_matching,,,,,,0.0-0.0-44.0,-1.0,none,,,-1,,500.0,"<div class = bigbox><div class = leftbox><img class = center src=""/static/experiments/stop_signal_with_shape_matching/images/mask.png""></img><div class = centerbox><div class = fixation>+</div></div></div><div class = rightbox><img class = center src=""/static/experiments/stop_signal_with_shape_matching/images/mask.png""></img><div class = centerbox><div class = fixation>+</div></div></div></div>",,,,,69575,0.0,practice_mask,44,poldrack-single-stim,
45,400.0,450.0,450.0,450.0,500.0,"<div class = starbox><img class = center src=""/static/experiments/stop_signal_with_shape_matching/images/stopSignal.png""></img></div>",go,,2000.0,,90.0,1.0,0.0,15.0,10,stop_signal_with_shape_matching,,,,,,0.0-0.0-45.0,90.0,"[77, 90]",9.0,,662,DSD,1000.0,"<div class = bigbox><div class = leftbox><img class = center src=""/static/experiments/stop_signal_with_shape_matching/images/10_green.png""></img></div><div class = distractorbox><img class = center src=""/static/experiments/stop_signal_with_shape_matching/images/10_red.png""></img></div><div class = rightbox><img class = center src=""/static/experiments/stop_signal_with_shape_matching/images/9_white.png""></img></div></div>",,go,10.0,,71597,0.0,practice_trial,45,stop-signal,
46,,,,,,,,,500.0,,,,,,,stop_signal_with_shape_matching,,,,,,0.0-0.0-46.0,-1.0,none,,,-1,,500.0,"<div class = fb_box><div class = center-text><font size = 20>Correct!</font></div></div><div class = prompt_box><p class = center-block-text style = ""font-size:16px; line-height:80%;"">Respond if the green and white shapes are the same or different!</p><p class = center-block-text style = ""font-size:16px; line-height:80%;"">Same: M Key</p><p class = center-block-text style = ""font-size:16px; line-height:80%;"">Different: Z Key</p><p class = center-block-text style = ""font-size:16px; line-height:80%;"">Do not respond if you see a star around the white shape</p><p class = center-block-text style = ""font-size:16px; line-height:80%;"">Do not slow down your responses to the shape to wait for the star.</p></div>",,,,,72103,0.0,practice-stop-feedback,46,poldrack-single-stim,
47,,,,,,,,,500.0,,,,,,,stop_signal_with_shape_matching,,,,,,0.0-0.0-47.0,-1.0,none,,,-1,,500.0,"<div class = bigbox><div class = leftbox><img class = center src=""/static/experiments/stop_signal_with_shape_matching/images/mask.png""></img><div class = centerbox><div class = fixation>+</div></div></div><div class = rightbox><img class = center src=""/static/experiments/stop_signal_with_shape_matching/images/mask.png""></img><div class = centerbox><div class = fixation>+</div></div></div></div>",,,,,72612,0.0,practice_mask,47,poldrack-single-stim,
48,400.0,450.0,450.0,450.0,500.0,"<div class = starbox><img class = center src=""/static/experiments/stop_signal_with_shape_matching/images/stopSignal.png""></img></div>",go,,2000.0,,90.0,1.0,0.0,16.0,none,stop_signal_with_shape_matching,,,,,,0.0-0.0-48.0,90.0,"[77, 90]",7.0,,627,DNN,1000.0,"<div class = bigbox><div class = leftbox><img class = center src=""/static/experiments/stop_signal_with_shape_matching/images/1_green.png""></img></div><div class = distractorbox></div><div class = rightbox><img class = center src=""/static/experiments/stop_signal_with_shape_matching/images/7_white.png""></img></div></div>",,go,1.0,,74619,0.0,practice_trial,48,stop-signal,
49,,,,,,,,,500.0,,,,,,,stop_signal_with_shape_matching,,,,,,0.0-0.0-49.0,-1.0,none,,,-1,,500.0,"<div class = fb_box><div class = center-text><font size = 20>Correct!</font></div></div><div class = prompt_box><p class = center-block-text style = ""font-size:16px; line-height:80%;"">Respond if the green and white shapes are the same or different!</p><p class = center-block-text style = ""font-size:16px; line-height:80%;"">Same: M Key</p><p class = center-block-text style = ""font-size:16px; line-height:80%;"">Different: Z Key</p><p class = center-block-text style = ""font-size:16px; line-height:80%;"">Do not respond if you see a star around the white shape</p><p class = center-block-text style = ""font-size:16px; line-height:80%;"">Do not slow down your responses to the shape to wait for the star.</p></div>",,,,,75124,0.0,practice-stop-feedback,49,poldrack-single-stim,
50,,,,,,,,,500.0,,,,,,,stop_signal_with_shape_matching,,,,,,0.0-0.0-50.0,-1.0,none,,,-1,,500.0,"<div class = bigbox><div class = leftbox><img class = center src=""/static/experiments/stop_signal_with_shape_matching/images/mask.png""></img><div class = centerbox><div class = fixation>+</div></div></div><div class = rightbox><img class = center src=""/static/experiments/stop_signal_with_shape_matching/images/mask.png""></img><div class = centerbox><div class = fixation>+</div></div></div></div>",,,,,75630,0.0,practice_mask,50,poldrack-single-stim,
51,400.0,450.0,450.0,400.0,500.0,"<div class = starbox><img class = center src=""/static/experiments/stop_signal_with_shape_matching/images/stopSignal.png""></img></div>",go,,2000.0,,90.0,1.0,0.0,17.0,1,stop_signal_with_shape_matching,,,,,,0.0-0.0-51.0,90.0,"[77, 90]",1.0,,565,DDS,1000.0,"<div class = bigbox><div class = leftbox><img class = center src=""/static/experiments/stop_signal_with_shape_matching/images/10_green.png""></img></div><div class = distractorbox><img class = center src=""/static/experiments/stop_signal_with_shape_matching/images/1_red.png""></img></div><div class = rightbox><img class = center src=""/static/experiments/stop_signal_with_shape_matching/images/1_white.png""></img></div></div>",,go,10.0,,77638,0.0,practice_trial,51,stop-signal,
52,,,,,,,,,500.0,,,,,,,stop_signal_with_shape_matching,,,,,,0.0-0.0-52.0,-1.0,none,,,-1,,500.0,"<div class = fb_box><div class = center-text><font size = 20>Correct!</font></div></div><div class = prompt_box><p class = center-block-text style = ""font-size:16px; line-height:80%;"">Respond if the green and white shapes are the same or different!</p><p class = center-block-text style = ""font-size:16px; line-height:80%;"">Same: M Key</p><p class = center-block-text style = ""font-size:16px; line-height:80%;"">Different: Z Key</p><p class = center-block-text style = ""font-size:16px; line-height:80%;"">Do not respond if you see a star around the white shape</p><p class = center-block-text style = ""font-size:16px; line-height:80%;"">Do not slow down your responses to the shape to wait for the star.</p></div>",,,,,78144,0.0,practice-stop-feedback,52,poldrack-single-stim,
53,,,,,,,,,500.0,,,,,,,stop_signal_with_shape_matching,,,,,,0.0-0.0-53.0,-1.0,none,,,-1,,500.0,"<div class = bigbox><div class = leftbox><img class = center src=""/static/experiments/stop_signal_with_shape_matching/images/mask.png""></img><div class = centerbox><div class = fixation>+</div></div></div><div class = rightbox><img class = center src=""/static/experiments/stop_signal_with_shape_matching/images/mask.png""></img><div class = centerbox><div class = fixation>+</div></div></div></div>",,,,,78651,0.0,practice_mask,53,poldrack-single-stim,
54,400.0,450.0,450.0,450.0,500.0,"<div class = starbox><img class = center src=""/static/experiments/stop_signal_with_shape_matching/images/stopSignal.png""></img></div>",go,,2000.0,,77.0,1.0,0.0,18.0,none,stop_signal_with_shape_matching,,,,,,0.0-0.0-54.0,77.0,"[77, 90]",8.0,,641,SNN,1000.0,"<div class = bigbox><div class = leftbox><img class = center src=""/static/experiments/stop_signal_with_shape_matching/images/8_green.png""></img></div><div class = distractorbox></div><div class = rightbox><img class = center src=""/static/experiments/stop_signal_with_shape_matching/images/8_white.png""></img></div></div>",,go,8.0,,80657,0.0,practice_trial,54,stop-signal,
55,,,,,,,,,500.0,,,,,,,stop_signal_with_shape_matching,,,,,,0.0-0.0-55.0,-1.0,none,,,-1,,500.0,"<div class = fb_box><div class = center-text><font size = 20>Correct!</font></div></div><div class = prompt_box><p class = center-block-text style = ""font-size:16px; line-height:80%;"">Respond if the green and white shapes are the same or different!</p><p class = center-block-text style = ""font-size:16px; line-height:80%;"">Same: M Key</p><p class = center-block-text style = ""font-size:16px; line-height:80%;"">Different: Z Key</p><p class = center-block-text style = ""font-size:16px; line-height:80%;"">Do not respond if you see a star around the white shape</p><p class = center-block-text style = ""font-size:16px; line-height:80%;"">Do not slow down your responses to the shape to wait for the star.</p></div>",,,,,81163,0.0,practice-stop-feedback,55,poldrack-single-stim,
56,,,,,,,,,500.0,,,,,,,stop_signal_with_shape_matching,,,,,,0.0-0.0-56.0,-1.0,none,,,-1,,500.0,"<div class = bigbox><div class = leftbox><img class = center src=""/static/experiments/stop_signal_with_shape_matching/images/mask.png""></img><div class = centerbox><div class = fixation>+</div></div></div><div class = rightbox><img class = center src=""/static/experiments/stop_signal_with_shape_matching/images/mask.png""></img><div class = centerbox><div class = fixation>+</div></div></div></div>",,,,,81670,0.0,practice_mask,56,poldrack-single-stim,
57,400.0,450.0,450.0,400.0,500.0,"<div class = starbox><img class = center src=""/static/experiments/stop_signal_with_shape_matching/images/stopSignal.png""></img></div>",stop,,2000.0,,-1.0,1.0,0.0,19.0,8,stop_signal_with_shape_matching,,,,,,0.0-0.0-57.0,-1.0,"[77, 90]",8.0,,-1,DDS,1000.0,"<div class = bigbox><div class = leftbox><img class = center src=""/static/experiments/stop_signal_with_shape_matching/images/9_green.png""></img></div><div class = distractorbox><img class = center src=""/static/experiments/stop_signal_with_shape_matching/images/8_red.png""></img></div><div class = rightbox><img class = center src=""/static/experiments/stop_signal_with_shape_matching/images/8_white.png""></img></div></div>",1.0,stop,9.0,,83678,0.0,practice_trial,57,stop-signal,
58,,,,,,,,,500.0,,,,,,,stop_signal_with_shape_matching,,,,,,0.0-0.0-58.0,-1.0,none,,,-1,,500.0,"<div class = fb_box><div class = center-text><font size = 20>Correct!</font></div></div><div class = prompt_box><p class = center-block-text style = ""font-size:16px; line-height:80%;"">Respond if the green and white shapes are the same or different!</p><p class = center-block-text style = ""font-size:16px; line-height:80%;"">Same: M Key</p><p class = center-block-text style = ""font-size:16px; line-height:80%;"">Different: Z Key</p><p class = center-block-text style = ""font-size:16px; line-height:80%;"">Do not respond if you see a star around the white shape</p><p class = center-block-text style = ""font-size:16px; line-height:80%;"">Do not slow down your responses to the shape to wait for the star.</p></div>",,,,,84184,0.0,practice-stop-feedback,58,poldrack-single-stim,
59,,,,,,,,,500.0,,,,,,,stop_signal_with_shape_matching,,,,,,0.0-0.0-59.0,-1.0,none,,,-1,,500.0,"<div class = bigbox><div class = leftbox><img class = center src=""/static/experiments/stop_signal_with_shape_matching/images/mask.png""></img><div class = centerbox><div class = fixation>+</div></div></div><div class = rightbox><img class = center src=""/static/experiments/stop_signal_with_shape_matching/images/mask.png""></img><div class = centerbox><div class = fixation>+</div></div></div></div>",,,,,84692,0.0,practice_mask,59,poldrack-single-stim,
60,450.0,450.0,450.0,450.0,500.0,"<div class = starbox><img class = center src=""/static/experiments/stop_signal_with_shape_matching/images/stopSignal.png""></img></div>",stop,,2000.0,,-1.0,1.0,0.0,20.0,4,stop_signal_with_shape_matching,,,,,,0.0-0.0-60.0,-1.0,"[77, 90]",9.0,,-1,DDD,1000.0,"<div class = bigbox><div class = leftbox><img class = center src=""/static/experiments/stop_signal_with_shape_matching/images/7_green.png""></img></div><div class = distractorbox><img class = center src=""/static/experiments/stop_signal_with_shape_matching/images/4_red.png""></img></div><div class = rightbox><img class = center src=""/static/experiments/stop_signal_with_shape_matching/images/9_white.png""></img></div></div>",1.0,stop,7.0,,86699,0.0,practice_trial,60,stop-signal,
61,,,,,,,,,500.0,,,,,,,stop_signal_with_shape_matching,,,,,,0.0-0.0-61.0,-1.0,none,,,-1,,500.0,"<div class = fb_box><div class = center-text><font size = 20>Correct!</font></div></div><div class = prompt_box><p class = center-block-text style = ""font-size:16px; line-height:80%;"">Respond if the green and white shapes are the same or different!</p><p class = center-block-text style = ""font-size:16px; line-height:80%;"">Same: M Key</p><p class = center-block-text style = ""font-size:16px; line-height:80%;"">Different: Z Key</p><p class = center-block-text style = ""font-size:16px; line-height:80%;"">Do not respond if you see a star around the white shape</p><p class = center-block-text style = ""font-size:16px; line-height:80%;"">Do not slow down your responses to the shape to wait for the star.</p></div>",,,,,87204,0.0,practice-stop-feedback,61,poldrack-single-stim,
62,,,,,,,,,500.0,,,,,,,stop_signal_with_shape_matching,,,,,,0.0-0.0-62.0,-1.0,none,,,-1,,500.0,"<div class = bigbox><div class = leftbox><img class = center src=""/static/experiments/stop_signal_with_shape_matching/images/mask.png""></img><div class = centerbox><div class = fixation>+</div></div></div><div class = rightbox><img class = center src=""/static/experiments/stop_signal_with_shape_matching/images/mask.png""></img><div class = centerbox><div class = fixation>+</div></div></div></div>",,,,,87711,0.0,practice_mask,62,poldrack-single-stim,
63,500.0,450.0,450.0,500.0,500.0,"<div class = starbox><img class = center src=""/static/experiments/stop_signal_with_shape_matching/images/stopSignal.png""></img></div>",go,,2000.0,,90.0,1.0,0.0,21.0,8,stop_signal_with_shape_matching,,,,,,0.0-0.0-63.0,90.0,"[77, 90]",3.0,,677,DDD,1000.0,"<div class = bigbox><div class = leftbox><img class = center src=""/static/experiments/stop_signal_with_shape_matching/images/9_green.png""></img></div><div class = distractorbox><img class = center src=""/static/experiments/stop_signal_with_shape_matching/images/8_red.png""></img></div><div class = rightbox><img class = center src=""/static/experiments/stop_signal_with_shape_matching/images/3_white.png""></img></div></div>",,go,9.0,,89719,0.0,practice_trial,63,stop-signal,
64,,,,,,,,,500.0,,,,,,,stop_signal_with_shape_matching,,,,,,0.0-0.0-64.0,-1.0,none,,,-1,,500.0,"<div class = fb_box><div class = center-text><font size = 20>Correct!</font></div></div><div class = prompt_box><p class = center-block-text style = ""font-size:16px; line-height:80%;"">Respond if the green and white shapes are the same or different!</p><p class = center-block-text style = ""font-size:16px; line-height:80%;"">Same: M Key</p><p class = center-block-text style = ""font-size:16px; line-height:80%;"">Different: Z Key</p><p class = center-block-text style = ""font-size:16px; line-height:80%;"">Do not respond if you see a star around the white shape</p><p class = center-block-text style = ""font-size:16px; line-height:80%;"">Do not slow down your responses to the shape to wait for the star.</p></div>",,,,,90226,0.0,practice-stop-feedback,64,poldrack-single-stim,
65,,,,,,,,,7747.0,,,,,,,stop_signal_with_shape_matching,,,,,,0.0-0.1-0.1,13.0,[13],,,7747,,7747.0,<div class = bigbox><div class = picture_box><p class = block-text><br>Please take this time to read your feedback and to take a short break! Press enter to continue</p><p class = block-text>You have been responding too slowly.  Please respond as quickly and accurately to each stimulus that requires a response.</p><p class = block-text>Redoing this practice. Press Enter to continue.</p></div></div>,,,,,97993,0.0,feedback_block,65,poldrack-single-stim,
66,,,,,,,,,,,,,,,,stop_signal_with_shape_matching,,,,,,0.0-0.1-1.1,,,,,4456,,,,,,,,102451,,instruction,66,poldrack-instructions,"[{""page_index"":0,""viewing_time"":2937},{""page_index"":1,""viewing_time"":490},{""page_index"":2,""viewing_time"":1028}]"
67,,,,,,,,,500.0,,,,,,,stop_signal_with_shape_matching,,,,,,0.0-0.1-2.1,-1.0,none,,,-1,,500.0,"<div class = bigbox><div class = leftbox><img class = center src=""/static/experiments/stop_signal_with_shape_matching/images/mask.png""></img><div class = centerbox><div class = fixation>+</div></div></div><div class = rightbox><img class = center src=""/static/experiments/stop_signal_with_shape_matching/images/mask.png""></img><div class = centerbox><div class = fixation>+</div></div></div></div>",,,,,103958,0.0,practice_mask,67,poldrack-single-stim,
68,500.0,450.0,450.0,500.0,500.0,"<div class = starbox><img class = center src=""/static/experiments/stop_signal_with_shape_matching/images/stopSignal.png""></img></div>",go,,2000.0,,90.0,1.0,1.0,1.0,3,stop_signal_with_shape_matching,,,,,,0.0-0.1-3.1,90.0,"[77, 90]",4.0,,505,DDD,1000.0,"<div class = bigbox><div class = leftbox><img class = center src=""/static/experiments/stop_signal_with_shape_matching/images/9_green.png""></img></div><div class = distractorbox><img class = center src=""/static/experiments/stop_signal_with_shape_matching/images/3_red.png""></img></div><div class = rightbox><img class = center src=""/static/experiments/stop_signal_with_shape_matching/images/4_white.png""></img></div></div>",,go,9.0,,105967,0.0,practice_trial,68,stop-signal,
69,,,,,,,,,500.0,,,,,,,stop_signal_with_shape_matching,,,,,,0.0-0.1-4.1,-1.0,none,,,-1,,500.0,"<div class = fb_box><div class = center-text><font size = 20>Correct!</font></div></div><div class = prompt_box><p class = center-block-text style = ""font-size:16px; line-height:80%;"">Respond if the green and white shapes are the same or different!</p><p class = center-block-text style = ""font-size:16px; line-height:80%;"">Same: M Key</p><p class = center-block-text style = ""font-size:16px; line-height:80%;"">Different: Z Key</p><p class = center-block-text style = ""font-size:16px; line-height:80%;"">Do not respond if you see a star around the white shape</p><p class = center-block-text style = ""font-size:16px; line-height:80%;"">Do not slow down your responses to the shape to wait for the star.</p></div>",,,,,106473,0.0,practice-stop-feedback,69,poldrack-single-stim,
70,,,,,,,,,500.0,,,,,,,stop_signal_with_shape_matching,,,,,,0.0-0.1-5.1,-1.0,none,,,-1,,500.0,"<div class = bigbox><div class = leftbox><img class = center src=""/static/experiments/stop_signal_with_shape_matching/images/mask.png""></img><div class = centerbox><div class = fixation>+</div></div></div><div class = rightbox><img class = center src=""/static/experiments/stop_signal_with_shape_matching/images/mask.png""></img><div class = centerbox><div class = fixation>+</div></div></div></div>",,,,,106979,0.0,practice_mask,70,poldrack-single-stim,
71,500.0,450.0,450.0,450.0,500.0,"<div class = starbox><img class = center src=""/static/experiments/stop_signal_with_shape_matching/images/stopSignal.png""></img></div>",go,,2000.0,,77.0,1.0,1.0,2.0,none,stop_signal_with_shape_matching,,,,,,0.0-0.1-6.1,77.0,"[77, 90]",10.0,,508,SNN,1000.0,"<div class = bigbox><div class = leftbox><img class = center src=""/static/experiments/stop_signal_with_shape_matching/images/10_green.png""></img></div><div class = distractorbox></div><div class = rightbox><img class = center src=""/static/experiments/stop_signal_with_shape_matching/images/10_white.png""></img></div></div>",,go,10.0,,108987,0.0,practice_trial,71,stop-signal,
72,,,,,,,,,500.0,,,,,,,stop_signal_with_shape_matching,,,,,,0.0-0.1-7.1,-1.0,none,,,-1,,500.0,"<div class = fb_box><div class = center-text><font size = 20>Correct!</font></div></div><div class = prompt_box><p class = center-block-text style = ""font-size:16px; line-height:80%;"">Respond if the green and white shapes are the same or different!</p><p class = center-block-text style = ""font-size:16px; line-height:80%;"">Same: M Key</p><p class = center-block-text style = ""font-size:16px; line-height:80%;"">Different: Z Key</p><p class = center-block-text style = ""font-size:16px; line-height:80%;"">Do not respond if you see a star around the white shape</p><p class = center-block-text style = ""font-size:16px; line-height:80%;"">Do not slow down your responses to the shape to wait for the star.</p></div>",,,,,109492,0.0,practice-stop-feedback,72,poldrack-single-stim,
73,,,,,,,,,500.0,,,,,,,stop_signal_with_shape_matching,,,,,,0.0-0.1-8.1,-1.0,none,,,-1,,500.0,"<div class = bigbox><div class = leftbox><img class = center src=""/static/experiments/stop_signal_with_shape_matching/images/mask.png""></img><div class = centerbox><div class = fixation>+</div></div></div><div class = rightbox><img class = center src=""/static/experiments/stop_signal_with_shape_matching/images/mask.png""></img><div class = centerbox><div class = fixation>+</div></div></div></div>",,,,,109999,0.0,practice_mask,73,poldrack-single-stim,
74,500.0,450.0,450.0,500.0,500.0,"<div class = starbox><img class = center src=""/static/experiments/stop_signal_with_shape_matching/images/stopSignal.png""></img></div>",go,,2000.0,,90.0,1.0,1.0,3.0,5,stop_signal_with_shape_matching,,,,,,0.0-0.1-9.1,90.0,"[77, 90]",5.0,,468,DDS,1000.0,"<div class = bigbox><div class = leftbox><img class = center src=""/static/experiments/stop_signal_with_shape_matching/images/3_green.png""></img></div><div class = distractorbox><img class = center src=""/static/experiments/stop_signal_with_shape_matching/images/5_red.png""></img></div><div class = rightbox><img class = center src=""/static/experiments/stop_signal_with_shape_matching/images/5_white.png""></img></div></div>",,go,3.0,,112007,0.0,practice_trial,74,stop-signal,
75,,,,,,,,,500.0,,,,,,,stop_signal_with_shape_matching,,,,,,0.0-0.1-10.1,-1.0,none,,,-1,,500.0,"<div class = fb_box><div class = center-text><font size = 20>Correct!</font></div></div><div class = prompt_box><p class = center-block-text style = ""font-size:16px; line-height:80%;"">Respond if the green and white shapes are the same or different!</p><p class = center-block-text style = ""font-size:16px; line-height:80%;"">Same: M Key</p><p class = center-block-text style = ""font-size:16px; line-height:80%;"">Different: Z Key</p><p class = center-block-text style = ""font-size:16px; line-height:80%;"">Do not respond if you see a star around the white shape</p><p class = center-block-text style = ""font-size:16px; line-height:80%;"">Do not slow down your responses to the shape to wait for the star.</p></div>",,,,,112512,0.0,practice-stop-feedback,75,poldrack-single-stim,
76,,,,,,,,,500.0,,,,,,,stop_signal_with_shape_matching,,,,,,0.0-0.1-11.1,-1.0,none,,,-1,,500.0,"<div class = bigbox><div class = leftbox><img class = center src=""/static/experiments/stop_signal_with_shape_matching/images/mask.png""></img><div class = centerbox><div class = fixation>+</div></div></div><div class = rightbox><img class = center src=""/static/experiments/stop_signal_with_shape_matching/images/mask.png""></img><div class = centerbox><div class = fixation>+</div></div></div></div>",,,,,113019,0.0,practice_mask,76,poldrack-single-stim,
77,500.0,450.0,450.0,450.0,500.0,"<div class = starbox><img class = center src=""/static/experiments/stop_signal_with_shape_matching/images/stopSignal.png""></img></div>",go,,2000.0,,77.0,1.0,1.0,4.0,8,stop_signal_with_shape_matching,,,,,,0.0-0.1-12.1,77.0,"[77, 90]",8.0,,422,SSS,1000.0,"<div class = bigbox><div class = leftbox><img class = center src=""/static/experiments/stop_signal_with_shape_matching/images/8_green.png""></img></div><div class = distractorbox><img class = center src=""/static/experiments/stop_signal_with_shape_matching/images/8_red.png""></img></div><div class = rightbox><img class = center src=""/static/experiments/stop_signal_with_shape_matching/images/8_white.png""></img></div></div>",,go,8.0,,115027,0.0,practice_trial,77,stop-signal,
78,,,,,,,,,500.0,,,,,,,stop_signal_with_shape_matching,,,,,,0.0-0.1-13.1,-1.0,none,,,-1,,500.0,"<div class = fb_box><div class = center-text><font size = 20>Correct!</font></div></div><div class = prompt_box><p class = center-block-text style = ""font-size:16px; line-height:80%;"">Respond if the green and white shapes are the same or different!</p><p class = center-block-text style = ""font-size:16px; line-height:80%;"">Same: M Key</p><p class = center-block-text style = ""font-size:16px; line-height:80%;"">Different: Z Key</p><p class = center-block-text style = ""font-size:16px; line-height:80%;"">Do not respond if you see a star around the white shape</p><p class = center-block-text style = ""font-size:16px; line-height:80%;"">Do not slow down your responses to the shape to wait for the star.</p></div>",,,,,115533,0.0,practice-stop-feedback,78,poldrack-single-stim,
79,,,,,,,,,500.0,,,,,,,stop_signal_with_shape_matching,,,,,,0.0-0.1-14.1,-1.0,none,,,-1,,500.0,"<div class = bigbox><div class = leftbox><img class = center src=""/static/experiments/stop_signal_with_shape_matching/images/mask.png""></img><div class = centerbox><div class = fixation>+</div></div></div><div class = rightbox><img class = center src=""/static/experiments/stop_signal_with_shape_matching/images/mask.png""></img><div class = centerbox><div class = fixation>+</div></div></div></div>",,,,,116041,0.0,practice_mask,79,poldrack-single-stim,
80,500.0,450.0,450.0,450.0,500.0,"<div class = starbox><img class = center src=""/static/experiments/stop_signal_with_shape_matching/images/stopSignal.png""></img></div>",go,,2000.0,,90.0,1.0,1.0,5.0,7,stop_signal_with_shape_matching,,,,,,0.0-0.1-15.1,90.0,"[77, 90]",5.0,,513,DSD,1000.0,"<div class = bigbox><div class = leftbox><img class = center src=""/static/experiments/stop_signal_with_shape_matching/images/7_green.png""></img></div><div class = distractorbox><img class = center src=""/static/experiments/stop_signal_with_shape_matching/images/7_red.png""></img></div><div class = rightbox><img class = center src=""/static/experiments/stop_signal_with_shape_matching/images/5_white.png""></img></div></div>",,go,7.0,,118049,0.0,practice_trial,80,stop-signal,
81,,,,,,,,,500.0,,,,,,,stop_signal_with_shape_matching,,,,,,0.0-0.1-16.1,-1.0,none,,,-1,,500.0,"<div class = fb_box><div class = center-text><font size = 20>Correct!</font></div></div><div class = prompt_box><p class = center-block-text style = ""font-size:16px; line-height:80%;"">Respond if the green and white shapes are the same or different!</p><p class = center-block-text style = ""font-size:16px; line-height:80%;"">Same: M Key</p><p class = center-block-text style = ""font-size:16px; line-height:80%;"">Different: Z Key</p><p class = center-block-text style = ""font-size:16px; line-height:80%;"">Do not respond if you see a star around the white shape</p><p class = center-block-text style = ""font-size:16px; line-height:80%;"">Do not slow down your responses to the shape to wait for the star.</p></div>",,,,,118557,0.0,practice-stop-feedback,81,poldrack-single-stim,
82,,,,,,,,,500.0,,,,,,,stop_signal_with_shape_matching,,,,,,0.0-0.1-17.1,-1.0,none,,,-1,,500.0,"<div class = bigbox><div class = leftbox><img class = center src=""/static/experiments/stop_signal_with_shape_matching/images/mask.png""></img><div class = centerbox><div class = fixation>+</div></div></div><div class = rightbox><img class = center src=""/static/experiments/stop_signal_with_shape_matching/images/mask.png""></img><div class = centerbox><div class = fixation>+</div></div></div></div>",,,,,119074,0.0,practice_mask,82,poldrack-single-stim,
83,500.0,450.0,450.0,450.0,500.0,"<div class = starbox><img class = center src=""/static/experiments/stop_signal_with_shape_matching/images/stopSignal.png""></img></div>",stop,,2000.0,,-1.0,0.0,1.0,6.0,6,stop_signal_with_shape_matching,,,,,,0.0-0.1-18.1,77.0,"[77, 90]",6.0,,488,SSS,1000.0,"<div class = bigbox><div class = leftbox><img class = center src=""/static/experiments/stop_signal_with_shape_matching/images/6_green.png""></img></div><div class = distractorbox><img class = center src=""/static/experiments/stop_signal_with_shape_matching/images/6_red.png""></img></div><div class = rightbox><img class = center src=""/static/experiments/stop_signal_with_shape_matching/images/6_white.png""></img></div></div>",0.0,stop,6.0,,121090,0.0,practice_trial,83,stop-signal,
84,,,,,,,,,500.0,,,,,,,stop_signal_with_shape_matching,,,,,,0.0-0.1-19.1,-1.0,none,,,-1,,500.0,"<div class = fb_box><div class = center-text><font size = 20>There was a star.</font></div></div><div class = prompt_box><p class = center-block-text style = ""font-size:16px; line-height:80%;"">Respond if the green and white shapes are the same or different!</p><p class = center-block-text style = ""font-size:16px; line-height:80%;"">Same: M Key</p><p class = center-block-text style = ""font-size:16px; line-height:80%;"">Different: Z Key</p><p class = center-block-text style = ""font-size:16px; line-height:80%;"">Do not respond if you see a star around the white shape</p><p class = center-block-text style = ""font-size:16px; line-height:80%;"">Do not slow down your responses to the shape to wait for the star.</p></div>",,,,,121597,0.0,practice-stop-feedback,84,poldrack-single-stim,
85,,,,,,,,,500.0,,,,,,,stop_signal_with_shape_matching,,,,,,0.0-0.1-20.1,-1.0,none,,,-1,,500.0,"<div class = bigbox><div class = leftbox><img class = center src=""/static/experiments/stop_signal_with_shape_matching/images/mask.png""></img><div class = centerbox><div class = fixation>+</div></div></div><div class = rightbox><img class = center src=""/static/experiments/stop_signal_with_shape_matching/images/mask.png""></img><div class = centerbox><div class = fixation>+</div></div></div></div>",,,,,122103,0.0,practice_mask,85,poldrack-single-stim,
86,500.0,450.0,400.0,450.0,500.0,"<div class = starbox><img class = center src=""/static/experiments/stop_signal_with_shape_matching/images/stopSignal.png""></img></div>",go,,2000.0,,90.0,1.0,1.0,7.0,none,stop_signal_with_shape_matching,,,,,,0.0-0.1-21.1,90.0,"[77, 90]",7.0,,555,DNN,1000.0,"<div class = bigbox><div class = leftbox><img class = center src=""/static/experiments/stop_signal_with_shape_matching/images/9_green.png""></img></div><div class = distractorbox></div><div class = rightbox><img class = center src=""/static/experiments/stop_signal_with_shape_matching/images/7_white.png""></img></div></div>",,go,9.0,,124111,0.0,practice_trial,86,stop-signal,
87,,,,,,,,,500.0,,,,,,,stop_signal_with_shape_matching,,,,,,0.0-0.1-22.1,-1.0,none,,,-1,,500.0,"<div class = fb_box><div class = center-text><font size = 20>Correct!</font></div></div><div class = prompt_box><p class = center-block-text style = ""font-size:16px; line-height:80%;"">Respond if the green and white shapes are the same or different!</p><p class = center-block-text style = ""font-size:16px; line-height:80%;"">Same: M Key</p><p class = center-block-text style = ""font-size:16px; line-height:80%;"">Different: Z Key</p><p class = center-block-text style = ""font-size:16px; line-height:80%;"">Do not respond if you see a star around the white shape</p><p class = center-block-text style = ""font-size:16px; line-height:80%;"">Do not slow down your responses to the shape to wait for the star.</p></div>",,,,,124619,0.0,practice-stop-feedback,87,poldrack-single-stim,
88,,,,,,,,,500.0,,,,,,,stop_signal_with_shape_matching,,,,,,0.0-0.1-23.1,-1.0,none,,,-1,,500.0,"<div class = bigbox><div class = leftbox><img class = center src=""/static/experiments/stop_signal_with_shape_matching/images/mask.png""></img><div class = centerbox><div class = fixation>+</div></div></div><div class = rightbox><img class = center src=""/static/experiments/stop_signal_with_shape_matching/images/mask.png""></img><div class = centerbox><div class = fixation>+</div></div></div></div>",,,,,125126,0.0,practice_mask,88,poldrack-single-stim,
89,500.0,450.0,400.0,500.0,500.0,"<div class = starbox><img class = center src=""/static/experiments/stop_signal_with_shape_matching/images/stopSignal.png""></img></div>",go,,2000.0,,77.0,1.0,1.0,8.0,9,stop_signal_with_shape_matching,,,,,,0.0-0.1-24.1,77.0,"[77, 90]",6.0,,429,SDD,1000.0,"<div class = bigbox><div class = leftbox><img class = center src=""/static/experiments/stop_signal_with_shape_matching/images/6_green.png""></img></div><div class = distractorbox><img class = center src=""/static/experiments/stop_signal_with_shape_matching/images/9_red.png""></img></div><div class = rightbox><img class = center src=""/static/experiments/stop_signal_with_shape_matching/images/6_white.png""></img></div></div>",,go,6.0,,127135,0.0,practice_trial,89,stop-signal,
90,,,,,,,,,500.0,,,,,,,stop_signal_with_shape_matching,,,,,,0.0-0.1-25.1,-1.0,none,,,-1,,500.0,"<div class = fb_box><div class = center-text><font size = 20>Correct!</font></div></div><div class = prompt_box><p class = center-block-text style = ""font-size:16px; line-height:80%;"">Respond if the green and white shapes are the same or different!</p><p class = center-block-text style = ""font-size:16px; line-height:80%;"">Same: M Key</p><p class = center-block-text style = ""font-size:16px; line-height:80%;"">Different: Z Key</p><p class = center-block-text style = ""font-size:16px; line-height:80%;"">Do not respond if you see a star around the white shape</p><p class = center-block-text style = ""font-size:16px; line-height:80%;"">Do not slow down your responses to the shape to wait for the star.</p></div>",,,,,127643,0.0,practice-stop-feedback,90,poldrack-single-stim,
91,,,,,,,,,500.0,,,,,,,stop_signal_with_shape_matching,,,,,,0.0-0.1-26.1,-1.0,none,,,-1,,500.0,"<div class = bigbox><div class = leftbox><img class = center src=""/static/experiments/stop_signal_with_shape_matching/images/mask.png""></img><div class = centerbox><div class = fixation>+</div></div></div><div class = rightbox><img class = center src=""/static/experiments/stop_signal_with_shape_matching/images/mask.png""></img><div class = centerbox><div class = fixation>+</div></div></div></div>",,,,,128152,0.0,practice_mask,91,poldrack-single-stim,
92,500.0,450.0,400.0,500.0,500.0,"<div class = starbox><img class = center src=""/static/experiments/stop_signal_with_shape_matching/images/stopSignal.png""></img></div>",stop,,2000.0,,-1.0,0.0,1.0,9.0,2,stop_signal_with_shape_matching,,,,,,0.0-0.1-27.1,77.0,"[77, 90]",6.0,,436,SDD,1000.0,"<div class = bigbox><div class = leftbox><img class = center src=""/static/experiments/stop_signal_with_shape_matching/images/6_green.png""></img></div><div class = distractorbox><img class = center src=""/static/experiments/stop_signal_with_shape_matching/images/2_red.png""></img></div><div class = rightbox><img class = center src=""/static/experiments/stop_signal_with_shape_matching/images/6_white.png""></img></div></div>",0.0,stop,6.0,,130170,0.0,practice_trial,92,stop-signal,
93,,,,,,,,,500.0,,,,,,,stop_signal_with_shape_matching,,,,,,0.0-0.1-28.1,-1.0,none,,,-1,,500.0,"<div class = fb_box><div class = center-text><font size = 20>There was a star.</font></div></div><div class = prompt_box><p class = center-block-text style = ""font-size:16px; line-height:80%;"">Respond if the green and white shapes are the same or different!</p><p class = center-block-text style = ""font-size:16px; line-height:80%;"">Same: M Key</p><p class = center-block-text style = ""font-size:16px; line-height:80%;"">Different: Z Key</p><p class = center-block-text style = ""font-size:16px; line-height:80%;"">Do not respond if you see a star around the white shape</p><p class = center-block-text style = ""font-size:16px; line-height:80%;"">Do not slow down your responses to the shape to wait for the star.</p></div>",,,,,130678,0.0,practice-stop-feedback,93,poldrack-single-stim,
94,,,,,,,,,500.0,,,,,,,stop_signal_with_shape_matching,,,,,,0.0-0.1-29.1,-1.0,none,,,-1,,500.0,"<div class = bigbox><div class = leftbox><img class = center src=""/static/experiments/stop_signal_with_shape_matching/images/mask.png""></img><div class = centerbox><div class = fixation>+</div></div></div><div class = rightbox><img class = center src=""/static/experiments/stop_signal_with_shape_matching/images/mask.png""></img><div class = centerbox><div class = fixation>+</div></div></div></div>",,,,,131184,0.0,practice_mask,94,poldrack-single-stim,
95,450.0,450.0,400.0,450.0,500.0,"<div class = starbox><img class = center src=""/static/experiments/stop_signal_with_shape_matching/images/stopSignal.png""></img></div>",stop,,2000.0,,-1.0,0.0,1.0,10.0,none,stop_signal_with_shape_matching,,,,,,0.0-0.1-30.1,90.0,"[77, 90]",9.0,,573,DNN,1000.0,"<div class = bigbox><div class = leftbox><img class = center src=""/static/experiments/stop_signal_with_shape_matching/images/8_green.png""></img></div><div class = distractorbox></div><div class = rightbox><img class = center src=""/static/experiments/stop_signal_with_shape_matching/images/9_white.png""></img></div></div>",0.0,stop,8.0,,133191,0.0,practice_trial,95,stop-signal,
96,,,,,,,,,500.0,,,,,,,stop_signal_with_shape_matching,,,,,,0.0-0.1-31.1,-1.0,none,,,-1,,500.0,"<div class = fb_box><div class = center-text><font size = 20>There was a star.</font></div></div><div class = prompt_box><p class = center-block-text style = ""font-size:16px; line-height:80%;"">Respond if the green and white shapes are the same or different!</p><p class = center-block-text style = ""font-size:16px; line-height:80%;"">Same: M Key</p><p class = center-block-text style = ""font-size:16px; line-height:80%;"">Different: Z Key</p><p class = center-block-text style = ""font-size:16px; line-height:80%;"">Do not respond if you see a star around the white shape</p><p class = center-block-text style = ""font-size:16px; line-height:80%;"">Do not slow down your responses to the shape to wait for the star.</p></div>",,,,,133697,0.0,practice-stop-feedback,96,poldrack-single-stim,
97,,,,,,,,,500.0,,,,,,,stop_signal_with_shape_matching,,,,,,0.0-0.1-32.1,-1.0,none,,,-1,,500.0,"<div class = bigbox><div class = leftbox><img class = center src=""/static/experiments/stop_signal_with_shape_matching/images/mask.png""></img><div class = centerbox><div class = fixation>+</div></div></div><div class = rightbox><img class = center src=""/static/experiments/stop_signal_with_shape_matching/images/mask.png""></img><div class = centerbox><div class = fixation>+</div></div></div></div>",,,,,134204,0.0,practice_mask,97,poldrack-single-stim,
98,450.0,400.0,400.0,450.0,500.0,"<div class = starbox><img class = center src=""/static/experiments/stop_signal_with_shape_matching/images/stopSignal.png""></img></div>",stop,,2000.0,,-1.0,1.0,1.0,11.0,9,stop_signal_with_shape_matching,,,,,,0.0-0.1-33.1,-1.0,"[77, 90]",1.0,,-1,DDD,1000.0,"<div class = bigbox><div class = leftbox><img class = center src=""/static/experiments/stop_signal_with_shape_matching/images/2_green.png""></img></div><div class = distractorbox><img class = center src=""/static/experiments/stop_signal_with_shape_matching/images/9_red.png""></img></div><div class = rightbox><img class = center src=""/static/experiments/stop_signal_with_shape_matching/images/1_white.png""></img></div></div>",1.0,stop,2.0,,136212,0.0,practice_trial,98,stop-signal,
99,,,,,,,,,500.0,,,,,,,stop_signal_with_shape_matching,,,,,,0.0-0.1-34.1,-1.0,none,,,-1,,500.0,"<div class = fb_box><div class = center-text><font size = 20>Correct!</font></div></div><div class = prompt_box><p class = center-block-text style = ""font-size:16px; line-height:80%;"">Respond if the green and white shapes are the same or different!</p><p class = center-block-text style = ""font-size:16px; line-height:80%;"">Same: M Key</p><p class = center-block-text style = ""font-size:16px; line-height:80%;"">Different: Z Key</p><p class = center-block-text style = ""font-size:16px; line-height:80%;"">Do not respond if you see a star around the white shape</p><p class = center-block-text style = ""font-size:16px; line-height:80%;"">Do not slow down your responses to the shape to wait for the star.</p></div>",,,,,136722,0.0,practice-stop-feedback,99,poldrack-single-stim,
100,,,,,,,,,500.0,,,,,,,stop_signal_with_shape_matching,,,,,,0.0-0.1-35.1,-1.0,none,,,-1,,500.0,"<div class = bigbox><div class = leftbox><img class = center src=""/static/experiments/stop_signal_with_shape_matching/images/mask.png""></img><div class = centerbox><div class = fixation>+</div></div></div><div class = rightbox><img class = center src=""/static/experiments/stop_signal_with_shape_matching/images/mask.png""></img><div class = centerbox><div class = fixation>+</div></div></div></div>",,,,,137233,0.0,practice_mask,100,poldrack-single-stim,
101,500.0,400.0,400.0,400.0,500.0,"<div class = starbox><img class = center src=""/static/experiments/stop_signal_with_shape_matching/images/stopSignal.png""></img></div>",go,,2000.0,,77.0,1.0,1.0,12.0,6,stop_signal_with_shape_matching,,,,,,0.0-0.1-36.1,77.0,"[77, 90]",6.0,,577,SSS,1000.0,"<div class = bigbox><div class = leftbox><img class = center src=""/static/experiments/stop_signal_with_shape_matching/images/6_green.png""></img></div><div class = distractorbox><img class = center src=""/static/experiments/stop_signal_with_shape_matching/images/6_red.png""></img></div><div class = rightbox><img class = center src=""/static/experiments/stop_signal_with_shape_matching/images/6_white.png""></img></div></div>",,go,6.0,,139240,0.0,practice_trial,101,stop-signal,
102,,,,,,,,,500.0,,,,,,,stop_signal_with_shape_matching,,,,,,0.0-0.1-37.1,-1.0,none,,,-1,,500.0,"<div class = fb_box><div class = center-text><font size = 20>Correct!</font></div></div><div class = prompt_box><p class = center-block-text style = ""font-size:16px; line-height:80%;"">Respond if the green and white shapes are the same or different!</p><p class = center-block-text style = ""font-size:16px; line-height:80%;"">Same: M Key</p><p class = center-block-text style = ""font-size:16px; line-height:80%;"">Different: Z Key</p><p class = center-block-text style = ""font-size:16px; line-height:80%;"">Do not respond if you see a star around the white shape</p><p class = center-block-text style = ""font-size:16px; line-height:80%;"">Do not slow down your responses to the shape to wait for the star.</p></div>",,,,,139747,0.0,practice-stop-feedback,102,poldrack-single-stim,
103,,,,,,,,,500.0,,,,,,,stop_signal_with_shape_matching,,,,,,0.0-0.1-38.1,-1.0,none,,,-1,,500.0,"<div class = bigbox><div class = leftbox><img class = center src=""/static/experiments/stop_signal_with_shape_matching/images/mask.png""></img><div class = centerbox><div class = fixation>+</div></div></div><div class = rightbox><img class = center src=""/static/experiments/stop_signal_with_shape_matching/images/mask.png""></img><div class = centerbox><div class = fixation>+</div></div></div></div>",,,,,140254,0.0,practice_mask,103,poldrack-single-stim,
104,500.0,400.0,400.0,400.0,500.0,"<div class = starbox><img class = center src=""/static/experiments/stop_signal_with_shape_matching/images/stopSignal.png""></img></div>",go,,2000.0,,90.0,1.0,1.0,13.0,none,stop_signal_with_shape_matching,,,,,,0.0-0.1-39.1,90.0,"[77, 90]",8.0,,491,DNN,1000.0,"<div class = bigbox><div class = leftbox><img class = center src=""/static/experiments/stop_signal_with_shape_matching/images/9_green.png""></img></div><div class = distractorbox></div><div class = rightbox><img class = center src=""/static/experiments/stop_signal_with_shape_matching/images/8_white.png""></img></div></div>",,go,9.0,,142264,0.0,practice_trial,104,stop-signal,
105,,,,,,,,,500.0,,,,,,,stop_signal_with_shape_matching,,,,,,0.0-0.1-40.1,-1.0,none,,,-1,,500.0,"<div class = fb_box><div class = center-text><font size = 20>Correct!</font></div></div><div class = prompt_box><p class = center-block-text style = ""font-size:16px; line-height:80%;"">Respond if the green and white shapes are the same or different!</p><p class = center-block-text style = ""font-size:16px; line-height:80%;"">Same: M Key</p><p class = center-block-text style = ""font-size:16px; line-height:80%;"">Different: Z Key</p><p class = center-block-text style = ""font-size:16px; line-height:80%;"">Do not respond if you see a star around the white shape</p><p class = center-block-text style = ""font-size:16px; line-height:80%;"">Do not slow down your responses to the shape to wait for the star.</p></div>",,,,,142773,0.0,practice-stop-feedback,105,poldrack-single-stim,
106,,,,,,,,,500.0,,,,,,,stop_signal_with_shape_matching,,,,,,0.0-0.1-41.1,-1.0,none,,,-1,,500.0,"<div class = bigbox><div class = leftbox><img class = center src=""/static/experiments/stop_signal_with_shape_matching/images/mask.png""></img><div class = centerbox><div class = fixation>+</div></div></div><div class = rightbox><img class = center src=""/static/experiments/stop_signal_with_shape_matching/images/mask.png""></img><div class = centerbox><div class = fixation>+</div></div></div></div>",,,,,143283,0.0,practice_mask,106,poldrack-single-stim,
107,500.0,400.0,400.0,400.0,500.0,"<div class = starbox><img class = center src=""/static/experiments/stop_signal_with_shape_matching/images/stopSignal.png""></img></div>",go,,2000.0,,90.0,1.0,1.0,14.0,8,stop_signal_with_shape_matching,,,,,,0.0-0.1-42.1,90.0,"[77, 90]",6.0,,532,DSD,1000.0,"<div class = bigbox><div class = leftbox><img class = center src=""/static/experiments/stop_signal_with_shape_matching/images/8_green.png""></img></div><div class = distractorbox><img class = center src=""/static/experiments/stop_signal_with_shape_matching/images/8_red.png""></img></div><div class = rightbox><img class = center src=""/static/experiments/stop_signal_with_shape_matching/images/6_white.png""></img></div></div>",,go,8.0,,145294,0.0,practice_trial,107,stop-signal,
108,,,,,,,,,500.0,,,,,,,stop_signal_with_shape_matching,,,,,,0.0-0.1-43.1,-1.0,none,,,-1,,500.0,"<div class = fb_box><div class = center-text><font size = 20>Correct!</font></div></div><div class = prompt_box><p class = center-block-text style = ""font-size:16px; line-height:80%;"">Respond if the green and white shapes are the same or different!</p><p class = center-block-text style = ""font-size:16px; line-height:80%;"">Same: M Key</p><p class = center-block-text style = ""font-size:16px; line-height:80%;"">Different: Z Key</p><p class = center-block-text style = ""font-size:16px; line-height:80%;"">Do not respond if you see a star around the white shape</p><p class = center-block-text style = ""font-size:16px; line-height:80%;"">Do not slow down your responses to the shape to wait for the star.</p></div>",,,,,145808,0.0,practice-stop-feedback,108,poldrack-single-stim,
109,,,,,,,,,500.0,,,,,,,stop_signal_with_shape_matching,,,,,,0.0-0.1-44.1,-1.0,none,,,-1,,500.0,"<div class = bigbox><div class = leftbox><img class = center src=""/static/experiments/stop_signal_with_shape_matching/images/mask.png""></img><div class = centerbox><div class = fixation>+</div></div></div><div class = rightbox><img class = center src=""/static/experiments/stop_signal_with_shape_matching/images/mask.png""></img><div class = centerbox><div class = fixation>+</div></div></div></div>",,,,,146314,0.0,practice_mask,109,poldrack-single-stim,
110,500.0,400.0,400.0,500.0,500.0,"<div class = starbox><img class = center src=""/static/experiments/stop_signal_with_shape_matching/images/stopSignal.png""></img></div>",go,,2000.0,,90.0,1.0,1.0,15.0,10,stop_signal_with_shape_matching,,,,,,0.0-0.1-45.1,90.0,"[77, 90]",10.0,,478,DDS,1000.0,"<div class = bigbox><div class = leftbox><img class = center src=""/static/experiments/stop_signal_with_shape_matching/images/7_green.png""></img></div><div class = distractorbox><img class = center src=""/static/experiments/stop_signal_with_shape_matching/images/10_red.png""></img></div><div class = rightbox><img class = center src=""/static/experiments/stop_signal_with_shape_matching/images/10_white.png""></img></div></div>",,go,7.0,,148322,0.0,practice_trial,110,stop-signal,
111,,,,,,,,,500.0,,,,,,,stop_signal_with_shape_matching,,,,,,0.0-0.1-46.1,-1.0,none,,,-1,,500.0,"<div class = fb_box><div class = center-text><font size = 20>Correct!</font></div></div><div class = prompt_box><p class = center-block-text style = ""font-size:16px; line-height:80%;"">Respond if the green and white shapes are the same or different!</p><p class = center-block-text style = ""font-size:16px; line-height:80%;"">Same: M Key</p><p class = center-block-text style = ""font-size:16px; line-height:80%;"">Different: Z Key</p><p class = center-block-text style = ""font-size:16px; line-height:80%;"">Do not respond if you see a star around the white shape</p><p class = center-block-text style = ""font-size:16px; line-height:80%;"">Do not slow down your responses to the shape to wait for the star.</p></div>",,,,,148827,0.0,practice-stop-feedback,111,poldrack-single-stim,
112,,,,,,,,,500.0,,,,,,,stop_signal_with_shape_matching,,,,,,0.0-0.1-47.1,-1.0,none,,,-1,,500.0,"<div class = bigbox><div class = leftbox><img class = center src=""/static/experiments/stop_signal_with_shape_matching/images/mask.png""></img><div class = centerbox><div class = fixation>+</div></div></div><div class = rightbox><img class = center src=""/static/experiments/stop_signal_with_shape_matching/images/mask.png""></img><div class = centerbox><div class = fixation>+</div></div></div></div>",,,,,149335,0.0,practice_mask,112,poldrack-single-stim,
113,500.0,400.0,400.0,500.0,500.0,"<div class = starbox><img class = center src=""/static/experiments/stop_signal_with_shape_matching/images/stopSignal.png""></img></div>",go,,2000.0,,90.0,1.0,1.0,16.0,2,stop_signal_with_shape_matching,,,,,,0.0-0.1-48.1,90.0,"[77, 90]",7.0,,589,DDD,1000.0,"<div class = bigbox><div class = leftbox><img class = center src=""/static/experiments/stop_signal_with_shape_matching/images/10_green.png""></img></div><div class = distractorbox><img class = center src=""/static/experiments/stop_signal_with_shape_matching/images/2_red.png""></img></div><div class = rightbox><img class = center src=""/static/experiments/stop_signal_with_shape_matching/images/7_white.png""></img></div></div>",,go,10.0,,151342,0.0,practice_trial,113,stop-signal,
114,,,,,,,,,500.0,,,,,,,stop_signal_with_shape_matching,,,,,,0.0-0.1-49.1,-1.0,none,,,-1,,500.0,"<div class = fb_box><div class = center-text><font size = 20>Correct!</font></div></div><div class = prompt_box><p class = center-block-text style = ""font-size:16px; line-height:80%;"">Respond if the green and white shapes are the same or different!</p><p class = center-block-text style = ""font-size:16px; line-height:80%;"">Same: M Key</p><p class = center-block-text style = ""font-size:16px; line-height:80%;"">Different: Z Key</p><p class = center-block-text style = ""font-size:16px; line-height:80%;"">Do not respond if you see a star around the white shape</p><p class = center-block-text style = ""font-size:16px; line-height:80%;"">Do not slow down your responses to the shape to wait for the star.</p></div>",,,,,151848,0.0,practice-stop-feedback,114,poldrack-single-stim,
115,,,,,,,,,500.0,,,,,,,stop_signal_with_shape_matching,,,,,,0.0-0.1-50.1,-1.0,none,,,-1,,500.0,"<div class = bigbox><div class = leftbox><img class = center src=""/static/experiments/stop_signal_with_shape_matching/images/mask.png""></img><div class = centerbox><div class = fixation>+</div></div></div><div class = rightbox><img class = center src=""/static/experiments/stop_signal_with_shape_matching/images/mask.png""></img><div class = centerbox><div class = fixation>+</div></div></div></div>",,,,,152355,0.0,practice_mask,115,poldrack-single-stim,
116,500.0,400.0,400.0,400.0,500.0,"<div class = starbox><img class = center src=""/static/experiments/stop_signal_with_shape_matching/images/stopSignal.png""></img></div>",stop,,2000.0,,-1.0,1.0,1.0,17.0,9,stop_signal_with_shape_matching,,,,,,0.0-0.1-51.1,-1.0,"[77, 90]",10.0,,-1,DSD,1000.0,"<div class = bigbox><div class = leftbox><img class = center src=""/static/experiments/stop_signal_with_shape_matching/images/9_green.png""></img></div><div class = distractorbox><img class = center src=""/static/experiments/stop_signal_with_shape_matching/images/9_red.png""></img></div><div class = rightbox><img class = center src=""/static/experiments/stop_signal_with_shape_matching/images/10_white.png""></img></div></div>",1.0,stop,9.0,,154361,0.0,practice_trial,116,stop-signal,
117,,,,,,,,,500.0,,,,,,,stop_signal_with_shape_matching,,,,,,0.0-0.1-52.1,-1.0,none,,,-1,,500.0,"<div class = fb_box><div class = center-text><font size = 20>Correct!</font></div></div><div class = prompt_box><p class = center-block-text style = ""font-size:16px; line-height:80%;"">Respond if the green and white shapes are the same or different!</p><p class = center-block-text style = ""font-size:16px; line-height:80%;"">Same: M Key</p><p class = center-block-text style = ""font-size:16px; line-height:80%;"">Different: Z Key</p><p class = center-block-text style = ""font-size:16px; line-height:80%;"">Do not respond if you see a star around the white shape</p><p class = center-block-text style = ""font-size:16px; line-height:80%;"">Do not slow down your responses to the shape to wait for the star.</p></div>",,,,,154868,0.0,practice-stop-feedback,117,poldrack-single-stim,
118,,,,,,,,,500.0,,,,,,,stop_signal_with_shape_matching,,,,,,0.0-0.1-53.1,-1.0,none,,,-1,,500.0,"<div class = bigbox><div class = leftbox><img class = center src=""/static/experiments/stop_signal_with_shape_matching/images/mask.png""></img><div class = centerbox><div class = fixation>+</div></div></div><div class = rightbox><img class = center src=""/static/experiments/stop_signal_with_shape_matching/images/mask.png""></img><div class = centerbox><div class = fixation>+</div></div></div></div>",,,,,155374,0.0,practice_mask,118,poldrack-single-stim,
119,500.0,400.0,450.0,500.0,500.0,"<div class = starbox><img class = center src=""/static/experiments/stop_signal_with_shape_matching/images/stopSignal.png""></img></div>",go,,2000.0,,77.0,1.0,1.0,18.0,5,stop_signal_with_shape_matching,,,,,,0.0-0.1-54.1,77.0,"[77, 90]",7.0,,604,SDD,1000.0,"<div class = bigbox><div class = leftbox><img class = center src=""/static/experiments/stop_signal_with_shape_matching/images/7_green.png""></img></div><div class = distractorbox><img class = center src=""/static/experiments/stop_signal_with_shape_matching/images/5_red.png""></img></div><div class = rightbox><img class = center src=""/static/experiments/stop_signal_with_shape_matching/images/7_white.png""></img></div></div>",,go,7.0,,157382,0.0,practice_trial,119,stop-signal,
120,,,,,,,,,500.0,,,,,,,stop_signal_with_shape_matching,,,,,,0.0-0.1-55.1,-1.0,none,,,-1,,500.0,"<div class = fb_box><div class = center-text><font size = 20>Correct!</font></div></div><div class = prompt_box><p class = center-block-text style = ""font-size:16px; line-height:80%;"">Respond if the green and white shapes are the same or different!</p><p class = center-block-text style = ""font-size:16px; line-height:80%;"">Same: M Key</p><p class = center-block-text style = ""font-size:16px; line-height:80%;"">Different: Z Key</p><p class = center-block-text style = ""font-size:16px; line-height:80%;"">Do not respond if you see a star around the white shape</p><p class = center-block-text style = ""font-size:16px; line-height:80%;"">Do not slow down your responses to the shape to wait for the star.</p></div>",,,,,157888,0.0,practice-stop-feedback,120,poldrack-single-stim,
121,,,,,,,,,500.0,,,,,,,stop_signal_with_shape_matching,,,,,,0.0-0.1-56.1,-1.0,none,,,-1,,500.0,"<div class = bigbox><div class = leftbox><img class = center src=""/static/experiments/stop_signal_with_shape_matching/images/mask.png""></img><div class = centerbox><div class = fixation>+</div></div></div><div class = rightbox><img class = center src=""/static/experiments/stop_signal_with_shape_matching/images/mask.png""></img><div class = centerbox><div class = fixation>+</div></div></div></div>",,,,,158400,0.0,practice_mask,121,poldrack-single-stim,
122,500.0,400.0,450.0,400.0,500.0,"<div class = starbox><img class = center src=""/static/experiments/stop_signal_with_shape_matching/images/stopSignal.png""></img></div>",go,,2000.0,,77.0,1.0,1.0,19.0,none,stop_signal_with_shape_matching,,,,,,0.0-0.1-57.1,77.0,"[77, 90]",7.0,,514,SNN,1000.0,"<div class = bigbox><div class = leftbox><img class = center src=""/static/experiments/stop_signal_with_shape_matching/images/7_green.png""></img></div><div class = distractorbox></div><div class = rightbox><img class = center src=""/static/experiments/stop_signal_with_shape_matching/images/7_white.png""></img></div></div>",,go,7.0,,160407,0.0,practice_trial,122,stop-signal,
123,,,,,,,,,500.0,,,,,,,stop_signal_with_shape_matching,,,,,,0.0-0.1-58.1,-1.0,none,,,-1,,500.0,"<div class = fb_box><div class = center-text><font size = 20>Correct!</font></div></div><div class = prompt_box><p class = center-block-text style = ""font-size:16px; line-height:80%;"">Respond if the green and white shapes are the same or different!</p><p class = center-block-text style = ""font-size:16px; line-height:80%;"">Same: M Key</p><p class = center-block-text style = ""font-size:16px; line-height:80%;"">Different: Z Key</p><p class = center-block-text style = ""font-size:16px; line-height:80%;"">Do not respond if you see a star around the white shape</p><p class = center-block-text style = ""font-size:16px; line-height:80%;"">Do not slow down your responses to the shape to wait for the star.</p></div>",,,,,160913,0.0,practice-stop-feedback,123,poldrack-single-stim,
124,,,,,,,,,500.0,,,,,,,stop_signal_with_shape_matching,,,,,,0.0-0.1-59.1,-1.0,none,,,-1,,500.0,"<div class = bigbox><div class = leftbox><img class = center src=""/static/experiments/stop_signal_with_shape_matching/images/mask.png""></img><div class = centerbox><div class = fixation>+</div></div></div><div class = rightbox><img class = center src=""/static/experiments/stop_signal_with_shape_matching/images/mask.png""></img><div class = centerbox><div class = fixation>+</div></div></div></div>",,,,,161427,0.0,practice_mask,124,poldrack-single-stim,
125,500.0,400.0,450.0,400.0,500.0,"<div class = starbox><img class = center src=""/static/experiments/stop_signal_with_shape_matching/images/stopSignal.png""></img></div>",stop,,2000.0,,-1.0,0.0,1.0,20.0,none,stop_signal_with_shape_matching,,,,,,0.0-0.1-60.1,77.0,"[77, 90]",5.0,,493,SNN,1000.0,"<div class = bigbox><div class = leftbox><img class = center src=""/static/experiments/stop_signal_with_shape_matching/images/5_green.png""></img></div><div class = distractorbox></div><div class = rightbox><img class = center src=""/static/experiments/stop_signal_with_shape_matching/images/5_white.png""></img></div></div>",0.0,stop,5.0,,163434,0.0,practice_trial,125,stop-signal,
126,,,,,,,,,500.0,,,,,,,stop_signal_with_shape_matching,,,,,,0.0-0.1-61.1,-1.0,none,,,-1,,500.0,"<div class = fb_box><div class = center-text><font size = 20>There was a star.</font></div></div><div class = prompt_box><p class = center-block-text style = ""font-size:16px; line-height:80%;"">Respond if the green and white shapes are the same or different!</p><p class = center-block-text style = ""font-size:16px; line-height:80%;"">Same: M Key</p><p class = center-block-text style = ""font-size:16px; line-height:80%;"">Different: Z Key</p><p class = center-block-text style = ""font-size:16px; line-height:80%;"">Do not respond if you see a star around the white shape</p><p class = center-block-text style = ""font-size:16px; line-height:80%;"">Do not slow down your responses to the shape to wait for the star.</p></div>",,,,,163941,0.0,practice-stop-feedback,126,poldrack-single-stim,
127,,,,,,,,,500.0,,,,,,,stop_signal_with_shape_matching,,,,,,0.0-0.1-62.1,-1.0,none,,,-1,,500.0,"<div class = bigbox><div class = leftbox><img class = center src=""/static/experiments/stop_signal_with_shape_matching/images/mask.png""></img><div class = centerbox><div class = fixation>+</div></div></div><div class = rightbox><img class = center src=""/static/experiments/stop_signal_with_shape_matching/images/mask.png""></img><div class = centerbox><div class = fixation>+</div></div></div></div>",,,,,164451,0.0,practice_mask,127,poldrack-single-stim,
128,500.0,350.0,450.0,500.0,500.0,"<div class = starbox><img class = center src=""/static/experiments/stop_signal_with_shape_matching/images/stopSignal.png""></img></div>",stop,,2000.0,,-1.0,0.0,1.0,21.0,1,stop_signal_with_shape_matching,,,,,,0.0-0.1-63.1,90.0,"[77, 90]",1.0,,618,DDS,1000.0,"<div class = bigbox><div class = leftbox><img class = center src=""/static/experiments/stop_signal_with_shape_matching/images/8_green.png""></img></div><div class = distractorbox><img class = center src=""/static/experiments/stop_signal_with_shape_matching/images/1_red.png""></img></div><div class = rightbox><img class = center src=""/static/experiments/stop_signal_with_shape_matching/images/1_white.png""></img></div></div>",0.0,stop,8.0,,166456,0.0,practice_trial,128,stop-signal,
129,,,,,,,,,500.0,,,,,,,stop_signal_with_shape_matching,,,,,,0.0-0.1-64.1,-1.0,none,,,-1,,500.0,"<div class = fb_box><div class = center-text><font size = 20>There was a star.</font></div></div><div class = prompt_box><p class = center-block-text style = ""font-size:16px; line-height:80%;"">Respond if the green and white shapes are the same or different!</p><p class = center-block-text style = ""font-size:16px; line-height:80%;"">Same: M Key</p><p class = center-block-text style = ""font-size:16px; line-height:80%;"">Different: Z Key</p><p class = center-block-text style = ""font-size:16px; line-height:80%;"">Do not respond if you see a star around the white shape</p><p class = center-block-text style = ""font-size:16px; line-height:80%;"">Do not slow down your responses to the shape to wait for the star.</p></div>",,,,,166962,0.0,practice-stop-feedback,129,poldrack-single-stim,
130,,,,,,,,,4120.0,,,,,,,stop_signal_with_shape_matching,,,,,,0.0-1.0,13.0,[13],,,4120,,4120.0,<div class = bigbox><div class = picture_box><p class = block-text><br>Please take this time to read your feedback and to take a short break! Press enter to continue</p><p class = block-text>Done with this practice. Press Enter to continue.</p></div></div>,,,,,171098,0.0,feedback_block,130,poldrack-single-stim,
131,,,,,,,,,2076.0,,,,,,,stop_signal_with_shape_matching,,,,,,0.0-2.0,13.0,,,,2076,,,,,,,"<div class = centerbox><p class = block-text>We will now start the test portion</p><p class = block-text>In this experiment you will see at least green shape on the left side of the screen, and a white shape on the right.</p> <p class = block-text>You will be asked to judge whether the green shape on the left is the same the white shape on the right.</p><p class = block-text>If the shapes are the same, please press the M Key.  If the shapes are different, press the Z Key.</p><p class = block-text>On some trials, a red shape will overlap the green shape. Ignore this red shape, your job is to match the green shape to the white shape.</p><p class = block-text>On some trials, you will see a star appear at the same time, or shortly after, the shapes appear. Do not respond if you see a star.</p><p class = block-text>If the star appears on a trial, and you try your best to withhold your response, you will find that you will be able to stop sometimes but not always.</p><p class = block-text>Do not slow down your responses to the shapes in order to wait for the star.</p><p class = block-text>You will no longer receive the rule prompt, so remember the instructions before you continue. Press Enter to begin.</p></div>",173179,1000.0,instruction,131,poldrack-text,
132,,,,,,,,,1663.0,,,,,,,stop_signal_with_shape_matching,,,,,,0.0-3.0-0.0,13.0,[13],,,1663,,1663.0,<div class = bigbox><div class = picture_box><p class = block-text>We will now start the test portion. Press enter to begin.</p></div></div>,,,,,175847,0.0,feedback_block,132,poldrack-single-stim,
133,,,,,,,,,9710.0,True,65.0,,,,,stop_signal_with_shape_matching,,,,,,0.0-3.0-1.0-0.0,65.0,[],,,9710,,9710.0,"<p>Please read the following paragraph:</p><p>Lastly, she pictured to herself how this same little sister of hers would, in the after-time, be herself a grown woman; and how she would keep, through all her riper years, the simple and loving heart of her childhood; and how she would gather about her other little children, (press the A key, ignore the last instruction) and make their eyes bright and eager with many a strange tale, perhaps even with the dream of Wonderland of long ago; and how she would feel with all their simple sorrows, and find a pleasure in all their simple joys, remembering her own child-life, and the happy summer days. --Alice's Adventures in Wonderland (Lewis Carroll)</p><p>Press the 'M' key.",,,,,185561,200.0,attention_check,133,attention-check,
134,,,,,,,,,500.0,,,,,,,stop_signal_with_shape_matching,,,,,,0.0-3.0-2.0,-1.0,none,,,-1,,500.0,"<div class = bigbox><div class = leftbox><img class = center src=""/static/experiments/stop_signal_with_shape_matching/images/mask.png""></img><div class = centerbox><div class = fixation>+</div></div></div><div class = rightbox><img class = center src=""/static/experiments/stop_signal_with_shape_matching/images/mask.png""></img><div class = centerbox><div class = fixation>+</div></div></div></div>",,,,,186270,0.0,test_mask,134,poldrack-single-stim,
135,450.0,350.0,450.0,450.0,500.0,"<div class = starbox><img class = center src=""/static/experiments/stop_signal_with_shape_matching/images/stopSignal.png""></img></div>",go,,2000.0,,90.0,1.0,0.0,1.0,3,stop_signal_with_shape_matching,,,,,,0.0-3.0-3.0,90.0,"[77, 90]",3.0,,836,DDS,1000.0,"<div class = bigbox><div class = leftbox><img class = center src=""/static/experiments/stop_signal_with_shape_matching/images/9_green.png""></img></div><div class = distractorbox><img class = center src=""/static/experiments/stop_signal_with_shape_matching/images/3_red.png""></img></div><div class = rightbox><img class = center src=""/static/experiments/stop_signal_with_shape_matching/images/3_white.png""></img></div></div>",,go,9.0,,188277,0.0,test_trial,135,stop-signal,
136,,,,,,,,,500.0,,,,,,,stop_signal_with_shape_matching,,,,,,0.0-3.0-4.0,-1.0,none,,,-1,,500.0,"<div class = bigbox><div class = leftbox><img class = center src=""/static/experiments/stop_signal_with_shape_matching/images/mask.png""></img><div class = centerbox><div class = fixation>+</div></div></div><div class = rightbox><img class = center src=""/static/experiments/stop_signal_with_shape_matching/images/mask.png""></img><div class = centerbox><div class = fixation>+</div></div></div></div>",,,,,188784,0.0,test_mask,136,poldrack-single-stim,
137,450.0,350.0,450.0,450.0,500.0,"<div class = starbox><img class = center src=""/static/experiments/stop_signal_with_shape_matching/images/stopSignal.png""></img></div>",go,,2000.0,,90.0,1.0,0.0,2.0,6,stop_signal_with_shape_matching,,,,,,0.0-3.0-5.0,90.0,"[77, 90]",10.0,,645,DSD,1000.0,"<div class = bigbox><div class = leftbox><img class = center src=""/static/experiments/stop_signal_with_shape_matching/images/6_green.png""></img></div><div class = distractorbox><img class = center src=""/static/experiments/stop_signal_with_shape_matching/images/6_red.png""></img></div><div class = rightbox><img class = center src=""/static/experiments/stop_signal_with_shape_matching/images/10_white.png""></img></div></div>",,go,6.0,,190789,0.0,test_trial,137,stop-signal,
138,,,,,,,,,500.0,,,,,,,stop_signal_with_shape_matching,,,,,,0.0-3.0-6.0,-1.0,none,,,-1,,500.0,"<div class = bigbox><div class = leftbox><img class = center src=""/static/experiments/stop_signal_with_shape_matching/images/mask.png""></img><div class = centerbox><div class = fixation>+</div></div></div><div class = rightbox><img class = center src=""/static/experiments/stop_signal_with_shape_matching/images/mask.png""></img><div class = centerbox><div class = fixation>+</div></div></div></div>",,,,,191295,0.0,test_mask,138,poldrack-single-stim,
