,SS_delay,SS_duration,SS_stimulus,SS_trial_type,att_check_percent,block_duration,bottom_stim,correct_response,correct_trial,cue,current_block,current_trial,directed_forgetting_condition,exp_id,final_accuracy,final_avg_rt,final_credit_var,final_missed_percent,final_responses_ok,internal_node_id,key_press,possible_responses,probe,responses,rt,stim_duration,stimulus,stop_acc,stop_signal_condition,text,time_elapsed,timing_post_trial,top_stim,trial_id,trial_index,trial_type,view_history
0,,,,,,3730.0,,,,,,,,stop_signal_with_directed_forgetting,,,,,,0.0-0.0-0.0,13.0,[13],,,3730,3730.0,<div class = bigbox><div class = picture_box><p class = block-text>Welcome to the experiment. This experiment will take about 30 minutes. Press <i>enter</i> to begin.</p></div></div>,,,,3732,0.0,,feedback_block,0,poldrack-single-stim,
1,,,,,,,,,,,,,,stop_signal_with_directed_forgetting,,,,,,0.0-0.0-1.0,,,,,19682,,,,,,23417,,,instruction,1,poldrack-instructions,"[{""page_index"":0,""viewing_time"":6604},{""page_index"":1,""viewing_time"":5804},{""page_index"":2,""viewing_time"":4662},{""page_index"":3,""viewing_time"":2612}]"
2,,,,,,500.0,,,,,,,,stop_signal_with_directed_forgetting,,,,,,0.0-0.0-2.0,-1.0,none,,,-1,500.0,"<div class = centerbox><div class = fixation><span style=""color:white"">+</span></div></div>",,,,24926,0.0,,practice_fixation,2,poldrack-single-stim,
3,,,,,,2000.0,,,,,,,,stop_signal_with_directed_forgetting,,,,,,0.0-0.0-3.0,-1.0,none,,,-1,2000.0,"<div class = bigbox><div class = topLeft><div class = cue-text><img class = center src=""/static/experiments/stop_signal_with_directed_forgetting/images/G.png""></img></div></div><div class = topMiddle><div class = cue-text></div></div><div class = topRight><div class = cue-text><img class = center src=""/static/experiments/stop_signal_with_directed_forgetting/images/Y.png""></img></div></div><div class = bottomLeft><div class = cue-text><img class = center src=""/static/experiments/stop_signal_with_directed_forgetting/images/X.png""></img></div></div><div class = bottomMiddle><div class = cue-text></div></div><div class = bottomRight><div class = cue-text><img class = center src=""/static/experiments/stop_signal_with_directed_forgetting/images/H.png""></img></div></div></div>",,,,26934,0.0,,practice_stim,3,poldrack-single-stim,
4,,,,,,1000.0,,,,,,,,stop_signal_with_directed_forgetting,,,,,,0.0-0.0-4.0,-1.0,[],,,-1,1000.0,"<div class = bigbox><div class = centerbox><div class = cue-text><img class = center src=""/static/experiments/stop_signal_with_directed_forgetting/images/BOT.png""></img></font></div></div></div>",,,,27939,0.0,,practice_cue,4,poldrack-single-stim,
5,,,,,,2000.0,,,,,,,,stop_signal_with_directed_forgetting,,,,,,0.0-0.0-5.0,-1.0,none,,,-1,2000.0,"<div class = centerbox><div class = fixation><span style=""color:white"">+</span></div></div>",,,,29945,0.0,,practice_fixation,5,poldrack-single-stim,
6,350.0,500.0,"<div class = bigbox><div class = starbox><img class = center src=""/static/experiments/stop_signal_with_directed_forgetting/images/stopSignal.png""></img></div></div>",go,,1000.0,"['X', 'H']",77.0,1.0,BOT,0.0,1.0,pos,stop_signal_with_directed_forgetting,,,,,,0.0-0.0-6.0,77.0,"[77, 90]",G,,557,1000.0,"<div class = bigbox><div class = centerbox><div class = cue-text><img class = center src=""/static/experiments/stop_signal_with_directed_forgetting/images/G.png""></img></font></div></div></div>",,go,,30955,0.0,"['G', 'Y']",practice_trial,6,stop-signal,
7,,,,,,1000.0,,,,,,,,stop_signal_with_directed_forgetting,,,,,,0.0-0.0-7.0,-1.0,"[77, 90]",,,-1,1000.0,,,,,31961,0.0,,practice_ITI_fixation,7,poldrack-single-stim,
8,,,,,,500.0,,,,,,,,stop_signal_with_directed_forgetting,,,,,,0.0-0.0-8.0,-1.0,none,,,-1,500.0,"<div class = fb_box><div class = center-text><font size = 20>Correct!</font></div></div><div class = prompt_box><p class = center-block-text style = ""font-size:16px; line-height:80%%;"">Please respond if the probe was in the memory set.</p><p class = center-block-text style = ""font-size:16px; line-height:80%%;"">In memory set: M Key</p><p class = center-block-text style = ""font-size:16px; line-height:80%%;"">Not in memory set: Z Key</p><p class = center-block-text style = ""font-size:16px; line-height:80%%;"">Do not respond if a star appears around the probe!</p></div>",,,,32468,0.0,,practice-stop-feedback,8,poldrack-single-stim,
9,,,,,,500.0,,,,,,,,stop_signal_with_directed_forgetting,,,,,,0.0-0.0-9.0,-1.0,none,,,-1,500.0,"<div class = centerbox><div class = fixation><span style=""color:white"">+</span></div></div>",,,,32973,0.0,,practice_fixation,9,poldrack-single-stim,
10,,,,,,2000.0,,,,,,,,stop_signal_with_directed_forgetting,,,,,,0.0-0.0-10.0,-1.0,none,,,-1,2000.0,"<div class = bigbox><div class = topLeft><div class = cue-text><img class = center src=""/static/experiments/stop_signal_with_directed_forgetting/images/T.png""></img></div></div><div class = topMiddle><div class = cue-text></div></div><div class = topRight><div class = cue-text><img class = center src=""/static/experiments/stop_signal_with_directed_forgetting/images/Q.png""></img></div></div><div class = bottomLeft><div class = cue-text><img class = center src=""/static/experiments/stop_signal_with_directed_forgetting/images/O.png""></img></div></div><div class = bottomMiddle><div class = cue-text></div></div><div class = bottomRight><div class = cue-text><img class = center src=""/static/experiments/stop_signal_with_directed_forgetting/images/F.png""></img></div></div></div>",,,,34979,0.0,,practice_stim,10,poldrack-single-stim,
11,,,,,,1000.0,,,,,,,,stop_signal_with_directed_forgetting,,,,,,0.0-0.0-11.0,-1.0,[],,,-1,1000.0,"<div class = bigbox><div class = centerbox><div class = cue-text><img class = center src=""/static/experiments/stop_signal_with_directed_forgetting/images/TOP.png""></img></font></div></div></div>",,,,35984,0.0,,practice_cue,11,poldrack-single-stim,
12,,,,,,2000.0,,,,,,,,stop_signal_with_directed_forgetting,,,,,,0.0-0.0-12.0,-1.0,none,,,-1,2000.0,"<div class = centerbox><div class = fixation><span style=""color:white"">+</span></div></div>",,,,37989,0.0,,practice_fixation,12,poldrack-single-stim,
13,350.0,500.0,"<div class = bigbox><div class = starbox><img class = center src=""/static/experiments/stop_signal_with_directed_forgetting/images/stopSignal.png""></img></div></div>",go,,1000.0,"['O', 'F']",77.0,1.0,TOP,0.0,2.0,pos,stop_signal_with_directed_forgetting,,,,,,0.0-0.0-13.0,77.0,"[77, 90]",F,,630,1000.0,"<div class = bigbox><div class = centerbox><div class = cue-text><img class = center src=""/static/experiments/stop_signal_with_directed_forgetting/images/F.png""></img></font></div></div></div>",,go,,38996,0.0,"['T', 'Q']",practice_trial,13,stop-signal,
14,,,,,,1000.0,,,,,,,,stop_signal_with_directed_forgetting,,,,,,0.0-0.0-14.0,-1.0,"[77, 90]",,,-1,1000.0,,,,,40001,0.0,,practice_ITI_fixation,14,poldrack-single-stim,
15,,,,,,500.0,,,,,,,,stop_signal_with_directed_forgetting,,,,,,0.0-0.0-15.0,-1.0,none,,,-1,500.0,"<div class = fb_box><div class = center-text><font size = 20>Correct!</font></div></div><div class = prompt_box><p class = center-block-text style = ""font-size:16px; line-height:80%%;"">Please respond if the probe was in the memory set.</p><p class = center-block-text style = ""font-size:16px; line-height:80%%;"">In memory set: M Key</p><p class = center-block-text style = ""font-size:16px; line-height:80%%;"">Not in memory set: Z Key</p><p class = center-block-text style = ""font-size:16px; line-height:80%%;"">Do not respond if a star appears around the probe!</p></div>",,,,40505,0.0,,practice-stop-feedback,15,poldrack-single-stim,
16,,,,,,500.0,,,,,,,,stop_signal_with_directed_forgetting,,,,,,0.0-0.0-16.0,-1.0,none,,,-1,500.0,"<div class = centerbox><div class = fixation><span style=""color:white"">+</span></div></div>",,,,41009,0.0,,practice_fixation,16,poldrack-single-stim,
17,,,,,,2000.0,,,,,,,,stop_signal_with_directed_forgetting,,,,,,0.0-0.0-17.0,-1.0,none,,,-1,2000.0,"<div class = bigbox><div class = topLeft><div class = cue-text><img class = center src=""/static/experiments/stop_signal_with_directed_forgetting/images/S.png""></img></div></div><div class = topMiddle><div class = cue-text></div></div><div class = topRight><div class = cue-text><img class = center src=""/static/experiments/stop_signal_with_directed_forgetting/images/C.png""></img></div></div><div class = bottomLeft><div class = cue-text><img class = center src=""/static/experiments/stop_signal_with_directed_forgetting/images/L.png""></img></div></div><div class = bottomMiddle><div class = cue-text></div></div><div class = bottomRight><div class = cue-text><img class = center src=""/static/experiments/stop_signal_with_directed_forgetting/images/W.png""></img></div></div></div>",,,,43015,0.0,,practice_stim,17,poldrack-single-stim,
18,,,,,,1000.0,,,,,,,,stop_signal_with_directed_forgetting,,,,,,0.0-0.0-18.0,-1.0,[],,,-1,1000.0,"<div class = bigbox><div class = centerbox><div class = cue-text><img class = center src=""/static/experiments/stop_signal_with_directed_forgetting/images/BOT.png""></img></font></div></div></div>",,,,44020,0.0,,practice_cue,18,poldrack-single-stim,
19,,,,,,2000.0,,,,,,,,stop_signal_with_directed_forgetting,,,,,,0.0-0.0-19.0,-1.0,none,,,-1,2000.0,"<div class = centerbox><div class = fixation><span style=""color:white"">+</span></div></div>",,,,46025,0.0,,practice_fixation,19,poldrack-single-stim,
20,350.0,500.0,"<div class = bigbox><div class = starbox><img class = center src=""/static/experiments/stop_signal_with_directed_forgetting/images/stopSignal.png""></img></div></div>",go,,1000.0,"['L', 'W']",77.0,1.0,BOT,0.0,3.0,pos,stop_signal_with_directed_forgetting,,,,,,0.0-0.0-20.0,77.0,"[77, 90]",S,,632,1000.0,"<div class = bigbox><div class = centerbox><div class = cue-text><img class = center src=""/static/experiments/stop_signal_with_directed_forgetting/images/S.png""></img></font></div></div></div>",,go,,47029,0.0,"['S', 'C']",practice_trial,20,stop-signal,
21,,,,,,1000.0,,,,,,,,stop_signal_with_directed_forgetting,,,,,,0.0-0.0-21.0,-1.0,"[77, 90]",,,-1,1000.0,,,,,48034,0.0,,practice_ITI_fixation,21,poldrack-single-stim,
22,,,,,,500.0,,,,,,,,stop_signal_with_directed_forgetting,,,,,,0.0-0.0-22.0,-1.0,none,,,-1,500.0,"<div class = fb_box><div class = center-text><font size = 20>Correct!</font></div></div><div class = prompt_box><p class = center-block-text style = ""font-size:16px; line-height:80%%;"">Please respond if the probe was in the memory set.</p><p class = center-block-text style = ""font-size:16px; line-height:80%%;"">In memory set: M Key</p><p class = center-block-text style = ""font-size:16px; line-height:80%%;"">Not in memory set: Z Key</p><p class = center-block-text style = ""font-size:16px; line-height:80%%;"">Do not respond if a star appears around the probe!</p></div>",,,,48540,0.0,,practice-stop-feedback,22,poldrack-single-stim,
23,,,,,,500.0,,,,,,,,stop_signal_with_directed_forgetting,,,,,,0.0-0.0-23.0,-1.0,none,,,-1,500.0,"<div class = centerbox><div class = fixation><span style=""color:white"">+</span></div></div>",,,,49045,0.0,,practice_fixation,23,poldrack-single-stim,
24,,,,,,2000.0,,,,,,,,stop_signal_with_directed_forgetting,,,,,,0.0-0.0-24.0,-1.0,none,,,-1,2000.0,"<div class = bigbox><div class = topLeft><div class = cue-text><img class = center src=""/static/experiments/stop_signal_with_directed_forgetting/images/V.png""></img></div></div><div class = topMiddle><div class = cue-text></div></div><div class = topRight><div class = cue-text><img class = center src=""/static/experiments/stop_signal_with_directed_forgetting/images/E.png""></img></div></div><div class = bottomLeft><div class = cue-text><img class = center src=""/static/experiments/stop_signal_with_directed_forgetting/images/K.png""></img></div></div><div class = bottomMiddle><div class = cue-text></div></div><div class = bottomRight><div class = cue-text><img class = center src=""/static/experiments/stop_signal_with_directed_forgetting/images/X.png""></img></div></div></div>",,,,51052,0.0,,practice_stim,24,poldrack-single-stim,
25,,,,,,1000.0,,,,,,,,stop_signal_with_directed_forgetting,,,,,,0.0-0.0-25.0,-1.0,[],,,-1,1000.0,"<div class = bigbox><div class = centerbox><div class = cue-text><img class = center src=""/static/experiments/stop_signal_with_directed_forgetting/images/BOT.png""></img></font></div></div></div>",,,,52056,0.0,,practice_cue,25,poldrack-single-stim,
26,,,,,,2000.0,,,,,,,,stop_signal_with_directed_forgetting,,,,,,0.0-0.0-26.0,-1.0,none,,,-1,2000.0,"<div class = centerbox><div class = fixation><span style=""color:white"">+</span></div></div>",,,,54060,0.0,,practice_fixation,26,poldrack-single-stim,
27,350.0,500.0,"<div class = bigbox><div class = starbox><img class = center src=""/static/experiments/stop_signal_with_directed_forgetting/images/stopSignal.png""></img></div></div>",stop,,1000.0,"['K', 'X']",-1.0,0.0,BOT,0.0,4.0,con,stop_signal_with_directed_forgetting,,,,,,0.0-0.0-27.0,90.0,"[77, 90]",L,,550,1000.0,"<div class = bigbox><div class = centerbox><div class = cue-text><img class = center src=""/static/experiments/stop_signal_with_directed_forgetting/images/L.png""></img></font></div></div></div>",0.0,stop,,55066,0.0,"['V', 'E']",practice_trial,27,stop-signal,
28,,,,,,1000.0,,,,,,,,stop_signal_with_directed_forgetting,,,,,,0.0-0.0-28.0,-1.0,"[77, 90]",,,-1,1000.0,,,,,56071,0.0,,practice_ITI_fixation,28,poldrack-single-stim,
29,,,,,,500.0,,,,,,,,stop_signal_with_directed_forgetting,,,,,,0.0-0.0-29.0,-1.0,none,,,-1,500.0,"<div class = fb_box><div class = center-text><font size = 20>There was a star.</font></div></div><div class = prompt_box><p class = center-block-text style = ""font-size:16px; line-height:80%%;"">Please respond if the probe was in the memory set.</p><p class = center-block-text style = ""font-size:16px; line-height:80%%;"">In memory set: M Key</p><p class = center-block-text style = ""font-size:16px; line-height:80%%;"">Not in memory set: Z Key</p><p class = center-block-text style = ""font-size:16px; line-height:80%%;"">Do not respond if a star appears around the probe!</p></div>",,,,56575,0.0,,practice-stop-feedback,29,poldrack-single-stim,
30,,,,,,500.0,,,,,,,,stop_signal_with_directed_forgetting,,,,,,0.0-0.0-30.0,-1.0,none,,,-1,500.0,"<div class = centerbox><div class = fixation><span style=""color:white"">+</span></div></div>",,,,57081,0.0,,practice_fixation,30,poldrack-single-stim,
31,,,,,,2000.0,,,,,,,,stop_signal_with_directed_forgetting,,,,,,0.0-0.0-31.0,-1.0,none,,,-1,2000.0,"<div class = bigbox><div class = topLeft><div class = cue-text><img class = center src=""/static/experiments/stop_signal_with_directed_forgetting/images/H.png""></img></div></div><div class = topMiddle><div class = cue-text></div></div><div class = topRight><div class = cue-text><img class = center src=""/static/experiments/stop_signal_with_directed_forgetting/images/F.png""></img></div></div><div class = bottomLeft><div class = cue-text><img class = center src=""/static/experiments/stop_signal_with_directed_forgetting/images/N.png""></img></div></div><div class = bottomMiddle><div class = cue-text></div></div><div class = bottomRight><div class = cue-text><img class = center src=""/static/experiments/stop_signal_with_directed_forgetting/images/U.png""></img></div></div></div>",,,,59086,0.0,,practice_stim,31,poldrack-single-stim,
32,,,,,,1000.0,,,,,,,,stop_signal_with_directed_forgetting,,,,,,0.0-0.0-32.0,-1.0,[],,,-1,1000.0,"<div class = bigbox><div class = centerbox><div class = cue-text><img class = center src=""/static/experiments/stop_signal_with_directed_forgetting/images/BOT.png""></img></font></div></div></div>",,,,60091,0.0,,practice_cue,32,poldrack-single-stim,
33,,,,,,2000.0,,,,,,,,stop_signal_with_directed_forgetting,,,,,,0.0-0.0-33.0,-1.0,none,,,-1,2000.0,"<div class = centerbox><div class = fixation><span style=""color:white"">+</span></div></div>",,,,62096,0.0,,practice_fixation,33,poldrack-single-stim,
34,300.0,500.0,"<div class = bigbox><div class = starbox><img class = center src=""/static/experiments/stop_signal_with_directed_forgetting/images/stopSignal.png""></img></div></div>",stop,,1000.0,"['N', 'U']",-1.0,1.0,BOT,0.0,5.0,neg,stop_signal_with_directed_forgetting,,,,,,0.0-0.0-34.0,-1.0,"[77, 90]",U,,-1,1000.0,"<div class = bigbox><div class = centerbox><div class = cue-text><img class = center src=""/static/experiments/stop_signal_with_directed_forgetting/images/U.png""></img></font></div></div></div>",1.0,stop,,63101,0.0,"['H', 'F']",practice_trial,34,stop-signal,
35,,,,,,1000.0,,,,,,,,stop_signal_with_directed_forgetting,,,,,,0.0-0.0-35.0,-1.0,"[77, 90]",,,-1,1000.0,,,,,64105,0.0,,practice_ITI_fixation,35,poldrack-single-stim,
36,,,,,,500.0,,,,,,,,stop_signal_with_directed_forgetting,,,,,,0.0-0.0-36.0,-1.0,none,,,-1,500.0,"<div class = fb_box><div class = center-text><font size = 20>Correct!</font></div></div><div class = prompt_box><p class = center-block-text style = ""font-size:16px; line-height:80%%;"">Please respond if the probe was in the memory set.</p><p class = center-block-text style = ""font-size:16px; line-height:80%%;"">In memory set: M Key</p><p class = center-block-text style = ""font-size:16px; line-height:80%%;"">Not in memory set: Z Key</p><p class = center-block-text style = ""font-size:16px; line-height:80%%;"">Do not respond if a star appears around the probe!</p></div>",,,,64608,0.0,,practice-stop-feedback,36,poldrack-single-stim,
37,,,,,,500.0,,,,,,,,stop_signal_with_directed_forgetting,,,,,,0.0-0.0-37.0,-1.0,none,,,-1,500.0,"<div class = centerbox><div class = fixation><span style=""color:white"">+</span></div></div>",,,,65114,0.0,,practice_fixation,37,poldrack-single-stim,
38,,,,,,2000.0,,,,,,,,stop_signal_with_directed_forgetting,,,,,,0.0-0.0-38.0,-1.0,none,,,-1,2000.0,"<div class = bigbox><div class = topLeft><div class = cue-text><img class = center src=""/static/experiments/stop_signal_with_directed_forgetting/images/G.png""></img></div></div><div class = topMiddle><div class = cue-text></div></div><div class = topRight><div class = cue-text><img class = center src=""/static/experiments/stop_signal_with_directed_forgetting/images/Y.png""></img></div></div><div class = bottomLeft><div class = cue-text><img class = center src=""/static/experiments/stop_signal_with_directed_forgetting/images/D.png""></img></div></div><div class = bottomMiddle><div class = cue-text></div></div><div class = bottomRight><div class = cue-text><img class = center src=""/static/experiments/stop_signal_with_directed_forgetting/images/I.png""></img></div></div></div>",,,,67119,0.0,,practice_stim,38,poldrack-single-stim,
39,,,,,,1000.0,,,,,,,,stop_signal_with_directed_forgetting,,,,,,0.0-0.0-39.0,-1.0,[],,,-1,1000.0,"<div class = bigbox><div class = centerbox><div class = cue-text><img class = center src=""/static/experiments/stop_signal_with_directed_forgetting/images/TOP.png""></img></font></div></div></div>",,,,68124,0.0,,practice_cue,39,poldrack-single-stim,
40,,,,,,2000.0,,,,,,,,stop_signal_with_directed_forgetting,,,,,,0.0-0.0-40.0,-1.0,none,,,-1,2000.0,"<div class = centerbox><div class = fixation><span style=""color:white"">+</span></div></div>",,,,70129,0.0,,practice_fixation,40,poldrack-single-stim,
41,350.0,500.0,"<div class = bigbox><div class = starbox><img class = center src=""/static/experiments/stop_signal_with_directed_forgetting/images/stopSignal.png""></img></div></div>",go,,1000.0,"['D', 'I']",90.0,1.0,TOP,0.0,6.0,neg,stop_signal_with_directed_forgetting,,,,,,0.0-0.0-41.0,90.0,"[77, 90]",Y,,602,1000.0,"<div class = bigbox><div class = centerbox><div class = cue-text><img class = center src=""/static/experiments/stop_signal_with_directed_forgetting/images/Y.png""></img></font></div></div></div>",,go,,71132,0.0,"['G', 'Y']",practice_trial,41,stop-signal,
42,,,,,,1000.0,,,,,,,,stop_signal_with_directed_forgetting,,,,,,0.0-0.0-42.0,-1.0,"[77, 90]",,,-1,1000.0,,,,,72136,0.0,,practice_ITI_fixation,42,poldrack-single-stim,
43,,,,,,500.0,,,,,,,,stop_signal_with_directed_forgetting,,,,,,0.0-0.0-43.0,-1.0,none,,,-1,500.0,"<div class = fb_box><div class = center-text><font size = 20>Correct!</font></div></div><div class = prompt_box><p class = center-block-text style = ""font-size:16px; line-height:80%%;"">Please respond if the probe was in the memory set.</p><p class = center-block-text style = ""font-size:16px; line-height:80%%;"">In memory set: M Key</p><p class = center-block-text style = ""font-size:16px; line-height:80%%;"">Not in memory set: Z Key</p><p class = center-block-text style = ""font-size:16px; line-height:80%%;"">Do not respond if a star appears around the probe!</p></div>",,,,72640,0.0,,practice-stop-feedback,43,poldrack-single-stim,
44,,,,,,500.0,,,,,,,,stop_signal_with_directed_forgetting,,,,,,0.0-0.0-44.0,-1.0,none,,,-1,500.0,"<div class = centerbox><div class = fixation><span style=""color:white"">+</span></div></div>",,,,73143,0.0,,practice_fixation,44,poldrack-single-stim,
45,,,,,,2000.0,,,,,,,,stop_signal_with_directed_forgetting,,,,,,0.0-0.0-45.0,-1.0,none,,,-1,2000.0,"<div class = bigbox><div class = topLeft><div class = cue-text><img class = center src=""/static/experiments/stop_signal_with_directed_forgetting/images/C.png""></img></div></div><div class = topMiddle><div class = cue-text></div></div><div class = topRight><div class = cue-text><img class = center src=""/static/experiments/stop_signal_with_directed_forgetting/images/L.png""></img></div></div><div class = bottomLeft><div class = cue-text><img class = center src=""/static/experiments/stop_signal_with_directed_forgetting/images/W.png""></img></div></div><div class = bottomMiddle><div class = cue-text></div></div><div class = bottomRight><div class = cue-text><img class = center src=""/static/experiments/stop_signal_with_directed_forgetting/images/K.png""></img></div></div></div>",,,,75148,0.0,,practice_stim,45,poldrack-single-stim,
46,,,,,,1000.0,,,,,,,,stop_signal_with_directed_forgetting,,,,,,0.0-0.0-46.0,-1.0,[],,,-1,1000.0,"<div class = bigbox><div class = centerbox><div class = cue-text><img class = center src=""/static/experiments/stop_signal_with_directed_forgetting/images/TOP.png""></img></font></div></div></div>",,,,76151,0.0,,practice_cue,46,poldrack-single-stim,
47,,,,,,2000.0,,,,,,,,stop_signal_with_directed_forgetting,,,,,,0.0-0.0-47.0,-1.0,none,,,-1,2000.0,"<div class = centerbox><div class = fixation><span style=""color:white"">+</span></div></div>",,,,78154,0.0,,practice_fixation,47,poldrack-single-stim,
48,350.0,500.0,"<div class = bigbox><div class = starbox><img class = center src=""/static/experiments/stop_signal_with_directed_forgetting/images/stopSignal.png""></img></div></div>",go,,1000.0,"['W', 'K']",90.0,1.0,TOP,0.0,7.0,con,stop_signal_with_directed_forgetting,,,,,,0.0-0.0-48.0,90.0,"[77, 90]",V,,622,1000.0,"<div class = bigbox><div class = centerbox><div class = cue-text><img class = center src=""/static/experiments/stop_signal_with_directed_forgetting/images/V.png""></img></font></div></div></div>",,go,,79157,0.0,"['C', 'L']",practice_trial,48,stop-signal,
49,,,,,,1000.0,,,,,,,,stop_signal_with_directed_forgetting,,,,,,0.0-0.0-49.0,-1.0,"[77, 90]",,,-1,1000.0,,,,,80161,0.0,,practice_ITI_fixation,49,poldrack-single-stim,
50,,,,,,500.0,,,,,,,,stop_signal_with_directed_forgetting,,,,,,0.0-0.0-50.0,-1.0,none,,,-1,500.0,"<div class = fb_box><div class = center-text><font size = 20>Correct!</font></div></div><div class = prompt_box><p class = center-block-text style = ""font-size:16px; line-height:80%%;"">Please respond if the probe was in the memory set.</p><p class = center-block-text style = ""font-size:16px; line-height:80%%;"">In memory set: M Key</p><p class = center-block-text style = ""font-size:16px; line-height:80%%;"">Not in memory set: Z Key</p><p class = center-block-text style = ""font-size:16px; line-height:80%%;"">Do not respond if a star appears around the probe!</p></div>",,,,80664,0.0,,practice-stop-feedback,50,poldrack-single-stim,
51,,,,,,500.0,,,,,,,,stop_signal_with_directed_forgetting,,,,,,0.0-0.0-51.0,-1.0,none,,,-1,500.0,"<div class = centerbox><div class = fixation><span style=""color:white"">+</span></div></div>",,,,81169,0.0,,practice_fixation,51,poldrack-single-stim,
52,,,,,,2000.0,,,,,,,,stop_signal_with_directed_forgetting,,,,,,0.0-0.0-52.0,-1.0,none,,,-1,2000.0,"<div class = bigbox><div class = topLeft><div class = cue-text><img class = center src=""/static/experiments/stop_signal_with_directed_forgetting/images/T.png""></img></div></div><div class = topMiddle><div class = cue-text></div></div><div class = topRight><div class = cue-text><img class = center src=""/static/experiments/stop_signal_with_directed_forgetting/images/Z.png""></img></div></div><div class = bottomLeft><div class = cue-text><img class = center src=""/static/experiments/stop_signal_with_directed_forgetting/images/A.png""></img></div></div><div class = bottomMiddle><div class = cue-text></div></div><div class = bottomRight><div class = cue-text><img class = center src=""/static/experiments/stop_signal_with_directed_forgetting/images/S.png""></img></div></div></div>",,,,83171,0.0,,practice_stim,52,poldrack-single-stim,
53,,,,,,1000.0,,,,,,,,stop_signal_with_directed_forgetting,,,,,,0.0-0.0-53.0,-1.0,[],,,-1,1000.0,"<div class = bigbox><div class = centerbox><div class = cue-text><img class = center src=""/static/experiments/stop_signal_with_directed_forgetting/images/TOP.png""></img></font></div></div></div>",,,,84174,0.0,,practice_cue,53,poldrack-single-stim,
54,,,,,,2000.0,,,,,,,,stop_signal_with_directed_forgetting,,,,,,0.0-0.0-54.0,-1.0,none,,,-1,2000.0,"<div class = centerbox><div class = fixation><span style=""color:white"">+</span></div></div>",,,,86177,0.0,,practice_fixation,54,poldrack-single-stim,
55,350.0,500.0,"<div class = bigbox><div class = starbox><img class = center src=""/static/experiments/stop_signal_with_directed_forgetting/images/stopSignal.png""></img></div></div>",stop,,1000.0,"['A', 'S']",-1.0,0.0,TOP,0.0,8.0,pos,stop_signal_with_directed_forgetting,,,,,,0.0-0.0-55.0,77.0,"[77, 90]",S,,607,1000.0,"<div class = bigbox><div class = centerbox><div class = cue-text><img class = center src=""/static/experiments/stop_signal_with_directed_forgetting/images/S.png""></img></font></div></div></div>",0.0,stop,,87182,0.0,"['T', 'Z']",practice_trial,55,stop-signal,
56,,,,,,1000.0,,,,,,,,stop_signal_with_directed_forgetting,,,,,,0.0-0.0-56.0,-1.0,"[77, 90]",,,-1,1000.0,,,,,88185,0.0,,practice_ITI_fixation,56,poldrack-single-stim,
57,,,,,,500.0,,,,,,,,stop_signal_with_directed_forgetting,,,,,,0.0-0.0-57.0,-1.0,none,,,-1,500.0,"<div class = fb_box><div class = center-text><font size = 20>There was a star.</font></div></div><div class = prompt_box><p class = center-block-text style = ""font-size:16px; line-height:80%%;"">Please respond if the probe was in the memory set.</p><p class = center-block-text style = ""font-size:16px; line-height:80%%;"">In memory set: M Key</p><p class = center-block-text style = ""font-size:16px; line-height:80%%;"">Not in memory set: Z Key</p><p class = center-block-text style = ""font-size:16px; line-height:80%%;"">Do not respond if a star appears around the probe!</p></div>",,,,88689,0.0,,practice-stop-feedback,57,poldrack-single-stim,
58,,,,,,500.0,,,,,,,,stop_signal_with_directed_forgetting,,,,,,0.0-0.0-58.0,-1.0,none,,,-1,500.0,"<div class = centerbox><div class = fixation><span style=""color:white"">+</span></div></div>",,,,89194,0.0,,practice_fixation,58,poldrack-single-stim,
59,,,,,,2000.0,,,,,,,,stop_signal_with_directed_forgetting,,,,,,0.0-0.0-59.0,-1.0,none,,,-1,2000.0,"<div class = bigbox><div class = topLeft><div class = cue-text><img class = center src=""/static/experiments/stop_signal_with_directed_forgetting/images/P.png""></img></div></div><div class = topMiddle><div class = cue-text></div></div><div class = topRight><div class = cue-text><img class = center src=""/static/experiments/stop_signal_with_directed_forgetting/images/V.png""></img></div></div><div class = bottomLeft><div class = cue-text><img class = center src=""/static/experiments/stop_signal_with_directed_forgetting/images/N.png""></img></div></div><div class = bottomMiddle><div class = cue-text></div></div><div class = bottomRight><div class = cue-text><img class = center src=""/static/experiments/stop_signal_with_directed_forgetting/images/X.png""></img></div></div></div>",,,,91199,0.0,,practice_stim,59,poldrack-single-stim,
60,,,,,,1000.0,,,,,,,,stop_signal_with_directed_forgetting,,,,,,0.0-0.0-60.0,-1.0,[],,,-1,1000.0,"<div class = bigbox><div class = centerbox><div class = cue-text><img class = center src=""/static/experiments/stop_signal_with_directed_forgetting/images/TOP.png""></img></font></div></div></div>",,,,92203,0.0,,practice_cue,60,poldrack-single-stim,
61,,,,,,2000.0,,,,,,,,stop_signal_with_directed_forgetting,,,,,,0.0-0.0-61.0,-1.0,none,,,-1,2000.0,"<div class = centerbox><div class = fixation><span style=""color:white"">+</span></div></div>",,,,94207,0.0,,practice_fixation,61,poldrack-single-stim,
62,300.0,500.0,"<div class = bigbox><div class = starbox><img class = center src=""/static/experiments/stop_signal_with_directed_forgetting/images/stopSignal.png""></img></div></div>",go,,1000.0,"['N', 'X']",77.0,1.0,TOP,0.0,9.0,pos,stop_signal_with_directed_forgetting,,,,,,0.0-0.0-62.0,77.0,"[77, 90]",N,,641,1000.0,"<div class = bigbox><div class = centerbox><div class = cue-text><img class = center src=""/static/experiments/stop_signal_with_directed_forgetting/images/N.png""></img></font></div></div></div>",,go,,95211,0.0,"['P', 'V']",practice_trial,62,stop-signal,
63,,,,,,1000.0,,,,,,,,stop_signal_with_directed_forgetting,,,,,,0.0-0.0-63.0,-1.0,"[77, 90]",,,-1,1000.0,,,,,96214,0.0,,practice_ITI_fixation,63,poldrack-single-stim,
64,,,,,,500.0,,,,,,,,stop_signal_with_directed_forgetting,,,,,,0.0-0.0-64.0,-1.0,none,,,-1,500.0,"<div class = fb_box><div class = center-text><font size = 20>Correct!</font></div></div><div class = prompt_box><p class = center-block-text style = ""font-size:16px; line-height:80%%;"">Please respond if the probe was in the memory set.</p><p class = center-block-text style = ""font-size:16px; line-height:80%%;"">In memory set: M Key</p><p class = center-block-text style = ""font-size:16px; line-height:80%%;"">Not in memory set: Z Key</p><p class = center-block-text style = ""font-size:16px; line-height:80%%;"">Do not respond if a star appears around the probe!</p></div>",,,,96718,0.0,,practice-stop-feedback,64,poldrack-single-stim,
65,,,,,,500.0,,,,,,,,stop_signal_with_directed_forgetting,,,,,,0.0-0.0-65.0,-1.0,none,,,-1,500.0,"<div class = centerbox><div class = fixation><span style=""color:white"">+</span></div></div>",,,,97223,0.0,,practice_fixation,65,poldrack-single-stim,
66,,,,,,2000.0,,,,,,,,stop_signal_with_directed_forgetting,,,,,,0.0-0.0-66.0,-1.0,none,,,-1,2000.0,"<div class = bigbox><div class = topLeft><div class = cue-text><img class = center src=""/static/experiments/stop_signal_with_directed_forgetting/images/D.png""></img></div></div><div class = topMiddle><div class = cue-text></div></div><div class = topRight><div class = cue-text><img class = center src=""/static/experiments/stop_signal_with_directed_forgetting/images/H.png""></img></div></div><div class = bottomLeft><div class = cue-text><img class = center src=""/static/experiments/stop_signal_with_directed_forgetting/images/C.png""></img></div></div><div class = bottomMiddle><div class = cue-text></div></div><div class = bottomRight><div class = cue-text><img class = center src=""/static/experiments/stop_signal_with_directed_forgetting/images/O.png""></img></div></div></div>",,,,99228,0.0,,practice_stim,66,poldrack-single-stim,
67,,,,,,1000.0,,,,,,,,stop_signal_with_directed_forgetting,,,,,,0.0-0.0-67.0,-1.0,[],,,-1,1000.0,"<div class = bigbox><div class = centerbox><div class = cue-text><img class = center src=""/static/experiments/stop_signal_with_directed_forgetting/images/TOP.png""></img></font></div></div></div>",,,,100235,0.0,,practice_cue,67,poldrack-single-stim,
68,,,,,,2000.0,,,,,,,,stop_signal_with_directed_forgetting,,,,,,0.0-0.0-68.0,-1.0,none,,,-1,2000.0,"<div class = centerbox><div class = fixation><span style=""color:white"">+</span></div></div>",,,,102241,0.0,,practice_fixation,68,poldrack-single-stim,
69,300.0,500.0,"<div class = bigbox><div class = starbox><img class = center src=""/static/experiments/stop_signal_with_directed_forgetting/images/stopSignal.png""></img></div></div>",stop,,1000.0,"['C', 'O']",-1.0,1.0,TOP,0.0,10.0,pos,stop_signal_with_directed_forgetting,,,,,,0.0-0.0-69.0,-1.0,"[77, 90]",C,,-1,1000.0,"<div class = bigbox><div class = centerbox><div class = cue-text><img class = center src=""/static/experiments/stop_signal_with_directed_forgetting/images/C.png""></img></font></div></div></div>",1.0,stop,,103245,0.0,"['D', 'H']",practice_trial,69,stop-signal,
70,,,,,,1000.0,,,,,,,,stop_signal_with_directed_forgetting,,,,,,0.0-0.0-70.0,-1.0,"[77, 90]",,,-1,1000.0,,,,,104251,0.0,,practice_ITI_fixation,70,poldrack-single-stim,
71,,,,,,500.0,,,,,,,,stop_signal_with_directed_forgetting,,,,,,0.0-0.0-71.0,-1.0,none,,,-1,500.0,"<div class = fb_box><div class = center-text><font size = 20>Correct!</font></div></div><div class = prompt_box><p class = center-block-text style = ""font-size:16px; line-height:80%%;"">Please respond if the probe was in the memory set.</p><p class = center-block-text style = ""font-size:16px; line-height:80%%;"">In memory set: M Key</p><p class = center-block-text style = ""font-size:16px; line-height:80%%;"">Not in memory set: Z Key</p><p class = center-block-text style = ""font-size:16px; line-height:80%%;"">Do not respond if a star appears around the probe!</p></div>",,,,104757,0.0,,practice-stop-feedback,71,poldrack-single-stim,
72,,,,,,500.0,,,,,,,,stop_signal_with_directed_forgetting,,,,,,0.0-0.0-72.0,-1.0,none,,,-1,500.0,"<div class = centerbox><div class = fixation><span style=""color:white"">+</span></div></div>",,,,105262,0.0,,practice_fixation,72,poldrack-single-stim,
73,,,,,,2000.0,,,,,,,,stop_signal_with_directed_forgetting,,,,,,0.0-0.0-73.0,-1.0,none,,,-1,2000.0,"<div class = bigbox><div class = topLeft><div class = cue-text><img class = center src=""/static/experiments/stop_signal_with_directed_forgetting/images/S.png""></img></div></div><div class = topMiddle><div class = cue-text></div></div><div class = topRight><div class = cue-text><img class = center src=""/static/experiments/stop_signal_with_directed_forgetting/images/M.png""></img></div></div><div class = bottomLeft><div class = cue-text><img class = center src=""/static/experiments/stop_signal_with_directed_forgetting/images/Q.png""></img></div></div><div class = bottomMiddle><div class = cue-text></div></div><div class = bottomRight><div class = cue-text><img class = center src=""/static/experiments/stop_signal_with_directed_forgetting/images/Z.png""></img></div></div></div>",,,,107269,0.0,,practice_stim,73,poldrack-single-stim,
74,,,,,,1000.0,,,,,,,,stop_signal_with_directed_forgetting,,,,,,0.0-0.0-74.0,-1.0,[],,,-1,1000.0,"<div class = bigbox><div class = centerbox><div class = cue-text><img class = center src=""/static/experiments/stop_signal_with_directed_forgetting/images/TOP.png""></img></font></div></div></div>",,,,108278,0.0,,practice_cue,74,poldrack-single-stim,
75,,,,,,2000.0,,,,,,,,stop_signal_with_directed_forgetting,,,,,,0.0-0.0-75.0,-1.0,none,,,-1,2000.0,"<div class = centerbox><div class = fixation><span style=""color:white"">+</span></div></div>",,,,110284,0.0,,practice_fixation,75,poldrack-single-stim,
76,350.0,500.0,"<div class = bigbox><div class = starbox><img class = center src=""/static/experiments/stop_signal_with_directed_forgetting/images/stopSignal.png""></img></div></div>",go,,1000.0,"['Q', 'Z']",90.0,1.0,TOP,0.0,11.0,con,stop_signal_with_directed_forgetting,,,,,,0.0-0.0-76.0,90.0,"[77, 90]",B,,696,1000.0,"<div class = bigbox><div class = centerbox><div class = cue-text><img class = center src=""/static/experiments/stop_signal_with_directed_forgetting/images/B.png""></img></font></div></div></div>",,go,,111286,0.0,"['S', 'M']",practice_trial,76,stop-signal,
77,,,,,,1000.0,,,,,,,,stop_signal_with_directed_forgetting,,,,,,0.0-0.0-77.0,-1.0,"[77, 90]",,,-1,1000.0,,,,,112291,0.0,,practice_ITI_fixation,77,poldrack-single-stim,
78,,,,,,500.0,,,,,,,,stop_signal_with_directed_forgetting,,,,,,0.0-0.0-78.0,-1.0,none,,,-1,500.0,"<div class = fb_box><div class = center-text><font size = 20>Correct!</font></div></div><div class = prompt_box><p class = center-block-text style = ""font-size:16px; line-height:80%%;"">Please respond if the probe was in the memory set.</p><p class = center-block-text style = ""font-size:16px; line-height:80%%;"">In memory set: M Key</p><p class = center-block-text style = ""font-size:16px; line-height:80%%;"">Not in memory set: Z Key</p><p class = center-block-text style = ""font-size:16px; line-height:80%%;"">Do not respond if a star appears around the probe!</p></div>",,,,112797,0.0,,practice-stop-feedback,78,poldrack-single-stim,
79,,,,,,500.0,,,,,,,,stop_signal_with_directed_forgetting,,,,,,0.0-0.0-79.0,-1.0,none,,,-1,500.0,"<div class = centerbox><div class = fixation><span style=""color:white"">+</span></div></div>",,,,113301,0.0,,practice_fixation,79,poldrack-single-stim,
80,,,,,,2000.0,,,,,,,,stop_signal_with_directed_forgetting,,,,,,0.0-0.0-80.0,-1.0,none,,,-1,2000.0,"<div class = bigbox><div class = topLeft><div class = cue-text><img class = center src=""/static/experiments/stop_signal_with_directed_forgetting/images/T.png""></img></div></div><div class = topMiddle><div class = cue-text></div></div><div class = topRight><div class = cue-text><img class = center src=""/static/experiments/stop_signal_with_directed_forgetting/images/N.png""></img></div></div><div class = bottomLeft><div class = cue-text><img class = center src=""/static/experiments/stop_signal_with_directed_forgetting/images/F.png""></img></div></div><div class = bottomMiddle><div class = cue-text></div></div><div class = bottomRight><div class = cue-text><img class = center src=""/static/experiments/stop_signal_with_directed_forgetting/images/P.png""></img></div></div></div>",,,,115305,0.0,,practice_stim,80,poldrack-single-stim,
81,,,,,,1000.0,,,,,,,,stop_signal_with_directed_forgetting,,,,,,0.0-0.0-81.0,-1.0,[],,,-1,1000.0,"<div class = bigbox><div class = centerbox><div class = cue-text><img class = center src=""/static/experiments/stop_signal_with_directed_forgetting/images/TOP.png""></img></font></div></div></div>",,,,116307,0.0,,practice_cue,81,poldrack-single-stim,
82,,,,,,2000.0,,,,,,,,stop_signal_with_directed_forgetting,,,,,,0.0-0.0-82.0,-1.0,none,,,-1,2000.0,"<div class = centerbox><div class = fixation><span style=""color:white"">+</span></div></div>",,,,118310,0.0,,practice_fixation,82,poldrack-single-stim,
83,350.0,500.0,"<div class = bigbox><div class = starbox><img class = center src=""/static/experiments/stop_signal_with_directed_forgetting/images/stopSignal.png""></img></div></div>",go,,1000.0,"['F', 'P']",90.0,1.0,TOP,0.0,12.0,neg,stop_signal_with_directed_forgetting,,,,,,0.0-0.0-83.0,90.0,"[77, 90]",T,,515,1000.0,"<div class = bigbox><div class = centerbox><div class = cue-text><img class = center src=""/static/experiments/stop_signal_with_directed_forgetting/images/T.png""></img></font></div></div></div>",,go,,119314,0.0,"['T', 'N']",practice_trial,83,stop-signal,
84,,,,,,1000.0,,,,,,,,stop_signal_with_directed_forgetting,,,,,,0.0-0.0-84.0,-1.0,"[77, 90]",,,-1,1000.0,,,,,120315,0.0,,practice_ITI_fixation,84,poldrack-single-stim,
85,,,,,,500.0,,,,,,,,stop_signal_with_directed_forgetting,,,,,,0.0-0.0-85.0,-1.0,none,,,-1,500.0,"<div class = fb_box><div class = center-text><font size = 20>Correct!</font></div></div><div class = prompt_box><p class = center-block-text style = ""font-size:16px; line-height:80%%;"">Please respond if the probe was in the memory set.</p><p class = center-block-text style = ""font-size:16px; line-height:80%%;"">In memory set: M Key</p><p class = center-block-text style = ""font-size:16px; line-height:80%%;"">Not in memory set: Z Key</p><p class = center-block-text style = ""font-size:16px; line-height:80%%;"">Do not respond if a star appears around the probe!</p></div>",,,,120819,0.0,,practice-stop-feedback,85,poldrack-single-stim,
86,,,,,,1709.0,,,,,,,,stop_signal_with_directed_forgetting,,,,,,0.0-1.0,13.0,[13],,,1709,1709.0,<div class = bigbox><div class = picture_box><p class = block-text><br>Please take this time to read your feedback and to take a short break! Press enter to continue</p><p class = block-text>Done with this practice. Press Enter to continue.</p></div></div>,,,,122547,0.0,,feedback_block,86,poldrack-single-stim,
87,,,,,,4366.0,,,,,,,,stop_signal_with_directed_forgetting,,,,,,0.0-2.0,13.0,,,,4366,,,,,"<div class = centerbox><p class = block-text>We will now start the test portion</p><p class = block-text>In this experiment you will be presented with 4 letters on each trial. You must memorize all 4 letters.</p> <p class = block-text>There will be a short delay, then you will see a cue, either <i>TOP</i> or <i>BOT</i>. This will instruct you to <i>FORGET</i> the 2 letters located at either the top or bottom (respectively) of the screen. The 2 remaining letters that you must remember are called your <i>MEMORY SET</i>. Please forget the letters not in the memory set.</p><p class = block-text>So for example, if you get the cue TOP, please forget the top 2 letters and remember the bottom 2 letters.</p><p class = block-text>After a short delay, you will be presented with a probe.  Please indicate whether this probe was in your memory set.</p><p class = block-text>Press the <i>M Key </i>if the probe was in the memory set, and the <i>Z Key  </i>if not.</p><p class = block-text>On some trials, you will see a star appear with or shortly after the probe. Do not respond if you see a star.  Do not slow down your response to the probe in order to wait for the star.</p><p class = block-text>You will no longer receive the rule prompt, so remember the instructions before you continue. Press Enter to begin.</p></div>",126915,1000.0,,instruction,87,poldrack-text,
88,,,,,,461.0,,,,,,,,stop_signal_with_directed_forgetting,,,,,,0.0-3.0-0.0,13.0,[13],,,461,461.0,<div class = bigbox><div class = picture_box><p class = block-text>We will now start the test portion. Press enter to begin.</p></div></div>,,,,128378,0.0,,feedback_block,88,poldrack-single-stim,
89,,,,,,500.0,,,,,,,,stop_signal_with_directed_forgetting,,,,,,0.0-3.0-1.0,-1.0,none,,,-1,500.0,"<div class = centerbox><div class = fixation><span style=""color:white"">+</span></div></div>",,,,128880,0.0,,fixation,89,poldrack-single-stim,
90,,,,,,2000.0,,,,,,,,stop_signal_with_directed_forgetting,,,,,,0.0-3.0-2.0,-1.0,none,,,-1,2000.0,"<div class = bigbox><div class = topLeft><div class = cue-text><img class = center src=""/static/experiments/stop_signal_with_directed_forgetting/images/S.png""></img></div></div><div class = topMiddle><div class = cue-text></div></div><div class = topRight><div class = cue-text><img class = center src=""/static/experiments/stop_signal_with_directed_forgetting/images/O.png""></img></div></div><div class = bottomLeft><div class = cue-text><img class = center src=""/static/experiments/stop_signal_with_directed_forgetting/images/F.png""></img></div></div><div class = bottomMiddle><div class = cue-text></div></div><div class = bottomRight><div class = cue-text><img class = center src=""/static/experiments/stop_signal_with_directed_forgetting/images/X.png""></img></div></div></div>",,,,130886,0.0,,stim,90,poldrack-single-stim,
91,,,,,,1000.0,,,,,,,,stop_signal_with_directed_forgetting,,,,,,0.0-3.0-3.0,-1.0,[],,,-1,1000.0,"<div class = bigbox><div class = centerbox><div class = cue-text><img class = center src=""/static/experiments/stop_signal_with_directed_forgetting/images/BOT.png""></img></font></div></div></div>",,,,131891,0.0,,cue,91,poldrack-single-stim,
92,,,,,,2000.0,,,,,,,,stop_signal_with_directed_forgetting,,,,,,0.0-3.0-4.0,-1.0,none,,,-1,2000.0,"<div class = centerbox><div class = fixation><span style=""color:white"">+</span></div></div>",,,,133895,0.0,,fixation,92,poldrack-single-stim,
93,350.0,500.0,"<div class = bigbox><div class = starbox><img class = center src=""/static/experiments/stop_signal_with_directed_forgetting/images/stopSignal.png""></img></div></div>",go,,1000.0,"['F', 'X']",90.0,1.0,BOT,0.0,1.0,con,stop_signal_with_directed_forgetting,,,,,,0.0-3.0-5.0,90.0,"[77, 90]",C,,529,1000.0,"<div class = bigbox><div class = centerbox><div class = cue-text><img class = center src=""/static/experiments/stop_signal_with_directed_forgetting/images/C.png""></img></font></div></div></div>",,go,,134901,0.0,"['S', 'O']",test_trial,93,stop-signal,
94,,,,,,1000.0,,,,,,,,stop_signal_with_directed_forgetting,,,,,,0.0-3.0-6.0,-1.0,"[77, 90]",,,-1,1000.0,,,,,135906,0.0,,ITI_fixation,94,poldrack-single-stim,
95,,,,,,500.0,,,,,,,,stop_signal_with_directed_forgetting,,,,,,0.0-3.0-7.0,-1.0,none,,,-1,500.0,"<div class = centerbox><div class = fixation><span style=""color:white"">+</span></div></div>",,,,136411,0.0,,fixation,95,poldrack-single-stim,
96,,,,,,2000.0,,,,,,,,stop_signal_with_directed_forgetting,,,,,,0.0-3.0-8.0,-1.0,none,,,-1,2000.0,"<div class = bigbox><div class = topLeft><div class = cue-text><img class = center src=""/static/experiments/stop_signal_with_directed_forgetting/images/E.png""></img></div></div><div class = topMiddle><div class = cue-text></div></div><div class = topRight><div class = cue-text><img class = center src=""/static/experiments/stop_signal_with_directed_forgetting/images/A.png""></img></div></div><div class = bottomLeft><div class = cue-text><img class = center src=""/static/experiments/stop_signal_with_directed_forgetting/images/B.png""></img></div></div><div class = bottomMiddle><div class = cue-text></div></div><div class = bottomRight><div class = cue-text><img class = center src=""/static/experiments/stop_signal_with_directed_forgetting/images/Q.png""></img></div></div></div>",,,,138416,0.0,,stim,96,poldrack-single-stim,
97,,,,,,1000.0,,,,,,,,stop_signal_with_directed_forgetting,,,,,,0.0-3.0-9.0,-1.0,[],,,-1,1000.0,"<div class = bigbox><div class = centerbox><div class = cue-text><img class = center src=""/static/experiments/stop_signal_with_directed_forgetting/images/TOP.png""></img></font></div></div></div>",,,,139422,0.0,,cue,97,poldrack-single-stim,
98,,,,,,2000.0,,,,,,,,stop_signal_with_directed_forgetting,,,,,,0.0-3.0-10.0,-1.0,none,,,-1,2000.0,"<div class = centerbox><div class = fixation><span style=""color:white"">+</span></div></div>",,,,141426,0.0,,fixation,98,poldrack-single-stim,
99,350.0,500.0,"<div class = bigbox><div class = starbox><img class = center src=""/static/experiments/stop_signal_with_directed_forgetting/images/stopSignal.png""></img></div></div>",stop,,1000.0,"['B', 'Q']",-1.0,0.0,TOP,0.0,2.0,pos,stop_signal_with_directed_forgetting,,,,,,0.0-3.0-11.0,90.0,"[77, 90]",B,,639,1000.0,"<div class = bigbox><div class = centerbox><div class = cue-text><img class = center src=""/static/experiments/stop_signal_with_directed_forgetting/images/B.png""></img></font></div></div></div>",0.0,stop,,142431,0.0,"['E', 'A']",test_trial,99,stop-signal,
100,,,,,,1000.0,,,,,,,,stop_signal_with_directed_forgetting,,,,,,0.0-3.0-12.0,-1.0,"[77, 90]",,,-1,1000.0,,,,,143436,0.0,,ITI_fixation,100,poldrack-single-stim,
101,,,,,,500.0,,,,,,,,stop_signal_with_directed_forgetting,,,,,,0.0-3.0-13.0,-1.0,none,,,-1,500.0,"<div class = centerbox><div class = fixation><span style=""color:white"">+</span></div></div>",,,,143940,0.0,,fixation,101,poldrack-single-stim,
102,,,,,,2000.0,,,,,,,,stop_signal_with_directed_forgetting,,,,,,0.0-3.0-14.0,-1.0,none,,,-1,2000.0,"<div class = bigbox><div class = topLeft><div class = cue-text><img class = center src=""/static/experiments/stop_signal_with_directed_forgetting/images/M.png""></img></div></div><div class = topMiddle><div class = cue-text></div></div><div class = topRight><div class = cue-text><img class = center src=""/static/experiments/stop_signal_with_directed_forgetting/images/R.png""></img></div></div><div class = bottomLeft><div class = cue-text><img class = center src=""/static/experiments/stop_signal_with_directed_forgetting/images/N.png""></img></div></div><div class = bottomMiddle><div class = cue-text></div></div><div class = bottomRight><div class = cue-text><img class = center src=""/static/experiments/stop_signal_with_directed_forgetting/images/U.png""></img></div></div></div>",,,,145945,0.0,,stim,102,poldrack-single-stim,
103,,,,,,1000.0,,,,,,,,stop_signal_with_directed_forgetting,,,,,,0.0-3.0-15.0,-1.0,[],,,-1,1000.0,"<div class = bigbox><div class = centerbox><div class = cue-text><img class = center src=""/static/experiments/stop_signal_with_directed_forgetting/images/BOT.png""></img></font></div></div></div>",,,,146951,0.0,,cue,103,poldrack-single-stim,
104,,,,,,2000.0,,,,,,,,stop_signal_with_directed_forgetting,,,,,,0.0-3.0-16.0,-1.0,none,,,-1,2000.0,"<div class = centerbox><div class = fixation><span style=""color:white"">+</span></div></div>",,,,148957,0.0,,fixation,104,poldrack-single-stim,
105,300.0,500.0,"<div class = bigbox><div class = starbox><img class = center src=""/static/experiments/stop_signal_with_directed_forgetting/images/stopSignal.png""></img></div></div>",stop,,1000.0,"['N', 'U']",-1.0,0.0,BOT,0.0,3.0,pos,stop_signal_with_directed_forgetting,,,,,,0.0-3.0-17.0,77.0,"[77, 90]",R,,717,1000.0,"<div class = bigbox><div class = centerbox><div class = cue-text><img class = center src=""/static/experiments/stop_signal_with_directed_forgetting/images/R.png""></img></font></div></div></div>",0.0,stop,,149962,0.0,"['M', 'R']",test_trial,105,stop-signal,
106,,,,,,1000.0,,,,,,,,stop_signal_with_directed_forgetting,,,,,,0.0-3.0-18.0,-1.0,"[77, 90]",,,-1,1000.0,,,,,150966,0.0,,ITI_fixation,106,poldrack-single-stim,
107,,,,,,500.0,,,,,,,,stop_signal_with_directed_forgetting,,,,,,0.0-3.0-19.0,-1.0,none,,,-1,500.0,"<div class = centerbox><div class = fixation><span style=""color:white"">+</span></div></div>",,,,151470,0.0,,fixation,107,poldrack-single-stim,
108,,,,,,2000.0,,,,,,,,stop_signal_with_directed_forgetting,,,,,,0.0-3.0-20.0,-1.0,none,,,-1,2000.0,"<div class = bigbox><div class = topLeft><div class = cue-text><img class = center src=""/static/experiments/stop_signal_with_directed_forgetting/images/J.png""></img></div></div><div class = topMiddle><div class = cue-text></div></div><div class = topRight><div class = cue-text><img class = center src=""/static/experiments/stop_signal_with_directed_forgetting/images/V.png""></img></div></div><div class = bottomLeft><div class = cue-text><img class = center src=""/static/experiments/stop_signal_with_directed_forgetting/images/T.png""></img></div></div><div class = bottomMiddle><div class = cue-text></div></div><div class = bottomRight><div class = cue-text><img class = center src=""/static/experiments/stop_signal_with_directed_forgetting/images/D.png""></img></div></div></div>",,,,153475,0.0,,stim,108,poldrack-single-stim,
109,,,,,,1000.0,,,,,,,,stop_signal_with_directed_forgetting,,,,,,0.0-3.0-21.0,-1.0,[],,,-1,1000.0,"<div class = bigbox><div class = centerbox><div class = cue-text><img class = center src=""/static/experiments/stop_signal_with_directed_forgetting/images/TOP.png""></img></font></div></div></div>",,,,154479,0.0,,cue,109,poldrack-single-stim,
110,,,,,,2000.0,,,,,,,,stop_signal_with_directed_forgetting,,,,,,0.0-3.0-22.0,-1.0,none,,,-1,2000.0,"<div class = centerbox><div class = fixation><span style=""color:white"">+</span></div></div>",,,,156484,0.0,,fixation,110,poldrack-single-stim,
111,250.0,500.0,"<div class = bigbox><div class = starbox><img class = center src=""/static/experiments/stop_signal_with_directed_forgetting/images/stopSignal.png""></img></div></div>",stop,,1000.0,"['T', 'D']",-1.0,1.0,TOP,0.0,4.0,neg,stop_signal_with_directed_forgetting,,,,,,0.0-3.0-23.0,-1.0,"[77, 90]",J,,-1,1000.0,"<div class = bigbox><div class = centerbox><div class = cue-text><img class = center src=""/static/experiments/stop_signal_with_directed_forgetting/images/J.png""></img></font></div></div></div>",1.0,stop,,157489,0.0,"['J', 'V']",test_trial,111,stop-signal,
112,,,,,,1000.0,,,,,,,,stop_signal_with_directed_forgetting,,,,,,0.0-3.0-24.0,-1.0,"[77, 90]",,,-1,1000.0,,,,,158494,0.0,,ITI_fixation,112,poldrack-single-stim,
113,,,,,,500.0,,,,,,,,stop_signal_with_directed_forgetting,,,,,,0.0-3.0-25.0,-1.0,none,,,-1,500.0,"<div class = centerbox><div class = fixation><span style=""color:white"">+</span></div></div>",,,,158999,0.0,,fixation,113,poldrack-single-stim,
114,,,,,,2000.0,,,,,,,,stop_signal_with_directed_forgetting,,,,,,0.0-3.0-26.0,-1.0,none,,,-1,2000.0,"<div class = bigbox><div class = topLeft><div class = cue-text><img class = center src=""/static/experiments/stop_signal_with_directed_forgetting/images/P.png""></img></div></div><div class = topMiddle><div class = cue-text></div></div><div class = topRight><div class = cue-text><img class = center src=""/static/experiments/stop_signal_with_directed_forgetting/images/B.png""></img></div></div><div class = bottomLeft><div class = cue-text><img class = center src=""/static/experiments/stop_signal_with_directed_forgetting/images/G.png""></img></div></div><div class = bottomMiddle><div class = cue-text></div></div><div class = bottomRight><div class = cue-text><img class = center src=""/static/experiments/stop_signal_with_directed_forgetting/images/F.png""></img></div></div></div>",,,,161004,0.0,,stim,114,poldrack-single-stim,
115,,,,,,1000.0,,,,,,,,stop_signal_with_directed_forgetting,,,,,,0.0-3.0-27.0,-1.0,[],,,-1,1000.0,"<div class = bigbox><div class = centerbox><div class = cue-text><img class = center src=""/static/experiments/stop_signal_with_directed_forgetting/images/BOT.png""></img></font></div></div></div>",,,,162008,0.0,,cue,115,poldrack-single-stim,
116,,,,,,2000.0,,,,,,,,stop_signal_with_directed_forgetting,,,,,,0.0-3.0-28.0,-1.0,none,,,-1,2000.0,"<div class = centerbox><div class = fixation><span style=""color:white"">+</span></div></div>",,,,164013,0.0,,fixation,116,poldrack-single-stim,
117,300.0,500.0,"<div class = bigbox><div class = starbox><img class = center src=""/static/experiments/stop_signal_with_directed_forgetting/images/stopSignal.png""></img></div></div>",stop,,1000.0,"['G', 'F']",-1.0,1.0,BOT,0.0,5.0,neg,stop_signal_with_directed_forgetting,,,,,,0.0-3.0-29.0,-1.0,"[77, 90]",G,,-1,1000.0,"<div class = bigbox><div class = centerbox><div class = cue-text><img class = center src=""/static/experiments/stop_signal_with_directed_forgetting/images/G.png""></img></font></div></div></div>",1.0,stop,,165018,0.0,"['P', 'B']",test_trial,117,stop-signal,
118,,,,,,1000.0,,,,,,,,stop_signal_with_directed_forgetting,,,,,,0.0-3.0-30.0,-1.0,"[77, 90]",,,-1,1000.0,,,,,166021,0.0,,ITI_fixation,118,poldrack-single-stim,
119,,,,,,500.0,,,,,,,,stop_signal_with_directed_forgetting,,,,,,0.0-3.0-31.0,-1.0,none,,,-1,500.0,"<div class = centerbox><div class = fixation><span style=""color:white"">+</span></div></div>",,,,166526,0.0,,fixation,119,poldrack-single-stim,
120,,,,,,2000.0,,,,,,,,stop_signal_with_directed_forgetting,,,,,,0.0-3.0-32.0,-1.0,none,,,-1,2000.0,"<div class = bigbox><div class = topLeft><div class = cue-text><img class = center src=""/static/experiments/stop_signal_with_directed_forgetting/images/W.png""></img></div></div><div class = topMiddle><div class = cue-text></div></div><div class = topRight><div class = cue-text><img class = center src=""/static/experiments/stop_signal_with_directed_forgetting/images/H.png""></img></div></div><div class = bottomLeft><div class = cue-text><img class = center src=""/static/experiments/stop_signal_with_directed_forgetting/images/Z.png""></img></div></div><div class = bottomMiddle><div class = cue-text></div></div><div class = bottomRight><div class = cue-text><img class = center src=""/static/experiments/stop_signal_with_directed_forgetting/images/K.png""></img></div></div></div>",,,,168530,0.0,,stim,120,poldrack-single-stim,
121,,,,,,1000.0,,,,,,,,stop_signal_with_directed_forgetting,,,,,,0.0-3.0-33.0,-1.0,[],,,-1,1000.0,"<div class = bigbox><div class = centerbox><div class = cue-text><img class = center src=""/static/experiments/stop_signal_with_directed_forgetting/images/BOT.png""></img></font></div></div></div>",,,,169534,0.0,,cue,121,poldrack-single-stim,
122,,,,,,2000.0,,,,,,,,stop_signal_with_directed_forgetting,,,,,,0.0-3.0-34.0,-1.0,none,,,-1,2000.0,"<div class = centerbox><div class = fixation><span style=""color:white"">+</span></div></div>",,,,171538,0.0,,fixation,122,poldrack-single-stim,
123,350.0,500.0,"<div class = bigbox><div class = starbox><img class = center src=""/static/experiments/stop_signal_with_directed_forgetting/images/stopSignal.png""></img></div></div>",go,,1000.0,"['Z', 'K']",77.0,1.0,BOT,0.0,6.0,pos,stop_signal_with_directed_forgetting,,,,,,0.0-3.0-35.0,77.0,"[77, 90]",W,,874,1000.0,"<div class = bigbox><div class = centerbox><div class = cue-text><img class = center src=""/static/experiments/stop_signal_with_directed_forgetting/images/W.png""></img></font></div></div></div>",,go,,172541,0.0,"['W', 'H']",test_trial,123,stop-signal,
124,,,,,,1000.0,,,,,,,,stop_signal_with_directed_forgetting,,,,,,0.0-3.0-36.0,-1.0,"[77, 90]",,,-1,1000.0,,,,,173544,0.0,,ITI_fixation,124,poldrack-single-stim,
125,,,,,,500.0,,,,,,,,stop_signal_with_directed_forgetting,,,,,,0.0-3.0-37.0,-1.0,none,,,-1,500.0,"<div class = centerbox><div class = fixation><span style=""color:white"">+</span></div></div>",,,,174048,0.0,,fixation,125,poldrack-single-stim,
126,,,,,,2000.0,,,,,,,,stop_signal_with_directed_forgetting,,,,,,0.0-3.0-38.0,-1.0,none,,,-1,2000.0,"<div class = bigbox><div class = topLeft><div class = cue-text><img class = center src=""/static/experiments/stop_signal_with_directed_forgetting/images/I.png""></img></div></div><div class = topMiddle><div class = cue-text></div></div><div class = topRight><div class = cue-text><img class = center src=""/static/experiments/stop_signal_with_directed_forgetting/images/A.png""></img></div></div><div class = bottomLeft><div class = cue-text><img class = center src=""/static/experiments/stop_signal_with_directed_forgetting/images/D.png""></img></div></div><div class = bottomMiddle><div class = cue-text></div></div><div class = bottomRight><div class = cue-text><img class = center src=""/static/experiments/stop_signal_with_directed_forgetting/images/E.png""></img></div></div></div>",,,,176053,0.0,,stim,126,poldrack-single-stim,
127,,,,,,1000.0,,,,,,,,stop_signal_with_directed_forgetting,,,,,,0.0-3.0-39.0,-1.0,[],,,-1,1000.0,"<div class = bigbox><div class = centerbox><div class = cue-text><img class = center src=""/static/experiments/stop_signal_with_directed_forgetting/images/TOP.png""></img></font></div></div></div>",,,,177057,0.0,,cue,127,poldrack-single-stim,
128,,,,,,2000.0,,,,,,,,stop_signal_with_directed_forgetting,,,,,,0.0-3.0-40.0,-1.0,none,,,-1,2000.0,"<div class = centerbox><div class = fixation><span style=""color:white"">+</span></div></div>",,,,179061,0.0,,fixation,128,poldrack-single-stim,
129,350.0,500.0,"<div class = bigbox><div class = starbox><img class = center src=""/static/experiments/stop_signal_with_directed_forgetting/images/stopSignal.png""></img></div></div>",go,,1000.0,"['D', 'E']",77.0,1.0,TOP,0.0,7.0,pos,stop_signal_with_directed_forgetting,,,,,,0.0-3.0-41.0,77.0,"[77, 90]",E,,493,1000.0,"<div class = bigbox><div class = centerbox><div class = cue-text><img class = center src=""/static/experiments/stop_signal_with_directed_forgetting/images/E.png""></img></font></div></div></div>",,go,,180064,0.0,"['I', 'A']",test_trial,129,stop-signal,
130,,,,,,1000.0,,,,,,,,stop_signal_with_directed_forgetting,,,,,,0.0-3.0-42.0,-1.0,"[77, 90]",,,-1,1000.0,,,,,181068,0.0,,ITI_fixation,130,poldrack-single-stim,
131,,,,,,500.0,,,,,,,,stop_signal_with_directed_forgetting,,,,,,0.0-3.0-43.0,-1.0,none,,,-1,500.0,"<div class = centerbox><div class = fixation><span style=""color:white"">+</span></div></div>",,,,181572,0.0,,fixation,131,poldrack-single-stim,
132,,,,,,2000.0,,,,,,,,stop_signal_with_directed_forgetting,,,,,,0.0-3.0-44.0,-1.0,none,,,-1,2000.0,"<div class = bigbox><div class = topLeft><div class = cue-text><img class = center src=""/static/experiments/stop_signal_with_directed_forgetting/images/S.png""></img></div></div><div class = topMiddle><div class = cue-text></div></div><div class = topRight><div class = cue-text><img class = center src=""/static/experiments/stop_signal_with_directed_forgetting/images/G.png""></img></div></div><div class = bottomLeft><div class = cue-text><img class = center src=""/static/experiments/stop_signal_with_directed_forgetting/images/Q.png""></img></div></div><div class = bottomMiddle><div class = cue-text></div></div><div class = bottomRight><div class = cue-text><img class = center src=""/static/experiments/stop_signal_with_directed_forgetting/images/M.png""></img></div></div></div>",,,,183575,0.0,,stim,132,poldrack-single-stim,
133,,,,,,1000.0,,,,,,,,stop_signal_with_directed_forgetting,,,,,,0.0-3.0-45.0,-1.0,[],,,-1,1000.0,"<div class = bigbox><div class = centerbox><div class = cue-text><img class = center src=""/static/experiments/stop_signal_with_directed_forgetting/images/BOT.png""></img></font></div></div></div>",,,,184579,0.0,,cue,133,poldrack-single-stim,
134,,,,,,2000.0,,,,,,,,stop_signal_with_directed_forgetting,,,,,,0.0-3.0-46.0,-1.0,none,,,-1,2000.0,"<div class = centerbox><div class = fixation><span style=""color:white"">+</span></div></div>",,,,186584,0.0,,fixation,134,poldrack-single-stim,
135,350.0,500.0,"<div class = bigbox><div class = starbox><img class = center src=""/static/experiments/stop_signal_with_directed_forgetting/images/stopSignal.png""></img></div></div>",go,,1000.0,"['Q', 'M']",90.0,1.0,BOT,0.0,8.0,con,stop_signal_with_directed_forgetting,,,,,,0.0-3.0-47.0,90.0,"[77, 90]",C,,642,1000.0,"<div class = bigbox><div class = centerbox><div class = cue-text><img class = center src=""/static/experiments/stop_signal_with_directed_forgetting/images/C.png""></img></font></div></div></div>",,go,,187588,0.0,"['S', 'G']",test_trial,135,stop-signal,
136,,,,,,1000.0,,,,,,,,stop_signal_with_directed_forgetting,,,,,,0.0-3.0-48.0,-1.0,"[77, 90]",,,-1,1000.0,,,,,188593,0.0,,ITI_fixation,136,poldrack-single-stim,
137,,,,,,500.0,,,,,,,,stop_signal_with_directed_forgetting,,,,,,0.0-3.0-49.0,-1.0,none,,,-1,500.0,"<div class = centerbox><div class = fixation><span style=""color:white"">+</span></div></div>",,,,189098,0.0,,fixation,137,poldrack-single-stim,
138,,,,,,2000.0,,,,,,,,stop_signal_with_directed_forgetting,,,,,,0.0-3.0-50.0,-1.0,none,,,-1,2000.0,"<div class = bigbox><div class = topLeft><div class = cue-text><img class = center src=""/static/experiments/stop_signal_with_directed_forgetting/images/K.png""></img></div></div><div class = topMiddle><div class = cue-text></div></div><div class = topRight><div class = cue-text><img class = center src=""/static/experiments/stop_signal_with_directed_forgetting/images/J.png""></img></div></div><div class = bottomLeft><div class = cue-text><img class = center src=""/static/experiments/stop_signal_with_directed_forgetting/images/T.png""></img></div></div><div class = bottomMiddle><div class = cue-text></div></div><div class = bottomRight><div class = cue-text><img class = center src=""/static/experiments/stop_signal_with_directed_forgetting/images/X.png""></img></div></div></div>",,,,191102,0.0,,stim,138,poldrack-single-stim,
139,,,,,,1000.0,,,,,,,,stop_signal_with_directed_forgetting,,,,,,0.0-3.0-51.0,-1.0,[],,,-1,1000.0,"<div class = bigbox><div class = centerbox><div class = cue-text><img class = center src=""/static/experiments/stop_signal_with_directed_forgetting/images/TOP.png""></img></font></div></div></div>",,,,192106,0.0,,cue,139,poldrack-single-stim,
140,,,,,,2000.0,,,,,,,,stop_signal_with_directed_forgetting,,,,,,0.0-3.0-52.0,-1.0,none,,,-1,2000.0,"<div class = centerbox><div class = fixation><span style=""color:white"">+</span></div></div>",,,,194111,0.0,,fixation,140,poldrack-single-stim,
141,350.0,500.0,"<div class = bigbox><div class = starbox><img class = center src=""/static/experiments/stop_signal_with_directed_forgetting/images/stopSignal.png""></img></div></div>",go,,1000.0,"['T', 'X']",90.0,1.0,TOP,0.0,9.0,con,stop_signal_with_directed_forgetting,,,,,,0.0-3.0-53.0,90.0,"[77, 90]",M,,642,1000.0,"<div class = bigbox><div class = centerbox><div class = cue-text><img class = center src=""/static/experiments/stop_signal_with_directed_forgetting/images/M.png""></img></font></div></div></div>",,go,,195115,0.0,"['K', 'J']",test_trial,141,stop-signal,
142,,,,,,1000.0,,,,,,,,stop_signal_with_directed_forgetting,,,,,,0.0-3.0-54.0,-1.0,"[77, 90]",,,-1,1000.0,,,,,196120,0.0,,ITI_fixation,142,poldrack-single-stim,
143,,,,,,500.0,,,,,,,,stop_signal_with_directed_forgetting,,,,,,0.0-3.0-55.0,-1.0,none,,,-1,500.0,"<div class = centerbox><div class = fixation><span style=""color:white"">+</span></div></div>",,,,196623,0.0,,fixation,143,poldrack-single-stim,
144,,,,,,2000.0,,,,,,,,stop_signal_with_directed_forgetting,,,,,,0.0-3.0-56.0,-1.0,none,,,-1,2000.0,"<div class = bigbox><div class = topLeft><div class = cue-text><img class = center src=""/static/experiments/stop_signal_with_directed_forgetting/images/Y.png""></img></div></div><div class = topMiddle><div class = cue-text></div></div><div class = topRight><div class = cue-text><img class = center src=""/static/experiments/stop_signal_with_directed_forgetting/images/V.png""></img></div></div><div class = bottomLeft><div class = cue-text><img class = center src=""/static/experiments/stop_signal_with_directed_forgetting/images/C.png""></img></div></div><div class = bottomMiddle><div class = cue-text></div></div><div class = bottomRight><div class = cue-text><img class = center src=""/static/experiments/stop_signal_with_directed_forgetting/images/P.png""></img></div></div></div>",,,,198629,0.0,,stim,144,poldrack-single-stim,
145,,,,,,1000.0,,,,,,,,stop_signal_with_directed_forgetting,,,,,,0.0-3.0-57.0,-1.0,[],,,-1,1000.0,"<div class = bigbox><div class = centerbox><div class = cue-text><img class = center src=""/static/experiments/stop_signal_with_directed_forgetting/images/BOT.png""></img></font></div></div></div>",,,,199633,0.0,,cue,145,poldrack-single-stim,
146,,,,,,2000.0,,,,,,,,stop_signal_with_directed_forgetting,,,,,,0.0-3.0-58.0,-1.0,none,,,-1,2000.0,"<div class = centerbox><div class = fixation><span style=""color:white"">+</span></div></div>",,,,201637,0.0,,fixation,146,poldrack-single-stim,
147,350.0,500.0,"<div class = bigbox><div class = starbox><img class = center src=""/static/experiments/stop_signal_with_directed_forgetting/images/stopSignal.png""></img></div></div>",go,,1000.0,"['C', 'P']",77.0,1.0,BOT,0.0,10.0,pos,stop_signal_with_directed_forgetting,,,,,,0.0-3.0-59.0,77.0,"[77, 90]",V,,638,1000.0,"<div class = bigbox><div class = centerbox><div class = cue-text><img class = center src=""/static/experiments/stop_signal_with_directed_forgetting/images/V.png""></img></font></div></div></div>",,go,,202642,0.0,"['Y', 'V']",test_trial,147,stop-signal,
148,,,,,,1000.0,,,,,,,,stop_signal_with_directed_forgetting,,,,,,0.0-3.0-60.0,-1.0,"[77, 90]",,,-1,1000.0,,,,,203647,0.0,,ITI_fixation,148,poldrack-single-stim,
149,,,,,,500.0,,,,,,,,stop_signal_with_directed_forgetting,,,,,,0.0-3.0-61.0,-1.0,none,,,-1,500.0,"<div class = centerbox><div class = fixation><span style=""color:white"">+</span></div></div>",,,,204151,0.0,,fixation,149,poldrack-single-stim,
150,,,,,,2000.0,,,,,,,,stop_signal_with_directed_forgetting,,,,,,0.0-3.0-62.0,-1.0,none,,,-1,2000.0,"<div class = bigbox><div class = topLeft><div class = cue-text><img class = center src=""/static/experiments/stop_signal_with_directed_forgetting/images/G.png""></img></div></div><div class = topMiddle><div class = cue-text></div></div><div class = topRight><div class = cue-text><img class = center src=""/static/experiments/stop_signal_with_directed_forgetting/images/E.png""></img></div></div><div class = bottomLeft><div class = cue-text><img class = center src=""/static/experiments/stop_signal_with_directed_forgetting/images/N.png""></img></div></div><div class = bottomMiddle><div class = cue-text></div></div><div class = bottomRight><div class = cue-text><img class = center src=""/static/experiments/stop_signal_with_directed_forgetting/images/O.png""></img></div></div></div>",,,,206155,0.0,,stim,150,poldrack-single-stim,
151,,,,,,1000.0,,,,,,,,stop_signal_with_directed_forgetting,,,,,,0.0-3.0-63.0,-1.0,[],,,-1,1000.0,"<div class = bigbox><div class = centerbox><div class = cue-text><img class = center src=""/static/experiments/stop_signal_with_directed_forgetting/images/TOP.png""></img></font></div></div></div>",,,,207159,0.0,,cue,151,poldrack-single-stim,
152,,,,,,2000.0,,,,,,,,stop_signal_with_directed_forgetting,,,,,,0.0-3.0-64.0,-1.0,none,,,-1,2000.0,"<div class = centerbox><div class = fixation><span style=""color:white"">+</span></div></div>",,,,209163,0.0,,fixation,152,poldrack-single-stim,
153,350.0,500.0,"<div class = bigbox><div class = starbox><img class = center src=""/static/experiments/stop_signal_with_directed_forgetting/images/stopSignal.png""></img></div></div>",go,,1000.0,"['N', 'O']",90.0,1.0,TOP,0.0,11.0,neg,stop_signal_with_directed_forgetting,,,,,,0.0-3.0-65.0,90.0,"[77, 90]",E,,709,1000.0,"<div class = bigbox><div class = centerbox><div class = cue-text><img class = center src=""/static/experiments/stop_signal_with_directed_forgetting/images/E.png""></img></font></div></div></div>",,go,,210167,0.0,"['G', 'E']",test_trial,153,stop-signal,
154,,,,,,1000.0,,,,,,,,stop_signal_with_directed_forgetting,,,,,,0.0-3.0-66.0,-1.0,"[77, 90]",,,-1,1000.0,,,,,211172,0.0,,ITI_fixation,154,poldrack-single-stim,
155,,,,,,500.0,,,,,,,,stop_signal_with_directed_forgetting,,,,,,0.0-3.0-67.0,-1.0,none,,,-1,500.0,"<div class = centerbox><div class = fixation><span style=""color:white"">+</span></div></div>",,,,211677,0.0,,fixation,155,poldrack-single-stim,
156,,,,,,2000.0,,,,,,,,stop_signal_with_directed_forgetting,,,,,,0.0-3.0-68.0,-1.0,none,,,-1,2000.0,"<div class = bigbox><div class = topLeft><div class = cue-text><img class = center src=""/static/experiments/stop_signal_with_directed_forgetting/images/Z.png""></img></div></div><div class = topMiddle><div class = cue-text></div></div><div class = topRight><div class = cue-text><img class = center src=""/static/experiments/stop_signal_with_directed_forgetting/images/S.png""></img></div></div><div class = bottomLeft><div class = cue-text><img class = center src=""/static/experiments/stop_signal_with_directed_forgetting/images/F.png""></img></div></div><div class = bottomMiddle><div class = cue-text></div></div><div class = bottomRight><div class = cue-text><img class = center src=""/static/experiments/stop_signal_with_directed_forgetting/images/H.png""></img></div></div></div>",,,,213683,0.0,,stim,156,poldrack-single-stim,
157,,,,,,1000.0,,,,,,,,stop_signal_with_directed_forgetting,,,,,,0.0-3.0-69.0,-1.0,[],,,-1,1000.0,"<div class = bigbox><div class = centerbox><div class = cue-text><img class = center src=""/static/experiments/stop_signal_with_directed_forgetting/images/TOP.png""></img></font></div></div></div>",,,,214687,0.0,,cue,157,poldrack-single-stim,
158,,,,,,2000.0,,,,,,,,stop_signal_with_directed_forgetting,,,,,,0.0-3.0-70.0,-1.0,none,,,-1,2000.0,"<div class = centerbox><div class = fixation><span style=""color:white"">+</span></div></div>",,,,216696,0.0,,fixation,158,poldrack-single-stim,
159,350.0,500.0,"<div class = bigbox><div class = starbox><img class = center src=""/static/experiments/stop_signal_with_directed_forgetting/images/stopSignal.png""></img></div></div>",go,,1000.0,"['F', 'H']",77.0,1.0,TOP,0.0,12.0,pos,stop_signal_with_directed_forgetting,,,,,,0.0-3.0-71.0,77.0,"[77, 90]",F,,691,1000.0,"<div class = bigbox><div class = centerbox><div class = cue-text><img class = center src=""/static/experiments/stop_signal_with_directed_forgetting/images/F.png""></img></font></div></div></div>",,go,,217700,0.0,"['Z', 'S']",test_trial,159,stop-signal,
160,,,,,,1000.0,,,,,,,,stop_signal_with_directed_forgetting,,,,,,0.0-3.0-72.0,-1.0,"[77, 90]",,,-1,1000.0,,,,,218704,0.0,,ITI_fixation,160,poldrack-single-stim,
161,,,,,,500.0,,,,,,,,stop_signal_with_directed_forgetting,,,,,,0.0-3.0-73.0,-1.0,none,,,-1,500.0,"<div class = centerbox><div class = fixation><span style=""color:white"">+</span></div></div>",,,,219208,0.0,,fixation,161,poldrack-single-stim,
162,,,,,,2000.0,,,,,,,,stop_signal_with_directed_forgetting,,,,,,0.0-3.0-74.0,-1.0,none,,,-1,2000.0,"<div class = bigbox><div class = topLeft><div class = cue-text><img class = center src=""/static/experiments/stop_signal_with_directed_forgetting/images/A.png""></img></div></div><div class = topMiddle><div class = cue-text></div></div><div class = topRight><div class = cue-text><img class = center src=""/static/experiments/stop_signal_with_directed_forgetting/images/V.png""></img></div></div><div class = bottomLeft><div class = cue-text><img class = center src=""/static/experiments/stop_signal_with_directed_forgetting/images/U.png""></img></div></div><div class = bottomMiddle><div class = cue-text></div></div><div class = bottomRight><div class = cue-text><img class = center src=""/static/experiments/stop_signal_with_directed_forgetting/images/Y.png""></img></div></div></div>",,,,221213,0.0,,stim,162,poldrack-single-stim,
163,,,,,,1000.0,,,,,,,,stop_signal_with_directed_forgetting,,,,,,0.0-3.0-75.0,-1.0,[],,,-1,1000.0,"<div class = bigbox><div class = centerbox><div class = cue-text><img class = center src=""/static/experiments/stop_signal_with_directed_forgetting/images/BOT.png""></img></font></div></div></div>",,,,222218,0.0,,cue,163,poldrack-single-stim,
164,,,,,,2000.0,,,,,,,,stop_signal_with_directed_forgetting,,,,,,0.0-3.0-76.0,-1.0,none,,,-1,2000.0,"<div class = centerbox><div class = fixation><span style=""color:white"">+</span></div></div>",,,,224221,0.0,,fixation,164,poldrack-single-stim,
165,350.0,500.0,"<div class = bigbox><div class = starbox><img class = center src=""/static/experiments/stop_signal_with_directed_forgetting/images/stopSignal.png""></img></div></div>",go,,1000.0,"['U', 'Y']",77.0,1.0,BOT,0.0,13.0,pos,stop_signal_with_directed_forgetting,,,,,,0.0-3.0-77.0,77.0,"[77, 90]",A,,751,1000.0,"<div class = bigbox><div class = centerbox><div class = cue-text><img class = center src=""/static/experiments/stop_signal_with_directed_forgetting/images/A.png""></img></font></div></div></div>",,go,,225223,0.0,"['A', 'V']",test_trial,165,stop-signal,
166,,,,,,1000.0,,,,,,,,stop_signal_with_directed_forgetting,,,,,,0.0-3.0-78.0,-1.0,"[77, 90]",,,-1,1000.0,,,,,226227,0.0,,ITI_fixation,166,poldrack-single-stim,
167,,,,,,500.0,,,,,,,,stop_signal_with_directed_forgetting,,,,,,0.0-3.0-79.0,-1.0,none,,,-1,500.0,"<div class = centerbox><div class = fixation><span style=""color:white"">+</span></div></div>",,,,226731,0.0,,fixation,167,poldrack-single-stim,
168,,,,,,2000.0,,,,,,,,stop_signal_with_directed_forgetting,,,,,,0.0-3.0-80.0,-1.0,none,,,-1,2000.0,"<div class = bigbox><div class = topLeft><div class = cue-text><img class = center src=""/static/experiments/stop_signal_with_directed_forgetting/images/P.png""></img></div></div><div class = topMiddle><div class = cue-text></div></div><div class = topRight><div class = cue-text><img class = center src=""/static/experiments/stop_signal_with_directed_forgetting/images/L.png""></img></div></div><div class = bottomLeft><div class = cue-text><img class = center src=""/static/experiments/stop_signal_with_directed_forgetting/images/G.png""></img></div></div><div class = bottomMiddle><div class = cue-text></div></div><div class = bottomRight><div class = cue-text><img class = center src=""/static/experiments/stop_signal_with_directed_forgetting/images/J.png""></img></div></div></div>",,,,228736,0.0,,stim,168,poldrack-single-stim,
169,,,,,,1000.0,,,,,,,,stop_signal_with_directed_forgetting,,,,,,0.0-3.0-81.0,-1.0,[],,,-1,1000.0,"<div class = bigbox><div class = centerbox><div class = cue-text><img class = center src=""/static/experiments/stop_signal_with_directed_forgetting/images/BOT.png""></img></font></div></div></div>",,,,229740,0.0,,cue,169,poldrack-single-stim,
170,,,,,,2000.0,,,,,,,,stop_signal_with_directed_forgetting,,,,,,0.0-3.0-82.0,-1.0,none,,,-1,2000.0,"<div class = centerbox><div class = fixation><span style=""color:white"">+</span></div></div>",,,,231744,0.0,,fixation,170,poldrack-single-stim,
171,350.0,500.0,"<div class = bigbox><div class = starbox><img class = center src=""/static/experiments/stop_signal_with_directed_forgetting/images/stopSignal.png""></img></div></div>",stop,,1000.0,"['G', 'J']",-1.0,0.0,BOT,0.0,14.0,pos,stop_signal_with_directed_forgetting,,,,,,0.0-3.0-83.0,77.0,"[77, 90]",P,,634,1000.0,"<div class = bigbox><div class = centerbox><div class = cue-text><img class = center src=""/static/experiments/stop_signal_with_directed_forgetting/images/P.png""></img></font></div></div></div>",0.0,stop,,232750,0.0,"['P', 'L']",test_trial,171,stop-signal,
172,,,,,,1000.0,,,,,,,,stop_signal_with_directed_forgetting,,,,,,0.0-3.0-84.0,-1.0,"[77, 90]",,,-1,1000.0,,,,,233758,0.0,,ITI_fixation,172,poldrack-single-stim,
173,,,,,,500.0,,,,,,,,stop_signal_with_directed_forgetting,,,,,,0.0-3.0-85.0,-1.0,none,,,-1,500.0,"<div class = centerbox><div class = fixation><span style=""color:white"">+</span></div></div>",,,,234262,0.0,,fixation,173,poldrack-single-stim,
174,,,,,,2000.0,,,,,,,,stop_signal_with_directed_forgetting,,,,,,0.0-3.0-86.0,-1.0,none,,,-1,2000.0,"<div class = bigbox><div class = topLeft><div class = cue-text><img class = center src=""/static/experiments/stop_signal_with_directed_forgetting/images/Q.png""></img></div></div><div class = topMiddle><div class = cue-text></div></div><div class = topRight><div class = cue-text><img class = center src=""/static/experiments/stop_signal_with_directed_forgetting/images/F.png""></img></div></div><div class = bottomLeft><div class = cue-text><img class = center src=""/static/experiments/stop_signal_with_directed_forgetting/images/O.png""></img></div></div><div class = bottomMiddle><div class = cue-text></div></div><div class = bottomRight><div class = cue-text><img class = center src=""/static/experiments/stop_signal_with_directed_forgetting/images/W.png""></img></div></div></div>",,,,236266,0.0,,stim,174,poldrack-single-stim,
175,,,,,,1000.0,,,,,,,,stop_signal_with_directed_forgetting,,,,,,0.0-3.0-87.0,-1.0,[],,,-1,1000.0,"<div class = bigbox><div class = centerbox><div class = cue-text><img class = center src=""/static/experiments/stop_signal_with_directed_forgetting/images/TOP.png""></img></font></div></div></div>",,,,237270,0.0,,cue,175,poldrack-single-stim,
176,,,,,,2000.0,,,,,,,,stop_signal_with_directed_forgetting,,,,,,0.0-3.0-88.0,-1.0,none,,,-1,2000.0,"<div class = centerbox><div class = fixation><span style=""color:white"">+</span></div></div>",,,,239273,0.0,,fixation,176,poldrack-single-stim,
177,300.0,500.0,"<div class = bigbox><div class = starbox><img class = center src=""/static/experiments/stop_signal_with_directed_forgetting/images/stopSignal.png""></img></div></div>",go,,1000.0,"['O', 'W']",77.0,1.0,TOP,0.0,15.0,pos,stop_signal_with_directed_forgetting,,,,,,0.0-3.0-89.0,77.0,"[77, 90]",O,,664,1000.0,"<div class = bigbox><div class = centerbox><div class = cue-text><img class = center src=""/static/experiments/stop_signal_with_directed_forgetting/images/O.png""></img></font></div></div></div>",,go,,240277,0.0,"['Q', 'F']",test_trial,177,stop-signal,
178,,,,,,1000.0,,,,,,,,stop_signal_with_directed_forgetting,,,,,,0.0-3.0-90.0,-1.0,"[77, 90]",,,-1,1000.0,,,,,241281,0.0,,ITI_fixation,178,poldrack-single-stim,
179,,,,,,500.0,,,,,,,,stop_signal_with_directed_forgetting,,,,,,0.0-3.0-91.0,-1.0,none,,,-1,500.0,"<div class = centerbox><div class = fixation><span style=""color:white"">+</span></div></div>",,,,241784,0.0,,fixation,179,poldrack-single-stim,
180,,,,,,2000.0,,,,,,,,stop_signal_with_directed_forgetting,,,,,,0.0-3.0-92.0,-1.0,none,,,-1,2000.0,"<div class = bigbox><div class = topLeft><div class = cue-text><img class = center src=""/static/experiments/stop_signal_with_directed_forgetting/images/A.png""></img></div></div><div class = topMiddle><div class = cue-text></div></div><div class = topRight><div class = cue-text><img class = center src=""/static/experiments/stop_signal_with_directed_forgetting/images/U.png""></img></div></div><div class = bottomLeft><div class = cue-text><img class = center src=""/static/experiments/stop_signal_with_directed_forgetting/images/V.png""></img></div></div><div class = bottomMiddle><div class = cue-text></div></div><div class = bottomRight><div class = cue-text><img class = center src=""/static/experiments/stop_signal_with_directed_forgetting/images/Z.png""></img></div></div></div>",,,,243787,0.0,,stim,180,poldrack-single-stim,
181,,,,,,1000.0,,,,,,,,stop_signal_with_directed_forgetting,,,,,,0.0-3.0-93.0,-1.0,[],,,-1,1000.0,"<div class = bigbox><div class = centerbox><div class = cue-text><img class = center src=""/static/experiments/stop_signal_with_directed_forgetting/images/BOT.png""></img></font></div></div></div>",,,,244791,0.0,,cue,181,poldrack-single-stim,
182,,,,,,2000.0,,,,,,,,stop_signal_with_directed_forgetting,,,,,,0.0-3.0-94.0,-1.0,none,,,-1,2000.0,"<div class = centerbox><div class = fixation><span style=""color:white"">+</span></div></div>",,,,246795,0.0,,fixation,182,poldrack-single-stim,
183,300.0,500.0,"<div class = bigbox><div class = starbox><img class = center src=""/static/experiments/stop_signal_with_directed_forgetting/images/stopSignal.png""></img></div></div>",go,,1000.0,"['V', 'Z']",90.0,1.0,BOT,0.0,16.0,con,stop_signal_with_directed_forgetting,,,,,,0.0-3.0-95.0,90.0,"[77, 90]",P,,775,1000.0,"<div class = bigbox><div class = centerbox><div class = cue-text><img class = center src=""/static/experiments/stop_signal_with_directed_forgetting/images/P.png""></img></font></div></div></div>",,go,,247799,0.0,"['A', 'U']",test_trial,183,stop-signal,
184,,,,,,1000.0,,,,,,,,stop_signal_with_directed_forgetting,,,,,,0.0-3.0-96.0,-1.0,"[77, 90]",,,-1,1000.0,,,,,248802,0.0,,ITI_fixation,184,poldrack-single-stim,
185,,,,,,500.0,,,,,,,,stop_signal_with_directed_forgetting,,,,,,0.0-3.0-97.0,-1.0,none,,,-1,500.0,"<div class = centerbox><div class = fixation><span style=""color:white"">+</span></div></div>",,,,249306,0.0,,fixation,185,poldrack-single-stim,
186,,,,,,2000.0,,,,,,,,stop_signal_with_directed_forgetting,,,,,,0.0-3.0-98.0,-1.0,none,,,-1,2000.0,"<div class = bigbox><div class = topLeft><div class = cue-text><img class = center src=""/static/experiments/stop_signal_with_directed_forgetting/images/H.png""></img></div></div><div class = topMiddle><div class = cue-text></div></div><div class = topRight><div class = cue-text><img class = center src=""/static/experiments/stop_signal_with_directed_forgetting/images/I.png""></img></div></div><div class = bottomLeft><div class = cue-text><img class = center src=""/static/experiments/stop_signal_with_directed_forgetting/images/J.png""></img></div></div><div class = bottomMiddle><div class = cue-text></div></div><div class = bottomRight><div class = cue-text><img class = center src=""/static/experiments/stop_signal_with_directed_forgetting/images/E.png""></img></div></div></div>",,,,251308,0.0,,stim,186,poldrack-single-stim,
187,,,,,,1000.0,,,,,,,,stop_signal_with_directed_forgetting,,,,,,0.0-3.0-99.0,-1.0,[],,,-1,1000.0,"<div class = bigbox><div class = centerbox><div class = cue-text><img class = center src=""/static/experiments/stop_signal_with_directed_forgetting/images/BOT.png""></img></font></div></div></div>",,,,252311,0.0,,cue,187,poldrack-single-stim,
188,,,,,,2000.0,,,,,,,,stop_signal_with_directed_forgetting,,,,,,0.0-3.0-100.0,-1.0,none,,,-1,2000.0,"<div class = centerbox><div class = fixation><span style=""color:white"">+</span></div></div>",,,,254312,0.0,,fixation,188,poldrack-single-stim,
189,300.0,500.0,"<div class = bigbox><div class = starbox><img class = center src=""/static/experiments/stop_signal_with_directed_forgetting/images/stopSignal.png""></img></div></div>",go,,1000.0,"['J', 'E']",77.0,1.0,BOT,0.0,17.0,pos,stop_signal_with_directed_forgetting,,,,,,0.0-3.0-101.0,77.0,"[77, 90]",I,,570,1000.0,"<div class = bigbox><div class = centerbox><div class = cue-text><img class = center src=""/static/experiments/stop_signal_with_directed_forgetting/images/I.png""></img></font></div></div></div>",,go,,255315,0.0,"['H', 'I']",test_trial,189,stop-signal,
190,,,,,,1000.0,,,,,,,,stop_signal_with_directed_forgetting,,,,,,0.0-3.0-102.0,-1.0,"[77, 90]",,,-1,1000.0,,,,,256318,0.0,,ITI_fixation,190,poldrack-single-stim,
191,,,,,,500.0,,,,,,,,stop_signal_with_directed_forgetting,,,,,,0.0-3.0-103.0,-1.0,none,,,-1,500.0,"<div class = centerbox><div class = fixation><span style=""color:white"">+</span></div></div>",,,,256821,0.0,,fixation,191,poldrack-single-stim,
192,,,,,,2000.0,,,,,,,,stop_signal_with_directed_forgetting,,,,,,0.0-3.0-104.0,-1.0,none,,,-1,2000.0,"<div class = bigbox><div class = topLeft><div class = cue-text><img class = center src=""/static/experiments/stop_signal_with_directed_forgetting/images/F.png""></img></div></div><div class = topMiddle><div class = cue-text></div></div><div class = topRight><div class = cue-text><img class = center src=""/static/experiments/stop_signal_with_directed_forgetting/images/R.png""></img></div></div><div class = bottomLeft><div class = cue-text><img class = center src=""/static/experiments/stop_signal_with_directed_forgetting/images/S.png""></img></div></div><div class = bottomMiddle><div class = cue-text></div></div><div class = bottomRight><div class = cue-text><img class = center src=""/static/experiments/stop_signal_with_directed_forgetting/images/C.png""></img></div></div></div>",,,,258825,0.0,,stim,192,poldrack-single-stim,
193,,,,,,1000.0,,,,,,,,stop_signal_with_directed_forgetting,,,,,,0.0-3.0-105.0,-1.0,[],,,-1,1000.0,"<div class = bigbox><div class = centerbox><div class = cue-text><img class = center src=""/static/experiments/stop_signal_with_directed_forgetting/images/BOT.png""></img></font></div></div></div>",,,,259830,0.0,,cue,193,poldrack-single-stim,
194,,,,,,2000.0,,,,,,,,stop_signal_with_directed_forgetting,,,,,,0.0-3.0-106.0,-1.0,none,,,-1,2000.0,"<div class = centerbox><div class = fixation><span style=""color:white"">+</span></div></div>",,,,261834,0.0,,fixation,194,poldrack-single-stim,
195,300.0,500.0,"<div class = bigbox><div class = starbox><img class = center src=""/static/experiments/stop_signal_with_directed_forgetting/images/stopSignal.png""></img></div></div>",stop,,1000.0,"['S', 'C']",-1.0,0.0,BOT,0.0,18.0,con,stop_signal_with_directed_forgetting,,,,,,0.0-3.0-107.0,90.0,"[77, 90]",B,,560,1000.0,"<div class = bigbox><div class = centerbox><div class = cue-text><img class = center src=""/static/experiments/stop_signal_with_directed_forgetting/images/B.png""></img></font></div></div></div>",0.0,stop,,262839,0.0,"['F', 'R']",test_trial,195,stop-signal,
196,,,,,,1000.0,,,,,,,,stop_signal_with_directed_forgetting,,,,,,0.0-3.0-108.0,-1.0,"[77, 90]",,,-1,1000.0,,,,,263843,0.0,,ITI_fixation,196,poldrack-single-stim,
197,,,,,,500.0,,,,,,,,stop_signal_with_directed_forgetting,,,,,,0.0-3.0-109.0,-1.0,none,,,-1,500.0,"<div class = centerbox><div class = fixation><span style=""color:white"">+</span></div></div>",,,,264347,0.0,,fixation,197,poldrack-single-stim,
198,,,,,,2000.0,,,,,,,,stop_signal_with_directed_forgetting,,,,,,0.0-3.0-110.0,-1.0,none,,,-1,2000.0,"<div class = bigbox><div class = topLeft><div class = cue-text><img class = center src=""/static/experiments/stop_signal_with_directed_forgetting/images/M.png""></img></div></div><div class = topMiddle><div class = cue-text></div></div><div class = topRight><div class = cue-text><img class = center src=""/static/experiments/stop_signal_with_directed_forgetting/images/Z.png""></img></div></div><div class = bottomLeft><div class = cue-text><img class = center src=""/static/experiments/stop_signal_with_directed_forgetting/images/K.png""></img></div></div><div class = bottomMiddle><div class = cue-text></div></div><div class = bottomRight><div class = cue-text><img class = center src=""/static/experiments/stop_signal_with_directed_forgetting/images/D.png""></img></div></div></div>",,,,266349,0.0,,stim,198,poldrack-single-stim,
199,,,,,,1000.0,,,,,,,,stop_signal_with_directed_forgetting,,,,,,0.0-3.0-111.0,-1.0,[],,,-1,1000.0,"<div class = bigbox><div class = centerbox><div class = cue-text><img class = center src=""/static/experiments/stop_signal_with_directed_forgetting/images/BOT.png""></img></font></div></div></div>",,,,267352,0.0,,cue,199,poldrack-single-stim,
200,,,,,,2000.0,,,,,,,,stop_signal_with_directed_forgetting,,,,,,0.0-3.0-112.0,-1.0,none,,,-1,2000.0,"<div class = centerbox><div class = fixation><span style=""color:white"">+</span></div></div>",,,,269354,0.0,,fixation,200,poldrack-single-stim,
201,250.0,500.0,"<div class = bigbox><div class = starbox><img class = center src=""/static/experiments/stop_signal_with_directed_forgetting/images/stopSignal.png""></img></div></div>",go,,1000.0,"['K', 'D']",90.0,1.0,BOT,0.0,19.0,neg,stop_signal_with_directed_forgetting,,,,,,0.0-3.0-113.0,90.0,"[77, 90]",D,,537,1000.0,"<div class = bigbox><div class = centerbox><div class = cue-text><img class = center src=""/static/experiments/stop_signal_with_directed_forgetting/images/D.png""></img></font></div></div></div>",,go,,270357,0.0,"['M', 'Z']",test_trial,201,stop-signal,
202,,,,,,1000.0,,,,,,,,stop_signal_with_directed_forgetting,,,,,,0.0-3.0-114.0,-1.0,"[77, 90]",,,-1,1000.0,,,,,271359,0.0,,ITI_fixation,202,poldrack-single-stim,
203,,,,,,500.0,,,,,,,,stop_signal_with_directed_forgetting,,,,,,0.0-3.0-115.0,-1.0,none,,,-1,500.0,"<div class = centerbox><div class = fixation><span style=""color:white"">+</span></div></div>",,,,271864,0.0,,fixation,203,poldrack-single-stim,
204,,,,,,2000.0,,,,,,,,stop_signal_with_directed_forgetting,,,,,,0.0-3.0-116.0,-1.0,none,,,-1,2000.0,"<div class = bigbox><div class = topLeft><div class = cue-text><img class = center src=""/static/experiments/stop_signal_with_directed_forgetting/images/Y.png""></img></div></div><div class = topMiddle><div class = cue-text></div></div><div class = topRight><div class = cue-text><img class = center src=""/static/experiments/stop_signal_with_directed_forgetting/images/T.png""></img></div></div><div class = bottomLeft><div class = cue-text><img class = center src=""/static/experiments/stop_signal_with_directed_forgetting/images/W.png""></img></div></div><div class = bottomMiddle><div class = cue-text></div></div><div class = bottomRight><div class = cue-text><img class = center src=""/static/experiments/stop_signal_with_directed_forgetting/images/Q.png""></img></div></div></div>",,,,273868,0.0,,stim,204,poldrack-single-stim,
205,,,,,,1000.0,,,,,,,,stop_signal_with_directed_forgetting,,,,,,0.0-3.0-117.0,-1.0,[],,,-1,1000.0,"<div class = bigbox><div class = centerbox><div class = cue-text><img class = center src=""/static/experiments/stop_signal_with_directed_forgetting/images/BOT.png""></img></font></div></div></div>",,,,274873,0.0,,cue,205,poldrack-single-stim,
206,,,,,,2000.0,,,,,,,,stop_signal_with_directed_forgetting,,,,,,0.0-3.0-118.0,-1.0,none,,,-1,2000.0,"<div class = centerbox><div class = fixation><span style=""color:white"">+</span></div></div>",,,,276878,0.0,,fixation,206,poldrack-single-stim,
207,250.0,500.0,"<div class = bigbox><div class = starbox><img class = center src=""/static/experiments/stop_signal_with_directed_forgetting/images/stopSignal.png""></img></div></div>",stop,,1000.0,"['W', 'Q']",-1.0,1.0,BOT,0.0,20.0,pos,stop_signal_with_directed_forgetting,,,,,,0.0-3.0-119.0,-1.0,"[77, 90]",Y,,-1,1000.0,"<div class = bigbox><div class = centerbox><div class = cue-text><img class = center src=""/static/experiments/stop_signal_with_directed_forgetting/images/Y.png""></img></font></div></div></div>",1.0,stop,,277883,0.0,"['Y', 'T']",test_trial,207,stop-signal,
208,,,,,,1000.0,,,,,,,,stop_signal_with_directed_forgetting,,,,,,0.0-3.0-120.0,-1.0,"[77, 90]",,,-1,1000.0,,,,,278886,0.0,,ITI_fixation,208,poldrack-single-stim,
209,,,,,,500.0,,,,,,,,stop_signal_with_directed_forgetting,,,,,,0.0-3.0-121.0,-1.0,none,,,-1,500.0,"<div class = centerbox><div class = fixation><span style=""color:white"">+</span></div></div>",,,,279390,0.0,,fixation,209,poldrack-single-stim,
210,,,,,,2000.0,,,,,,,,stop_signal_with_directed_forgetting,,,,,,0.0-3.0-122.0,-1.0,none,,,-1,2000.0,"<div class = bigbox><div class = topLeft><div class = cue-text><img class = center src=""/static/experiments/stop_signal_with_directed_forgetting/images/V.png""></img></div></div><div class = topMiddle><div class = cue-text></div></div><div class = topRight><div class = cue-text><img class = center src=""/static/experiments/stop_signal_with_directed_forgetting/images/R.png""></img></div></div><div class = bottomLeft><div class = cue-text><img class = center src=""/static/experiments/stop_signal_with_directed_forgetting/images/S.png""></img></div></div><div class = bottomMiddle><div class = cue-text></div></div><div class = bottomRight><div class = cue-text><img class = center src=""/static/experiments/stop_signal_with_directed_forgetting/images/N.png""></img></div></div></div>",,,,281394,0.0,,stim,210,poldrack-single-stim,
211,,,,,,1000.0,,,,,,,,stop_signal_with_directed_forgetting,,,,,,0.0-3.0-123.0,-1.0,[],,,-1,1000.0,"<div class = bigbox><div class = centerbox><div class = cue-text><img class = center src=""/static/experiments/stop_signal_with_directed_forgetting/images/TOP.png""></img></font></div></div></div>",,,,282397,0.0,,cue,211,poldrack-single-stim,
212,,,,,,2000.0,,,,,,,,stop_signal_with_directed_forgetting,,,,,,0.0-3.0-124.0,-1.0,none,,,-1,2000.0,"<div class = centerbox><div class = fixation><span style=""color:white"">+</span></div></div>",,,,284401,0.0,,fixation,212,poldrack-single-stim,
213,300.0,500.0,"<div class = bigbox><div class = starbox><img class = center src=""/static/experiments/stop_signal_with_directed_forgetting/images/stopSignal.png""></img></div></div>",go,,1000.0,"['S', 'N']",77.0,1.0,TOP,0.0,21.0,pos,stop_signal_with_directed_forgetting,,,,,,0.0-3.0-125.0,77.0,"[77, 90]",S,,602,1000.0,"<div class = bigbox><div class = centerbox><div class = cue-text><img class = center src=""/static/experiments/stop_signal_with_directed_forgetting/images/S.png""></img></font></div></div></div>",,go,,285404,0.0,"['V', 'R']",test_trial,213,stop-signal,
214,,,,,,1000.0,,,,,,,,stop_signal_with_directed_forgetting,,,,,,0.0-3.0-126.0,-1.0,"[77, 90]",,,-1,1000.0,,,,,286407,0.0,,ITI_fixation,214,poldrack-single-stim,
215,,,,,,500.0,,,,,,,,stop_signal_with_directed_forgetting,,,,,,0.0-3.0-127.0,-1.0,none,,,-1,500.0,"<div class = centerbox><div class = fixation><span style=""color:white"">+</span></div></div>",,,,286911,0.0,,fixation,215,poldrack-single-stim,
216,,,,,,2000.0,,,,,,,,stop_signal_with_directed_forgetting,,,,,,0.0-3.0-128.0,-1.0,none,,,-1,2000.0,"<div class = bigbox><div class = topLeft><div class = cue-text><img class = center src=""/static/experiments/stop_signal_with_directed_forgetting/images/D.png""></img></div></div><div class = topMiddle><div class = cue-text></div></div><div class = topRight><div class = cue-text><img class = center src=""/static/experiments/stop_signal_with_directed_forgetting/images/U.png""></img></div></div><div class = bottomLeft><div class = cue-text><img class = center src=""/static/experiments/stop_signal_with_directed_forgetting/images/M.png""></img></div></div><div class = bottomMiddle><div class = cue-text></div></div><div class = bottomRight><div class = cue-text><img class = center src=""/static/experiments/stop_signal_with_directed_forgetting/images/F.png""></img></div></div></div>",,,,288916,0.0,,stim,216,poldrack-single-stim,
217,,,,,,1000.0,,,,,,,,stop_signal_with_directed_forgetting,,,,,,0.0-3.0-129.0,-1.0,[],,,-1,1000.0,"<div class = bigbox><div class = centerbox><div class = cue-text><img class = center src=""/static/experiments/stop_signal_with_directed_forgetting/images/TOP.png""></img></font></div></div></div>",,,,289920,0.0,,cue,217,poldrack-single-stim,
218,,,,,,2000.0,,,,,,,,stop_signal_with_directed_forgetting,,,,,,0.0-3.0-130.0,-1.0,none,,,-1,2000.0,"<div class = centerbox><div class = fixation><span style=""color:white"">+</span></div></div>",,,,291925,0.0,,fixation,218,poldrack-single-stim,
219,300.0,500.0,"<div class = bigbox><div class = starbox><img class = center src=""/static/experiments/stop_signal_with_directed_forgetting/images/stopSignal.png""></img></div></div>",go,,1000.0,"['M', 'F']",90.0,1.0,TOP,0.0,22.0,neg,stop_signal_with_directed_forgetting,,,,,,0.0-3.0-131.0,90.0,"[77, 90]",U,,557,1000.0,"<div class = bigbox><div class = centerbox><div class = cue-text><img class = center src=""/static/experiments/stop_signal_with_directed_forgetting/images/U.png""></img></font></div></div></div>",,go,,292929,0.0,"['D', 'U']",test_trial,219,stop-signal,
220,,,,,,1000.0,,,,,,,,stop_signal_with_directed_forgetting,,,,,,0.0-3.0-132.0,-1.0,"[77, 90]",,,-1,1000.0,,,,,293934,0.0,,ITI_fixation,220,poldrack-single-stim,
221,,,,,,500.0,,,,,,,,stop_signal_with_directed_forgetting,,,,,,0.0-3.0-133.0,-1.0,none,,,-1,500.0,"<div class = centerbox><div class = fixation><span style=""color:white"">+</span></div></div>",,,,294439,0.0,,fixation,221,poldrack-single-stim,
222,,,,,,2000.0,,,,,,,,stop_signal_with_directed_forgetting,,,,,,0.0-3.0-134.0,-1.0,none,,,-1,2000.0,"<div class = bigbox><div class = topLeft><div class = cue-text><img class = center src=""/static/experiments/stop_signal_with_directed_forgetting/images/P.png""></img></div></div><div class = topMiddle><div class = cue-text></div></div><div class = topRight><div class = cue-text><img class = center src=""/static/experiments/stop_signal_with_directed_forgetting/images/J.png""></img></div></div><div class = bottomLeft><div class = cue-text><img class = center src=""/static/experiments/stop_signal_with_directed_forgetting/images/H.png""></img></div></div><div class = bottomMiddle><div class = cue-text></div></div><div class = bottomRight><div class = cue-text><img class = center src=""/static/experiments/stop_signal_with_directed_forgetting/images/A.png""></img></div></div></div>",,,,296443,0.0,,stim,222,poldrack-single-stim,
223,,,,,,1000.0,,,,,,,,stop_signal_with_directed_forgetting,,,,,,0.0-3.0-135.0,-1.0,[],,,-1,1000.0,"<div class = bigbox><div class = centerbox><div class = cue-text><img class = center src=""/static/experiments/stop_signal_with_directed_forgetting/images/BOT.png""></img></font></div></div></div>",,,,297448,0.0,,cue,223,poldrack-single-stim,
224,,,,,,2000.0,,,,,,,,stop_signal_with_directed_forgetting,,,,,,0.0-3.0-136.0,-1.0,none,,,-1,2000.0,"<div class = centerbox><div class = fixation><span style=""color:white"">+</span></div></div>",,,,299451,0.0,,fixation,224,poldrack-single-stim,
