,SS_delay,SS_duration,SS_stimulus,SS_trial_type,att_check_percent,block_duration,correct,correct_response,correct_trial,current_block,current_trial,exp_id,final_accuracy,final_avg_rt,final_credit_var,final_missed_percent,final_responses_ok,go_acc,internal_node_id,key_press,possible_responses,responses,rt,stim,stim_duration,stimulus,stop_acc,stop_signal_condition,text,time_elapsed,timing_post_trial,trial_id,trial_index,trial_type,view_history
0,,,,,,1625.0,,,,,,stop_signal_single_task_network,,,,,,,0.0-0.0-0.0,13.0,[13],,1625,,1625.0,"<div class = bigbox><div class = picture_box><p class = block-text><font color=""white"">Welcome to the experiment. This experiment will take about 10 minutes. Press <i>enter</i> to begin.</font></p></div></div>",,,,1636,0.0,practice-no-stop-feedback,0,poldrack-single-stim,
1,,,,,,,,,,,,stop_signal_single_task_network,,,,,,,0.0-0.0-1.0,,,,21703,,,,,,,23346,,instruction,1,poldrack-instructions,"[{""page_index"":0,""viewing_time"":13009},{""page_index"":1,""viewing_time"":6104},{""page_index"":2,""viewing_time"":2588}]"
2,,,,,,500.0,,,,,,stop_signal_single_task_network,,,,,,,0.0-0.0-2.0,-1.0,none,,-1,,500.0,<div class = centerbox><div class = fixation>+</div></div>,,,,23856,0.0,prompt_fixation,2,poldrack-single-stim,
3,350.0,500.0,<img class = center src='/static/experiments/stop_signal_single_task_network/images/stopSignal.png'></img>,stop,,2000.0,,-1.0,1.0,0.0,1.0,stop_signal_single_task_network,,,,,,,0.0-0.0-3.0,-1.0,"[90, 77]",,-1,square,1000.0,<div class = bigbox><div class = centerbox><div class = gng_number><div class = cue-text><img class = center src='/static/experiments/stop_signal_single_task_network/images/square.png'></img></div>,1.0,stop,,25871,0.0,practice_trial,3,stop-signal,
4,,,,,,500.0,,,,,,stop_signal_single_task_network,,,,,,,0.0-0.0-4.0,-1.0,none,,-1,,500.0,"<div class = fb_box><div class = center-text><font size = 20>Correct!</font></div></div><div class = prompt_box><p class = center-block-text style = ""font-size:16px; line-height:80%%;"">circle: Z key</p><p class = center-block-text style = ""font-size:16px; line-height:80%%;"">square: M key</p><p class = center-block-text style = ""font-size:16px; line-height:80%%;"">Do not respond if a star appears!</p></div>",,,,26384,0.0,practice-stop-feedback,4,poldrack-single-stim,
5,,,,,,500.0,,,,,,stop_signal_single_task_network,,,,,,,0.0-0.0-5.0,-1.0,none,,-1,,500.0,<div class = centerbox><div class = fixation>+</div></div>,,,,26897,0.0,prompt_fixation,5,poldrack-single-stim,
6,400.0,500.0,<img class = center src='/static/experiments/stop_signal_single_task_network/images/stopSignal.png'></img>,stop,,2000.0,,-1.0,0.0,0.0,2.0,stop_signal_single_task_network,,,,,,,0.0-0.0-6.0,90.0,"[90, 77]",,513,circle,1000.0,<div class = bigbox><div class = centerbox><div class = gng_number><div class = cue-text><img class = center src='/static/experiments/stop_signal_single_task_network/images/circle.png'></img></div>,0.0,stop,,28904,0.0,practice_trial,6,stop-signal,
7,,,,,,500.0,,,,,,stop_signal_single_task_network,,,,,,,0.0-0.0-7.0,-1.0,none,,-1,,500.0,"<div class = fb_box><div class = center-text><font size = 20>There was a star.</font></div></div><div class = prompt_box><p class = center-block-text style = ""font-size:16px; line-height:80%%;"">circle: Z key</p><p class = center-block-text style = ""font-size:16px; line-height:80%%;"">square: M key</p><p class = center-block-text style = ""font-size:16px; line-height:80%%;"">Do not respond if a star appears!</p></div>",,,,29416,0.0,practice-stop-feedback,7,poldrack-single-stim,
8,,,,,,500.0,,,,,,stop_signal_single_task_network,,,,,,,0.0-0.0-8.0,-1.0,none,,-1,,500.0,<div class = centerbox><div class = fixation>+</div></div>,,,,29927,0.0,prompt_fixation,8,poldrack-single-stim,
9,350.0,500.0,<img class = center src='/static/experiments/stop_signal_single_task_network/images/stopSignal.png'></img>,stop,,2000.0,,-1.0,1.0,0.0,3.0,stop_signal_single_task_network,,,,,,,0.0-0.0-9.0,-1.0,"[90, 77]",,-1,square,1000.0,<div class = bigbox><div class = centerbox><div class = gng_number><div class = cue-text><img class = center src='/static/experiments/stop_signal_single_task_network/images/square.png'></img></div>,1.0,stop,,31938,0.0,practice_trial,9,stop-signal,
10,,,,,,500.0,,,,,,stop_signal_single_task_network,,,,,,,0.0-0.0-10.0,-1.0,none,,-1,,500.0,"<div class = fb_box><div class = center-text><font size = 20>Correct!</font></div></div><div class = prompt_box><p class = center-block-text style = ""font-size:16px; line-height:80%%;"">circle: Z key</p><p class = center-block-text style = ""font-size:16px; line-height:80%%;"">square: M key</p><p class = center-block-text style = ""font-size:16px; line-height:80%%;"">Do not respond if a star appears!</p></div>",,,,32453,0.0,practice-stop-feedback,10,poldrack-single-stim,
11,,,,,,500.0,,,,,,stop_signal_single_task_network,,,,,,,0.0-0.0-11.0,-1.0,none,,-1,,500.0,<div class = centerbox><div class = fixation>+</div></div>,,,,32963,0.0,prompt_fixation,11,poldrack-single-stim,
12,400.0,500.0,<img class = center src='/static/experiments/stop_signal_single_task_network/images/stopSignal.png'></img>,go,,2000.0,,77.0,1.0,0.0,4.0,stop_signal_single_task_network,,,,,,1.0,0.0-0.0-12.0,77.0,"[90, 77]",,543,square,1000.0,<div class = bigbox><div class = centerbox><div class = gng_number><div class = cue-text><img class = center src='/static/experiments/stop_signal_single_task_network/images/square.png'></img></div>,,go,,34975,0.0,practice_trial,12,stop-signal,
13,,,,,,500.0,,,,,,stop_signal_single_task_network,,,,,,,0.0-0.0-13.0,-1.0,none,,-1,,500.0,"<div class = fb_box><div class = center-text><font size = 20>Correct!</font></div></div><div class = prompt_box><p class = center-block-text style = ""font-size:16px; line-height:80%%;"">circle: Z key</p><p class = center-block-text style = ""font-size:16px; line-height:80%%;"">square: M key</p><p class = center-block-text style = ""font-size:16px; line-height:80%%;"">Do not respond if a star appears!</p></div>",,,,35482,0.0,practice-stop-feedback,13,poldrack-single-stim,
14,,,,,,500.0,,,,,,stop_signal_single_task_network,,,,,,,0.0-0.0-14.0,-1.0,none,,-1,,500.0,<div class = centerbox><div class = fixation>+</div></div>,,,,35992,0.0,prompt_fixation,14,poldrack-single-stim,
15,400.0,500.0,<img class = center src='/static/experiments/stop_signal_single_task_network/images/stopSignal.png'></img>,go,,2000.0,,90.0,1.0,0.0,5.0,stop_signal_single_task_network,,,,,,1.0,0.0-0.0-15.0,90.0,"[90, 77]",,585,circle,1000.0,<div class = bigbox><div class = centerbox><div class = gng_number><div class = cue-text><img class = center src='/static/experiments/stop_signal_single_task_network/images/circle.png'></img></div>,,go,,38002,0.0,practice_trial,15,stop-signal,
16,,,,,,500.0,,,,,,stop_signal_single_task_network,,,,,,,0.0-0.0-16.0,-1.0,none,,-1,,500.0,"<div class = fb_box><div class = center-text><font size = 20>Correct!</font></div></div><div class = prompt_box><p class = center-block-text style = ""font-size:16px; line-height:80%%;"">circle: Z key</p><p class = center-block-text style = ""font-size:16px; line-height:80%%;"">square: M key</p><p class = center-block-text style = ""font-size:16px; line-height:80%%;"">Do not respond if a star appears!</p></div>",,,,38513,0.0,practice-stop-feedback,16,poldrack-single-stim,
17,,,,,,500.0,,,,,,stop_signal_single_task_network,,,,,,,0.0-0.0-17.0,-1.0,none,,-1,,500.0,<div class = centerbox><div class = fixation>+</div></div>,,,,39021,0.0,prompt_fixation,17,poldrack-single-stim,
18,400.0,500.0,<img class = center src='/static/experiments/stop_signal_single_task_network/images/stopSignal.png'></img>,go,,2000.0,,90.0,1.0,0.0,6.0,stop_signal_single_task_network,,,,,,1.0,0.0-0.0-18.0,90.0,"[90, 77]",,473,circle,1000.0,<div class = bigbox><div class = centerbox><div class = gng_number><div class = cue-text><img class = center src='/static/experiments/stop_signal_single_task_network/images/circle.png'></img></div>,,go,,41031,0.0,practice_trial,18,stop-signal,
19,,,,,,500.0,,,,,,stop_signal_single_task_network,,,,,,,0.0-0.0-19.0,-1.0,none,,-1,,500.0,"<div class = fb_box><div class = center-text><font size = 20>Correct!</font></div></div><div class = prompt_box><p class = center-block-text style = ""font-size:16px; line-height:80%%;"">circle: Z key</p><p class = center-block-text style = ""font-size:16px; line-height:80%%;"">square: M key</p><p class = center-block-text style = ""font-size:16px; line-height:80%%;"">Do not respond if a star appears!</p></div>",,,,41544,0.0,practice-stop-feedback,19,poldrack-single-stim,
20,,,,,,500.0,,,,,,stop_signal_single_task_network,,,,,,,0.0-0.0-20.0,-1.0,none,,-1,,500.0,<div class = centerbox><div class = fixation>+</div></div>,,,,42053,0.0,prompt_fixation,20,poldrack-single-stim,
21,400.0,500.0,<img class = center src='/static/experiments/stop_signal_single_task_network/images/stopSignal.png'></img>,go,,2000.0,,90.0,1.0,0.0,7.0,stop_signal_single_task_network,,,,,,1.0,0.0-0.0-21.0,90.0,"[90, 77]",,651,circle,1000.0,<div class = bigbox><div class = centerbox><div class = gng_number><div class = cue-text><img class = center src='/static/experiments/stop_signal_single_task_network/images/circle.png'></img></div>,,go,,44062,0.0,practice_trial,21,stop-signal,
22,,,,,,500.0,,,,,,stop_signal_single_task_network,,,,,,,0.0-0.0-22.0,-1.0,none,,-1,,500.0,"<div class = fb_box><div class = center-text><font size = 20>Correct!</font></div></div><div class = prompt_box><p class = center-block-text style = ""font-size:16px; line-height:80%%;"">circle: Z key</p><p class = center-block-text style = ""font-size:16px; line-height:80%%;"">square: M key</p><p class = center-block-text style = ""font-size:16px; line-height:80%%;"">Do not respond if a star appears!</p></div>",,,,44573,0.0,practice-stop-feedback,22,poldrack-single-stim,
23,,,,,,500.0,,,,,,stop_signal_single_task_network,,,,,,,0.0-0.0-23.0,-1.0,none,,-1,,500.0,<div class = centerbox><div class = fixation>+</div></div>,,,,45081,0.0,prompt_fixation,23,poldrack-single-stim,
24,400.0,500.0,<img class = center src='/static/experiments/stop_signal_single_task_network/images/stopSignal.png'></img>,go,,2000.0,,77.0,1.0,0.0,8.0,stop_signal_single_task_network,,,,,,1.0,0.0-0.0-24.0,77.0,"[90, 77]",,592,square,1000.0,<div class = bigbox><div class = centerbox><div class = gng_number><div class = cue-text><img class = center src='/static/experiments/stop_signal_single_task_network/images/square.png'></img></div>,,go,,47091,0.0,practice_trial,24,stop-signal,
25,,,,,,500.0,,,,,,stop_signal_single_task_network,,,,,,,0.0-0.0-25.0,-1.0,none,,-1,,500.0,"<div class = fb_box><div class = center-text><font size = 20>Correct!</font></div></div><div class = prompt_box><p class = center-block-text style = ""font-size:16px; line-height:80%%;"">circle: Z key</p><p class = center-block-text style = ""font-size:16px; line-height:80%%;"">square: M key</p><p class = center-block-text style = ""font-size:16px; line-height:80%%;"">Do not respond if a star appears!</p></div>",,,,47602,0.0,practice-stop-feedback,25,poldrack-single-stim,
26,,,,,,500.0,,,,,,stop_signal_single_task_network,,,,,,,0.0-0.0-26.0,-1.0,none,,-1,,500.0,<div class = centerbox><div class = fixation>+</div></div>,,,,48112,0.0,prompt_fixation,26,poldrack-single-stim,
27,400.0,500.0,<img class = center src='/static/experiments/stop_signal_single_task_network/images/stopSignal.png'></img>,stop,,2000.0,,-1.0,0.0,0.0,9.0,stop_signal_single_task_network,,,,,,,0.0-0.0-27.0,77.0,"[90, 77]",,430,square,1000.0,<div class = bigbox><div class = centerbox><div class = gng_number><div class = cue-text><img class = center src='/static/experiments/stop_signal_single_task_network/images/square.png'></img></div>,0.0,stop,,50122,0.0,practice_trial,27,stop-signal,
28,,,,,,500.0,,,,,,stop_signal_single_task_network,,,,,,,0.0-0.0-28.0,-1.0,none,,-1,,500.0,"<div class = fb_box><div class = center-text><font size = 20>There was a star.</font></div></div><div class = prompt_box><p class = center-block-text style = ""font-size:16px; line-height:80%%;"">circle: Z key</p><p class = center-block-text style = ""font-size:16px; line-height:80%%;"">square: M key</p><p class = center-block-text style = ""font-size:16px; line-height:80%%;"">Do not respond if a star appears!</p></div>",,,,50632,0.0,practice-stop-feedback,28,poldrack-single-stim,
29,,,,,,500.0,,,,,,stop_signal_single_task_network,,,,,,,0.0-0.0-29.0,-1.0,none,,-1,,500.0,<div class = centerbox><div class = fixation>+</div></div>,,,,51144,0.0,prompt_fixation,29,poldrack-single-stim,
30,350.0,500.0,<img class = center src='/static/experiments/stop_signal_single_task_network/images/stopSignal.png'></img>,go,,2000.0,,90.0,1.0,0.0,10.0,stop_signal_single_task_network,,,,,,1.0,0.0-0.0-30.0,90.0,"[90, 77]",,801,circle,1000.0,<div class = bigbox><div class = centerbox><div class = gng_number><div class = cue-text><img class = center src='/static/experiments/stop_signal_single_task_network/images/circle.png'></img></div>,,go,,53153,0.0,practice_trial,30,stop-signal,
31,,,,,,500.0,,,,,,stop_signal_single_task_network,,,,,,,0.0-0.0-31.0,-1.0,none,,-1,,500.0,"<div class = fb_box><div class = center-text><font size = 20>Correct!</font></div></div><div class = prompt_box><p class = center-block-text style = ""font-size:16px; line-height:80%%;"">circle: Z key</p><p class = center-block-text style = ""font-size:16px; line-height:80%%;"">square: M key</p><p class = center-block-text style = ""font-size:16px; line-height:80%%;"">Do not respond if a star appears!</p></div>",,,,53665,0.0,practice-stop-feedback,31,poldrack-single-stim,
32,,,,,,500.0,,,,,,stop_signal_single_task_network,,,,,,,0.0-0.0-32.0,-1.0,none,,-1,,500.0,<div class = centerbox><div class = fixation>+</div></div>,,,,54172,0.0,prompt_fixation,32,poldrack-single-stim,
33,350.0,500.0,<img class = center src='/static/experiments/stop_signal_single_task_network/images/stopSignal.png'></img>,go,,2000.0,,77.0,1.0,0.0,11.0,stop_signal_single_task_network,,,,,,1.0,0.0-0.0-33.0,77.0,"[90, 77]",,601,square,1000.0,<div class = bigbox><div class = centerbox><div class = gng_number><div class = cue-text><img class = center src='/static/experiments/stop_signal_single_task_network/images/square.png'></img></div>,,go,,56178,0.0,practice_trial,33,stop-signal,
34,,,,,,500.0,,,,,,stop_signal_single_task_network,,,,,,,0.0-0.0-34.0,-1.0,none,,-1,,500.0,"<div class = fb_box><div class = center-text><font size = 20>Correct!</font></div></div><div class = prompt_box><p class = center-block-text style = ""font-size:16px; line-height:80%%;"">circle: Z key</p><p class = center-block-text style = ""font-size:16px; line-height:80%%;"">square: M key</p><p class = center-block-text style = ""font-size:16px; line-height:80%%;"">Do not respond if a star appears!</p></div>",,,,56689,0.0,practice-stop-feedback,34,poldrack-single-stim,
35,,,,,,500.0,,,,,,stop_signal_single_task_network,,,,,,,0.0-0.0-35.0,-1.0,none,,-1,,500.0,<div class = centerbox><div class = fixation>+</div></div>,,,,57198,0.0,prompt_fixation,35,poldrack-single-stim,
36,350.0,500.0,<img class = center src='/static/experiments/stop_signal_single_task_network/images/stopSignal.png'></img>,go,,2000.0,,90.0,1.0,0.0,12.0,stop_signal_single_task_network,,,,,,1.0,0.0-0.0-36.0,90.0,"[90, 77]",,435,circle,1000.0,<div class = bigbox><div class = centerbox><div class = gng_number><div class = cue-text><img class = center src='/static/experiments/stop_signal_single_task_network/images/circle.png'></img></div>,,go,,59207,0.0,practice_trial,36,stop-signal,
37,,,,,,500.0,,,,,,stop_signal_single_task_network,,,,,,,0.0-0.0-37.0,-1.0,none,,-1,,500.0,"<div class = fb_box><div class = center-text><font size = 20>Correct!</font></div></div><div class = prompt_box><p class = center-block-text style = ""font-size:16px; line-height:80%%;"">circle: Z key</p><p class = center-block-text style = ""font-size:16px; line-height:80%%;"">square: M key</p><p class = center-block-text style = ""font-size:16px; line-height:80%%;"">Do not respond if a star appears!</p></div>",,,,59718,0.0,practice-stop-feedback,37,poldrack-single-stim,
38,,,,,,500.0,,,,,,stop_signal_single_task_network,,,,,,,0.0-0.0-38.0,-1.0,none,,-1,,500.0,<div class = centerbox><div class = fixation>+</div></div>,,,,60227,0.0,prompt_fixation,38,poldrack-single-stim,
39,350.0,500.0,<img class = center src='/static/experiments/stop_signal_single_task_network/images/stopSignal.png'></img>,stop,,2000.0,,-1.0,1.0,0.0,13.0,stop_signal_single_task_network,,,,,,,0.0-0.0-39.0,-1.0,"[90, 77]",,-1,square,1000.0,<div class = bigbox><div class = centerbox><div class = gng_number><div class = cue-text><img class = center src='/static/experiments/stop_signal_single_task_network/images/square.png'></img></div>,1.0,stop,,62237,0.0,practice_trial,39,stop-signal,
40,,,,,,500.0,,,,,,stop_signal_single_task_network,,,,,,,0.0-0.0-40.0,-1.0,none,,-1,,500.0,"<div class = fb_box><div class = center-text><font size = 20>Correct!</font></div></div><div class = prompt_box><p class = center-block-text style = ""font-size:16px; line-height:80%%;"">circle: Z key</p><p class = center-block-text style = ""font-size:16px; line-height:80%%;"">square: M key</p><p class = center-block-text style = ""font-size:16px; line-height:80%%;"">Do not respond if a star appears!</p></div>",,,,62749,0.0,practice-stop-feedback,40,poldrack-single-stim,
41,,,,,,500.0,,,,,,stop_signal_single_task_network,,,,,,,0.0-0.0-41.0,-1.0,none,,-1,,500.0,<div class = centerbox><div class = fixation>+</div></div>,,,,63256,0.0,prompt_fixation,41,poldrack-single-stim,
42,400.0,500.0,<img class = center src='/static/experiments/stop_signal_single_task_network/images/stopSignal.png'></img>,go,,2000.0,,90.0,1.0,0.0,14.0,stop_signal_single_task_network,,,,,,1.0,0.0-0.0-42.0,90.0,"[90, 77]",,492,circle,1000.0,<div class = bigbox><div class = centerbox><div class = gng_number><div class = cue-text><img class = center src='/static/experiments/stop_signal_single_task_network/images/circle.png'></img></div>,,go,,65265,0.0,practice_trial,42,stop-signal,
43,,,,,,500.0,,,,,,stop_signal_single_task_network,,,,,,,0.0-0.0-43.0,-1.0,none,,-1,,500.0,"<div class = fb_box><div class = center-text><font size = 20>Correct!</font></div></div><div class = prompt_box><p class = center-block-text style = ""font-size:16px; line-height:80%%;"">circle: Z key</p><p class = center-block-text style = ""font-size:16px; line-height:80%%;"">square: M key</p><p class = center-block-text style = ""font-size:16px; line-height:80%%;"">Do not respond if a star appears!</p></div>",,,,65777,0.0,practice-stop-feedback,43,poldrack-single-stim,
44,,,,,,500.0,,,,,,stop_signal_single_task_network,,,,,,,0.0-0.0-44.0,-1.0,none,,-1,,500.0,<div class = centerbox><div class = fixation>+</div></div>,,,,66286,0.0,prompt_fixation,44,poldrack-single-stim,
45,400.0,500.0,<img class = center src='/static/experiments/stop_signal_single_task_network/images/stopSignal.png'></img>,go,,2000.0,,77.0,1.0,0.0,15.0,stop_signal_single_task_network,,,,,,1.0,0.0-0.0-45.0,77.0,"[90, 77]",,688,square,1000.0,<div class = bigbox><div class = centerbox><div class = gng_number><div class = cue-text><img class = center src='/static/experiments/stop_signal_single_task_network/images/square.png'></img></div>,,go,,68294,0.0,practice_trial,45,stop-signal,
46,,,,,,500.0,,,,,,stop_signal_single_task_network,,,,,,,0.0-0.0-46.0,-1.0,none,,-1,,500.0,"<div class = fb_box><div class = center-text><font size = 20>Correct!</font></div></div><div class = prompt_box><p class = center-block-text style = ""font-size:16px; line-height:80%%;"">circle: Z key</p><p class = center-block-text style = ""font-size:16px; line-height:80%%;"">square: M key</p><p class = center-block-text style = ""font-size:16px; line-height:80%%;"">Do not respond if a star appears!</p></div>",,,,68806,0.0,practice-stop-feedback,46,poldrack-single-stim,
47,,,,,,500.0,,,,,,stop_signal_single_task_network,,,,,,,0.0-0.0-47.0,-1.0,none,,-1,,500.0,<div class = centerbox><div class = fixation>+</div></div>,,,,69315,0.0,prompt_fixation,47,poldrack-single-stim,
48,400.0,500.0,<img class = center src='/static/experiments/stop_signal_single_task_network/images/stopSignal.png'></img>,go,,2000.0,,77.0,1.0,0.0,16.0,stop_signal_single_task_network,,,,,,1.0,0.0-0.0-48.0,77.0,"[90, 77]",,495,square,1000.0,<div class = bigbox><div class = centerbox><div class = gng_number><div class = cue-text><img class = center src='/static/experiments/stop_signal_single_task_network/images/square.png'></img></div>,,go,,71324,0.0,practice_trial,48,stop-signal,
49,,,,,,500.0,,,,,,stop_signal_single_task_network,,,,,,,0.0-0.0-49.0,-1.0,none,,-1,,500.0,"<div class = fb_box><div class = center-text><font size = 20>Correct!</font></div></div><div class = prompt_box><p class = center-block-text style = ""font-size:16px; line-height:80%%;"">circle: Z key</p><p class = center-block-text style = ""font-size:16px; line-height:80%%;"">square: M key</p><p class = center-block-text style = ""font-size:16px; line-height:80%%;"">Do not respond if a star appears!</p></div>",,,,71833,0.0,practice-stop-feedback,49,poldrack-single-stim,
50,,,,,,500.0,,,,,,stop_signal_single_task_network,,,,,,,0.0-0.0-50.0,-1.0,none,,-1,,500.0,<div class = centerbox><div class = fixation>+</div></div>,,,,72341,0.0,prompt_fixation,50,poldrack-single-stim,
51,400.0,500.0,<img class = center src='/static/experiments/stop_signal_single_task_network/images/stopSignal.png'></img>,stop,,2000.0,,-1.0,0.0,0.0,17.0,stop_signal_single_task_network,,,,,,,0.0-0.0-51.0,77.0,"[90, 77]",,419,square,1000.0,<div class = bigbox><div class = centerbox><div class = gng_number><div class = cue-text><img class = center src='/static/experiments/stop_signal_single_task_network/images/square.png'></img></div>,0.0,stop,,74347,0.0,practice_trial,51,stop-signal,
52,,,,,,500.0,,,,,,stop_signal_single_task_network,,,,,,,0.0-0.0-52.0,-1.0,none,,-1,,500.0,"<div class = fb_box><div class = center-text><font size = 20>There was a star.</font></div></div><div class = prompt_box><p class = center-block-text style = ""font-size:16px; line-height:80%%;"">circle: Z key</p><p class = center-block-text style = ""font-size:16px; line-height:80%%;"">square: M key</p><p class = center-block-text style = ""font-size:16px; line-height:80%%;"">Do not respond if a star appears!</p></div>",,,,74859,0.0,practice-stop-feedback,52,poldrack-single-stim,
53,,,,,,500.0,,,,,,stop_signal_single_task_network,,,,,,,0.0-0.0-53.0,-1.0,none,,-1,,500.0,<div class = centerbox><div class = fixation>+</div></div>,,,,75367,0.0,prompt_fixation,53,poldrack-single-stim,
54,350.0,500.0,<img class = center src='/static/experiments/stop_signal_single_task_network/images/stopSignal.png'></img>,go,,2000.0,,77.0,1.0,0.0,18.0,stop_signal_single_task_network,,,,,,1.0,0.0-0.0-54.0,77.0,"[90, 77]",,733,square,1000.0,<div class = bigbox><div class = centerbox><div class = gng_number><div class = cue-text><img class = center src='/static/experiments/stop_signal_single_task_network/images/square.png'></img></div>,,go,,77377,0.0,practice_trial,54,stop-signal,
55,,,,,,500.0,,,,,,stop_signal_single_task_network,,,,,,,0.0-0.0-55.0,-1.0,none,,-1,,500.0,"<div class = fb_box><div class = center-text><font size = 20>Correct!</font></div></div><div class = prompt_box><p class = center-block-text style = ""font-size:16px; line-height:80%%;"">circle: Z key</p><p class = center-block-text style = ""font-size:16px; line-height:80%%;"">square: M key</p><p class = center-block-text style = ""font-size:16px; line-height:80%%;"">Do not respond if a star appears!</p></div>",,,,77888,0.0,practice-stop-feedback,55,poldrack-single-stim,
56,,,,,,500.0,,,,,,stop_signal_single_task_network,,,,,,,0.0-0.0-56.0,-1.0,none,,-1,,500.0,<div class = centerbox><div class = fixation>+</div></div>,,,,78395,0.0,prompt_fixation,56,poldrack-single-stim,
57,350.0,500.0,<img class = center src='/static/experiments/stop_signal_single_task_network/images/stopSignal.png'></img>,stop,,2000.0,,-1.0,0.0,0.0,19.0,stop_signal_single_task_network,,,,,,,0.0-0.0-57.0,90.0,"[90, 77]",,446,circle,1000.0,<div class = bigbox><div class = centerbox><div class = gng_number><div class = cue-text><img class = center src='/static/experiments/stop_signal_single_task_network/images/circle.png'></img></div>,0.0,stop,,80404,0.0,practice_trial,57,stop-signal,
58,,,,,,500.0,,,,,,stop_signal_single_task_network,,,,,,,0.0-0.0-58.0,-1.0,none,,-1,,500.0,"<div class = fb_box><div class = center-text><font size = 20>There was a star.</font></div></div><div class = prompt_box><p class = center-block-text style = ""font-size:16px; line-height:80%%;"">circle: Z key</p><p class = center-block-text style = ""font-size:16px; line-height:80%%;"">square: M key</p><p class = center-block-text style = ""font-size:16px; line-height:80%%;"">Do not respond if a star appears!</p></div>",,,,80911,0.0,practice-stop-feedback,58,poldrack-single-stim,
59,,,,,,500.0,,,,,,stop_signal_single_task_network,,,,,,,0.0-0.0-59.0,-1.0,none,,-1,,500.0,<div class = centerbox><div class = fixation>+</div></div>,,,,81420,0.0,prompt_fixation,59,poldrack-single-stim,
60,300.0,500.0,<img class = center src='/static/experiments/stop_signal_single_task_network/images/stopSignal.png'></img>,go,,2000.0,,77.0,1.0,0.0,20.0,stop_signal_single_task_network,,,,,,1.0,0.0-0.0-60.0,77.0,"[90, 77]",,564,square,1000.0,<div class = bigbox><div class = centerbox><div class = gng_number><div class = cue-text><img class = center src='/static/experiments/stop_signal_single_task_network/images/square.png'></img></div>,,go,,83430,0.0,practice_trial,60,stop-signal,
61,,,,,,500.0,,,,,,stop_signal_single_task_network,,,,,,,0.0-0.0-61.0,-1.0,none,,-1,,500.0,"<div class = fb_box><div class = center-text><font size = 20>Correct!</font></div></div><div class = prompt_box><p class = center-block-text style = ""font-size:16px; line-height:80%%;"">circle: Z key</p><p class = center-block-text style = ""font-size:16px; line-height:80%%;"">square: M key</p><p class = center-block-text style = ""font-size:16px; line-height:80%%;"">Do not respond if a star appears!</p></div>",,,,83945,0.0,practice-stop-feedback,61,poldrack-single-stim,
62,,,,,,500.0,,,,,,stop_signal_single_task_network,,,,,,,0.0-0.0-62.0,-1.0,none,,-1,,500.0,<div class = centerbox><div class = fixation>+</div></div>,,,,84452,0.0,prompt_fixation,62,poldrack-single-stim,
63,300.0,500.0,<img class = center src='/static/experiments/stop_signal_single_task_network/images/stopSignal.png'></img>,stop,,2000.0,,-1.0,1.0,0.0,21.0,stop_signal_single_task_network,,,,,,,0.0-0.0-63.0,-1.0,"[90, 77]",,-1,square,1000.0,<div class = bigbox><div class = centerbox><div class = gng_number><div class = cue-text><img class = center src='/static/experiments/stop_signal_single_task_network/images/square.png'></img></div>,1.0,stop,,86461,0.0,practice_trial,63,stop-signal,
64,,,,,,500.0,,,,,,stop_signal_single_task_network,,,,,,,0.0-0.0-64.0,-1.0,none,,-1,,500.0,"<div class = fb_box><div class = center-text><font size = 20>Correct!</font></div></div><div class = prompt_box><p class = center-block-text style = ""font-size:16px; line-height:80%%;"">circle: Z key</p><p class = center-block-text style = ""font-size:16px; line-height:80%%;"">square: M key</p><p class = center-block-text style = ""font-size:16px; line-height:80%%;"">Do not respond if a star appears!</p></div>",,,,86972,0.0,practice-stop-feedback,64,poldrack-single-stim,
65,,,,,,500.0,,,,,,stop_signal_single_task_network,,,,,,,0.0-0.0-65.0,-1.0,none,,-1,,500.0,<div class = centerbox><div class = fixation>+</div></div>,,,,87480,0.0,prompt_fixation,65,poldrack-single-stim,
66,350.0,500.0,<img class = center src='/static/experiments/stop_signal_single_task_network/images/stopSignal.png'></img>,go,,2000.0,,90.0,1.0,0.0,22.0,stop_signal_single_task_network,,,,,,1.0,0.0-0.0-66.0,90.0,"[90, 77]",,495,circle,1000.0,<div class = bigbox><div class = centerbox><div class = gng_number><div class = cue-text><img class = center src='/static/experiments/stop_signal_single_task_network/images/circle.png'></img></div>,,go,,89488,0.0,practice_trial,66,stop-signal,
67,,,,,,500.0,,,,,,stop_signal_single_task_network,,,,,,,0.0-0.0-67.0,-1.0,none,,-1,,500.0,"<div class = fb_box><div class = center-text><font size = 20>Correct!</font></div></div><div class = prompt_box><p class = center-block-text style = ""font-size:16px; line-height:80%%;"">circle: Z key</p><p class = center-block-text style = ""font-size:16px; line-height:80%%;"">square: M key</p><p class = center-block-text style = ""font-size:16px; line-height:80%%;"">Do not respond if a star appears!</p></div>",,,,89993,0.0,practice-stop-feedback,67,poldrack-single-stim,
68,,,,,,500.0,,,,,,stop_signal_single_task_network,,,,,,,0.0-0.0-68.0,-1.0,none,,-1,,500.0,<div class = centerbox><div class = fixation>+</div></div>,,,,90501,0.0,prompt_fixation,68,poldrack-single-stim,
69,350.0,500.0,<img class = center src='/static/experiments/stop_signal_single_task_network/images/stopSignal.png'></img>,stop,,2000.0,,-1.0,1.0,0.0,23.0,stop_signal_single_task_network,,,,,,,0.0-0.0-69.0,-1.0,"[90, 77]",,-1,circle,1000.0,<div class = bigbox><div class = centerbox><div class = gng_number><div class = cue-text><img class = center src='/static/experiments/stop_signal_single_task_network/images/circle.png'></img></div>,1.0,stop,,92510,0.0,practice_trial,69,stop-signal,
70,,,,,,500.0,,,,,,stop_signal_single_task_network,,,,,,,0.0-0.0-70.0,-1.0,none,,-1,,500.0,"<div class = fb_box><div class = center-text><font size = 20>Correct!</font></div></div><div class = prompt_box><p class = center-block-text style = ""font-size:16px; line-height:80%%;"">circle: Z key</p><p class = center-block-text style = ""font-size:16px; line-height:80%%;"">square: M key</p><p class = center-block-text style = ""font-size:16px; line-height:80%%;"">Do not respond if a star appears!</p></div>",,,,93022,0.0,practice-stop-feedback,70,poldrack-single-stim,
71,,,,,,500.0,,,,,,stop_signal_single_task_network,,,,,,,0.0-0.0-71.0,-1.0,none,,-1,,500.0,<div class = centerbox><div class = fixation>+</div></div>,,,,93531,0.0,prompt_fixation,71,poldrack-single-stim,
72,400.0,500.0,<img class = center src='/static/experiments/stop_signal_single_task_network/images/stopSignal.png'></img>,go,,2000.0,,77.0,1.0,0.0,24.0,stop_signal_single_task_network,,,,,,1.0,0.0-0.0-72.0,77.0,"[90, 77]",,468,square,1000.0,<div class = bigbox><div class = centerbox><div class = gng_number><div class = cue-text><img class = center src='/static/experiments/stop_signal_single_task_network/images/square.png'></img></div>,,go,,95543,0.0,practice_trial,72,stop-signal,
73,,,,,,500.0,,,,,,stop_signal_single_task_network,,,,,,,0.0-0.0-73.0,-1.0,none,,-1,,500.0,"<div class = fb_box><div class = center-text><font size = 20>Correct!</font></div></div><div class = prompt_box><p class = center-block-text style = ""font-size:16px; line-height:80%%;"">circle: Z key</p><p class = center-block-text style = ""font-size:16px; line-height:80%%;"">square: M key</p><p class = center-block-text style = ""font-size:16px; line-height:80%%;"">Do not respond if a star appears!</p></div>",,,,96054,0.0,practice-stop-feedback,73,poldrack-single-stim,
74,,,,,,1546.0,,,,,,stop_signal_single_task_network,,,,,,,0.0-1.0,13.0,[13],,1546,,1546.0,"<div class = bigbox><div class = picture_box><p class = block-text><font color=""white""><br>Please take this time to read your feedback and to take a short break. Press enter to continue.</p><p class = block-text>Done with this practice.</font></p></div></div>",,,,97620,0.0,practice-no-stop-feedback,74,poldrack-single-stim,
75,,,,,,2346.0,,,,,,stop_signal_single_task_network,,,,,,,0.0-2.0,13.0,[13],,2346,,2346.0,"<div class = centerbox><p class = block-text>We will now begin the test portion.</p><p class = block-text>You will see a shape on every trial. Please respond to each shape as quickly and accurately as possible!</p><p class = block-text>If the shape is a circle, press the Z key.</p><p class = block-text>If the shape is a square, press the M key.</p><p class = block-text>Do not respond if you see a star.</p><p class = block-text>You will no longer receive the rule prompt, so remember the instructions before you continue. Press Enter to begin.</p></div>",,,,99971,0.0,test_intro,75,poldrack-single-stim,
76,,,,,,2152.0,,,,,,stop_signal_single_task_network,,,,,,,0.0-3.0-0.0,13.0,[13],,2152,,2152.0,"<div class = bigbox><div class = picture_box><p class = block-text><font color=""white"">We will now start the test session. Please concentrate on responding quickly and accurately to each stimulus. Press Enter to begin.</font></p></div></div>",,,,102128,0.0,practice-no-stop-feedback,76,poldrack-single-stim,
77,,,,,,1472.0,True,37.0,,,,stop_signal_single_task_network,,,,,,,0.0-3.0-1.0-0.0,37.0,[],,1472,,1472.0,Press the Left Arrow</p>,,,,103605,200.0,attention_check,77,attention-check,
78,,,,,,500.0,,,,,,stop_signal_single_task_network,,,,,,,0.0-3.0-2.0,-1.0,none,,-1,,500.0,<div class = centerbox><div class = fixation>+</div></div>,,,,104311,0.0,fixation,78,poldrack-single-stim,
79,400.0,500.0,<img class = center src='/static/experiments/stop_signal_single_task_network/images/stopSignal.png'></img>,stop,,2000.0,,-1.0,0.0,0.0,1.0,stop_signal_single_task_network,,,,,,,0.0-3.0-3.0,77.0,"[90, 77]",,441,square,1000.0,<div class = bigbox><div class = centerbox><div class = gng_number><div class = cue-text><img class = center src='/static/experiments/stop_signal_single_task_network/images/square.png'></img></div>,0.0,stop,,106320,0.0,test_trial,79,stop-signal,
80,,,,,,500.0,,,,,,stop_signal_single_task_network,,,,,,,0.0-3.0-4.0,-1.0,none,,-1,,500.0,<div class = centerbox><div class = fixation>+</div></div>,,,,106830,0.0,fixation,80,poldrack-single-stim,
81,350.0,500.0,<img class = center src='/static/experiments/stop_signal_single_task_network/images/stopSignal.png'></img>,go,,2000.0,,77.0,1.0,0.0,2.0,stop_signal_single_task_network,,,,,,1.0,0.0-3.0-5.0,77.0,"[90, 77]",,613,square,1000.0,<div class = bigbox><div class = centerbox><div class = gng_number><div class = cue-text><img class = center src='/static/experiments/stop_signal_single_task_network/images/square.png'></img></div>,,go,,108837,0.0,test_trial,81,stop-signal,
82,,,,,,500.0,,,,,,stop_signal_single_task_network,,,,,,,0.0-3.0-6.0,-1.0,none,,-1,,500.0,<div class = centerbox><div class = fixation>+</div></div>,,,,109346,0.0,fixation,82,poldrack-single-stim,
83,350.0,500.0,<img class = center src='/static/experiments/stop_signal_single_task_network/images/stopSignal.png'></img>,stop,,2000.0,,-1.0,1.0,0.0,3.0,stop_signal_single_task_network,,,,,,,0.0-3.0-7.0,-1.0,"[90, 77]",,-1,square,1000.0,<div class = bigbox><div class = centerbox><div class = gng_number><div class = cue-text><img class = center src='/static/experiments/stop_signal_single_task_network/images/square.png'></img></div>,1.0,stop,,111354,0.0,test_trial,83,stop-signal,
84,,,,,,500.0,,,,,,stop_signal_single_task_network,,,,,,,0.0-3.0-8.0,-1.0,none,,-1,,500.0,<div class = centerbox><div class = fixation>+</div></div>,,,,111864,0.0,fixation,84,poldrack-single-stim,
85,400.0,500.0,<img class = center src='/static/experiments/stop_signal_single_task_network/images/stopSignal.png'></img>,go,,2000.0,,90.0,1.0,0.0,4.0,stop_signal_single_task_network,,,,,,1.0,0.0-3.0-9.0,90.0,"[90, 77]",,562,circle,1000.0,<div class = bigbox><div class = centerbox><div class = gng_number><div class = cue-text><img class = center src='/static/experiments/stop_signal_single_task_network/images/circle.png'></img></div>,,go,,113872,0.0,test_trial,85,stop-signal,
86,,,,,,500.0,,,,,,stop_signal_single_task_network,,,,,,,0.0-3.0-10.0,-1.0,none,,-1,,500.0,<div class = centerbox><div class = fixation>+</div></div>,,,,114383,0.0,fixation,86,poldrack-single-stim,
87,400.0,500.0,<img class = center src='/static/experiments/stop_signal_single_task_network/images/stopSignal.png'></img>,stop,,2000.0,,-1.0,0.0,0.0,5.0,stop_signal_single_task_network,,,,,,,0.0-3.0-11.0,77.0,"[90, 77]",,603,square,1000.0,<div class = bigbox><div class = centerbox><div class = gng_number><div class = cue-text><img class = center src='/static/experiments/stop_signal_single_task_network/images/square.png'></img></div>,0.0,stop,,116391,0.0,test_trial,87,stop-signal,
88,,,,,,500.0,,,,,,stop_signal_single_task_network,,,,,,,0.0-3.0-12.0,-1.0,none,,-1,,500.0,<div class = centerbox><div class = fixation>+</div></div>,,,,116902,0.0,fixation,88,poldrack-single-stim,
89,350.0,500.0,<img class = center src='/static/experiments/stop_signal_single_task_network/images/stopSignal.png'></img>,stop,,2000.0,,-1.0,1.0,0.0,6.0,stop_signal_single_task_network,,,,,,,0.0-3.0-13.0,-1.0,"[90, 77]",,-1,square,1000.0,<div class = bigbox><div class = centerbox><div class = gng_number><div class = cue-text><img class = center src='/static/experiments/stop_signal_single_task_network/images/square.png'></img></div>,1.0,stop,,118916,0.0,test_trial,89,stop-signal,
90,,,,,,500.0,,,,,,stop_signal_single_task_network,,,,,,,0.0-3.0-14.0,-1.0,none,,-1,,500.0,<div class = centerbox><div class = fixation>+</div></div>,,,,119425,0.0,fixation,90,poldrack-single-stim,
91,400.0,500.0,<img class = center src='/static/experiments/stop_signal_single_task_network/images/stopSignal.png'></img>,stop,,2000.0,,-1.0,0.0,0.0,7.0,stop_signal_single_task_network,,,,,,,0.0-3.0-15.0,90.0,"[90, 77]",,524,circle,1000.0,<div class = bigbox><div class = centerbox><div class = gng_number><div class = cue-text><img class = center src='/static/experiments/stop_signal_single_task_network/images/circle.png'></img></div>,0.0,stop,,121433,0.0,test_trial,91,stop-signal,
92,,,,,,500.0,,,,,,stop_signal_single_task_network,,,,,,,0.0-3.0-16.0,-1.0,none,,-1,,500.0,<div class = centerbox><div class = fixation>+</div></div>,,,,121939,0.0,fixation,92,poldrack-single-stim,
93,350.0,500.0,<img class = center src='/static/experiments/stop_signal_single_task_network/images/stopSignal.png'></img>,go,,2000.0,,90.0,1.0,0.0,8.0,stop_signal_single_task_network,,,,,,1.0,0.0-3.0-17.0,90.0,"[90, 77]",,591,circle,1000.0,<div class = bigbox><div class = centerbox><div class = gng_number><div class = cue-text><img class = center src='/static/experiments/stop_signal_single_task_network/images/circle.png'></img></div>,,go,,123946,0.0,test_trial,93,stop-signal,
94,,,,,,500.0,,,,,,stop_signal_single_task_network,,,,,,,0.0-3.0-18.0,-1.0,none,,-1,,500.0,<div class = centerbox><div class = fixation>+</div></div>,,,,124460,0.0,fixation,94,poldrack-single-stim,
95,350.0,500.0,<img class = center src='/static/experiments/stop_signal_single_task_network/images/stopSignal.png'></img>,go,,2000.0,,77.0,1.0,0.0,9.0,stop_signal_single_task_network,,,,,,1.0,0.0-3.0-19.0,77.0,"[90, 77]",,738,square,1000.0,<div class = bigbox><div class = centerbox><div class = gng_number><div class = cue-text><img class = center src='/static/experiments/stop_signal_single_task_network/images/square.png'></img></div>,,go,,126469,0.0,test_trial,95,stop-signal,
96,,,,,,500.0,,,,,,stop_signal_single_task_network,,,,,,,0.0-3.0-20.0,-1.0,none,,-1,,500.0,<div class = centerbox><div class = fixation>+</div></div>,,,,126980,0.0,fixation,96,poldrack-single-stim,
97,350.0,500.0,<img class = center src='/static/experiments/stop_signal_single_task_network/images/stopSignal.png'></img>,stop,,2000.0,,-1.0,1.0,0.0,10.0,stop_signal_single_task_network,,,,,,,0.0-3.0-21.0,-1.0,"[90, 77]",,-1,square,1000.0,<div class = bigbox><div class = centerbox><div class = gng_number><div class = cue-text><img class = center src='/static/experiments/stop_signal_single_task_network/images/square.png'></img></div>,1.0,stop,,128988,0.0,test_trial,97,stop-signal,
98,,,,,,500.0,,,,,,stop_signal_single_task_network,,,,,,,0.0-3.0-22.0,-1.0,none,,-1,,500.0,<div class = centerbox><div class = fixation>+</div></div>,,,,129504,0.0,fixation,98,poldrack-single-stim,
99,400.0,500.0,<img class = center src='/static/experiments/stop_signal_single_task_network/images/stopSignal.png'></img>,go,,2000.0,,77.0,1.0,0.0,11.0,stop_signal_single_task_network,,,,,,1.0,0.0-3.0-23.0,77.0,"[90, 77]",,644,square,1000.0,<div class = bigbox><div class = centerbox><div class = gng_number><div class = cue-text><img class = center src='/static/experiments/stop_signal_single_task_network/images/square.png'></img></div>,,go,,131511,0.0,test_trial,99,stop-signal,
100,,,,,,500.0,,,,,,stop_signal_single_task_network,,,,,,,0.0-3.0-24.0,-1.0,none,,-1,,500.0,<div class = centerbox><div class = fixation>+</div></div>,,,,132017,0.0,fixation,100,poldrack-single-stim,
101,400.0,500.0,<img class = center src='/static/experiments/stop_signal_single_task_network/images/stopSignal.png'></img>,stop,,2000.0,,-1.0,1.0,0.0,12.0,stop_signal_single_task_network,,,,,,,0.0-3.0-25.0,-1.0,"[90, 77]",,-1,circle,1000.0,<div class = bigbox><div class = centerbox><div class = gng_number><div class = cue-text><img class = center src='/static/experiments/stop_signal_single_task_network/images/circle.png'></img></div>,1.0,stop,,134027,0.0,test_trial,101,stop-signal,
102,,,,,,500.0,,,,,,stop_signal_single_task_network,,,,,,,0.0-3.0-26.0,-1.0,none,,-1,,500.0,<div class = centerbox><div class = fixation>+</div></div>,,,,134536,0.0,fixation,102,poldrack-single-stim,
103,450.0,500.0,<img class = center src='/static/experiments/stop_signal_single_task_network/images/stopSignal.png'></img>,stop,,2000.0,,-1.0,0.0,0.0,13.0,stop_signal_single_task_network,,,,,,,0.0-3.0-27.0,90.0,"[90, 77]",,567,circle,1000.0,<div class = bigbox><div class = centerbox><div class = gng_number><div class = cue-text><img class = center src='/static/experiments/stop_signal_single_task_network/images/circle.png'></img></div>,0.0,stop,,136545,0.0,test_trial,103,stop-signal,
104,,,,,,500.0,,,,,,stop_signal_single_task_network,,,,,,,0.0-3.0-28.0,-1.0,none,,-1,,500.0,<div class = centerbox><div class = fixation>+</div></div>,,,,137054,0.0,fixation,104,poldrack-single-stim,
105,400.0,500.0,<img class = center src='/static/experiments/stop_signal_single_task_network/images/stopSignal.png'></img>,go,,2000.0,,90.0,1.0,0.0,14.0,stop_signal_single_task_network,,,,,,1.0,0.0-3.0-29.0,90.0,"[90, 77]",,554,circle,1000.0,<div class = bigbox><div class = centerbox><div class = gng_number><div class = cue-text><img class = center src='/static/experiments/stop_signal_single_task_network/images/circle.png'></img></div>,,go,,139063,0.0,test_trial,105,stop-signal,
106,,,,,,500.0,,,,,,stop_signal_single_task_network,,,,,,,0.0-3.0-30.0,-1.0,none,,-1,,500.0,<div class = centerbox><div class = fixation>+</div></div>,,,,139571,0.0,fixation,106,poldrack-single-stim,
107,400.0,500.0,<img class = center src='/static/experiments/stop_signal_single_task_network/images/stopSignal.png'></img>,stop,,2000.0,,-1.0,1.0,0.0,15.0,stop_signal_single_task_network,,,,,,,0.0-3.0-31.0,-1.0,"[90, 77]",,-1,circle,1000.0,<div class = bigbox><div class = centerbox><div class = gng_number><div class = cue-text><img class = center src='/static/experiments/stop_signal_single_task_network/images/circle.png'></img></div>,1.0,stop,,141577,0.0,test_trial,107,stop-signal,
108,,,,,,500.0,,,,,,stop_signal_single_task_network,,,,,,,0.0-3.0-32.0,-1.0,none,,-1,,500.0,<div class = centerbox><div class = fixation>+</div></div>,,,,142087,0.0,fixation,108,poldrack-single-stim,
109,450.0,500.0,<img class = center src='/static/experiments/stop_signal_single_task_network/images/stopSignal.png'></img>,stop,,2000.0,,-1.0,0.0,0.0,16.0,stop_signal_single_task_network,,,,,,,0.0-3.0-33.0,77.0,"[90, 77]",,672,square,1000.0,<div class = bigbox><div class = centerbox><div class = gng_number><div class = cue-text><img class = center src='/static/experiments/stop_signal_single_task_network/images/square.png'></img></div>,0.0,stop,,144094,0.0,test_trial,109,stop-signal,
110,,,,,,500.0,,,,,,stop_signal_single_task_network,,,,,,,0.0-3.0-34.0,-1.0,none,,-1,,500.0,<div class = centerbox><div class = fixation>+</div></div>,,,,144602,0.0,fixation,110,poldrack-single-stim,
111,400.0,500.0,<img class = center src='/static/experiments/stop_signal_single_task_network/images/stopSignal.png'></img>,go,,2000.0,,90.0,1.0,0.0,17.0,stop_signal_single_task_network,,,,,,1.0,0.0-3.0-35.0,90.0,"[90, 77]",,959,circle,1000.0,<div class = bigbox><div class = centerbox><div class = gng_number><div class = cue-text><img class = center src='/static/experiments/stop_signal_single_task_network/images/circle.png'></img></div>,,go,,146609,0.0,test_trial,111,stop-signal,
112,,,,,,500.0,,,,,,stop_signal_single_task_network,,,,,,,0.0-3.0-36.0,-1.0,none,,-1,,500.0,<div class = centerbox><div class = fixation>+</div></div>,,,,147118,0.0,fixation,112,poldrack-single-stim,
113,400.0,500.0,<img class = center src='/static/experiments/stop_signal_single_task_network/images/stopSignal.png'></img>,go,,2000.0,,77.0,1.0,0.0,18.0,stop_signal_single_task_network,,,,,,1.0,0.0-3.0-37.0,77.0,"[90, 77]",,742,square,1000.0,<div class = bigbox><div class = centerbox><div class = gng_number><div class = cue-text><img class = center src='/static/experiments/stop_signal_single_task_network/images/square.png'></img></div>,,go,,149127,0.0,test_trial,113,stop-signal,
114,,,,,,500.0,,,,,,stop_signal_single_task_network,,,,,,,0.0-3.0-38.0,-1.0,none,,-1,,500.0,<div class = centerbox><div class = fixation>+</div></div>,,,,149635,0.0,fixation,114,poldrack-single-stim,
115,400.0,500.0,<img class = center src='/static/experiments/stop_signal_single_task_network/images/stopSignal.png'></img>,go,,2000.0,,77.0,1.0,0.0,19.0,stop_signal_single_task_network,,,,,,1.0,0.0-3.0-39.0,77.0,"[90, 77]",,813,square,1000.0,<div class = bigbox><div class = centerbox><div class = gng_number><div class = cue-text><img class = center src='/static/experiments/stop_signal_single_task_network/images/square.png'></img></div>,,go,,151642,0.0,test_trial,115,stop-signal,
116,,,,,,500.0,,,,,,stop_signal_single_task_network,,,,,,,0.0-3.0-40.0,-1.0,none,,-1,,500.0,<div class = centerbox><div class = fixation>+</div></div>,,,,152152,0.0,fixation,116,poldrack-single-stim,
117,400.0,500.0,<img class = center src='/static/experiments/stop_signal_single_task_network/images/stopSignal.png'></img>,go,,2000.0,,90.0,1.0,0.0,20.0,stop_signal_single_task_network,,,,,,1.0,0.0-3.0-41.0,90.0,"[90, 77]",,945,circle,1000.0,<div class = bigbox><div class = centerbox><div class = gng_number><div class = cue-text><img class = center src='/static/experiments/stop_signal_single_task_network/images/circle.png'></img></div>,,go,,154159,0.0,test_trial,117,stop-signal,
118,,,,,,500.0,,,,,,stop_signal_single_task_network,,,,,,,0.0-3.0-42.0,-1.0,none,,-1,,500.0,<div class = centerbox><div class = fixation>+</div></div>,,,,154668,0.0,fixation,118,poldrack-single-stim,
119,400.0,500.0,<img class = center src='/static/experiments/stop_signal_single_task_network/images/stopSignal.png'></img>,go,,2000.0,,90.0,1.0,0.0,21.0,stop_signal_single_task_network,,,,,,1.0,0.0-3.0-43.0,90.0,"[90, 77]",,536,circle,1000.0,<div class = bigbox><div class = centerbox><div class = gng_number><div class = cue-text><img class = center src='/static/experiments/stop_signal_single_task_network/images/circle.png'></img></div>,,go,,156675,0.0,test_trial,119,stop-signal,
120,,,,,,500.0,,,,,,stop_signal_single_task_network,,,,,,,0.0-3.0-44.0,-1.0,none,,-1,,500.0,<div class = centerbox><div class = fixation>+</div></div>,,,,157180,0.0,fixation,120,poldrack-single-stim,
121,400.0,500.0,<img class = center src='/static/experiments/stop_signal_single_task_network/images/stopSignal.png'></img>,go,,2000.0,,77.0,1.0,0.0,22.0,stop_signal_single_task_network,,,,,,1.0,0.0-3.0-45.0,77.0,"[90, 77]",,669,square,1000.0,<div class = bigbox><div class = centerbox><div class = gng_number><div class = cue-text><img class = center src='/static/experiments/stop_signal_single_task_network/images/square.png'></img></div>,,go,,159188,0.0,test_trial,121,stop-signal,
122,,,,,,500.0,,,,,,stop_signal_single_task_network,,,,,,,0.0-3.0-46.0,-1.0,none,,-1,,500.0,<div class = centerbox><div class = fixation>+</div></div>,,,,159698,0.0,fixation,122,poldrack-single-stim,
123,400.0,500.0,<img class = center src='/static/experiments/stop_signal_single_task_network/images/stopSignal.png'></img>,go,,2000.0,,90.0,1.0,0.0,23.0,stop_signal_single_task_network,,,,,,1.0,0.0-3.0-47.0,90.0,"[90, 77]",,622,circle,1000.0,<div class = bigbox><div class = centerbox><div class = gng_number><div class = cue-text><img class = center src='/static/experiments/stop_signal_single_task_network/images/circle.png'></img></div>,,go,,161706,0.0,test_trial,123,stop-signal,
124,,,,,,500.0,,,,,,stop_signal_single_task_network,,,,,,,0.0-3.0-48.0,-1.0,none,,-1,,500.0,<div class = centerbox><div class = fixation>+</div></div>,,,,162211,0.0,fixation,124,poldrack-single-stim,
125,400.0,500.0,<img class = center src='/static/experiments/stop_signal_single_task_network/images/stopSignal.png'></img>,go,,2000.0,,77.0,1.0,0.0,24.0,stop_signal_single_task_network,,,,,,1.0,0.0-3.0-49.0,77.0,"[90, 77]",,895,square,1000.0,<div class = bigbox><div class = centerbox><div class = gng_number><div class = cue-text><img class = center src='/static/experiments/stop_signal_single_task_network/images/square.png'></img></div>,,go,,164216,0.0,test_trial,125,stop-signal,
126,,,,,,500.0,,,,,,stop_signal_single_task_network,,,,,,,0.0-3.0-50.0,-1.0,none,,-1,,500.0,<div class = centerbox><div class = fixation>+</div></div>,,,,164725,0.0,fixation,126,poldrack-single-stim,
127,400.0,500.0,<img class = center src='/static/experiments/stop_signal_single_task_network/images/stopSignal.png'></img>,stop,,2000.0,,-1.0,0.0,0.0,25.0,stop_signal_single_task_network,,,,,,,0.0-3.0-51.0,90.0,"[90, 77]",,386,circle,1000.0,<div class = bigbox><div class = centerbox><div class = gng_number><div class = cue-text><img class = center src='/static/experiments/stop_signal_single_task_network/images/circle.png'></img></div>,0.0,stop,,166733,0.0,test_trial,127,stop-signal,
128,,,,,,500.0,,,,,,stop_signal_single_task_network,,,,,,,0.0-3.0-52.0,-1.0,none,,-1,,500.0,<div class = centerbox><div class = fixation>+</div></div>,,,,167240,0.0,fixation,128,poldrack-single-stim,
129,350.0,500.0,<img class = center src='/static/experiments/stop_signal_single_task_network/images/stopSignal.png'></img>,go,,2000.0,,90.0,1.0,0.0,26.0,stop_signal_single_task_network,,,,,,1.0,0.0-3.0-53.0,90.0,"[90, 77]",,710,circle,1000.0,<div class = bigbox><div class = centerbox><div class = gng_number><div class = cue-text><img class = center src='/static/experiments/stop_signal_single_task_network/images/circle.png'></img></div>,,go,,169248,0.0,test_trial,129,stop-signal,
130,,,,,,500.0,,,,,,stop_signal_single_task_network,,,,,,,0.0-3.0-54.0,-1.0,none,,-1,,500.0,<div class = centerbox><div class = fixation>+</div></div>,,,,169755,0.0,fixation,130,poldrack-single-stim,
131,350.0,500.0,<img class = center src='/static/experiments/stop_signal_single_task_network/images/stopSignal.png'></img>,stop,,2000.0,,-1.0,1.0,0.0,27.0,stop_signal_single_task_network,,,,,,,0.0-3.0-55.0,-1.0,"[90, 77]",,-1,circle,1000.0,<div class = bigbox><div class = centerbox><div class = gng_number><div class = cue-text><img class = center src='/static/experiments/stop_signal_single_task_network/images/circle.png'></img></div>,1.0,stop,,171763,0.0,test_trial,131,stop-signal,
132,,,,,,500.0,,,,,,stop_signal_single_task_network,,,,,,,0.0-3.0-56.0,-1.0,none,,-1,,500.0,<div class = centerbox><div class = fixation>+</div></div>,,,,172272,0.0,fixation,132,poldrack-single-stim,
133,400.0,500.0,<img class = center src='/static/experiments/stop_signal_single_task_network/images/stopSignal.png'></img>,go,,2000.0,,90.0,1.0,0.0,28.0,stop_signal_single_task_network,,,,,,1.0,0.0-3.0-57.0,90.0,"[90, 77]",,666,circle,1000.0,<div class = bigbox><div class = centerbox><div class = gng_number><div class = cue-text><img class = center src='/static/experiments/stop_signal_single_task_network/images/circle.png'></img></div>,,go,,174281,0.0,test_trial,133,stop-signal,
134,,,,,,500.0,,,,,,stop_signal_single_task_network,,,,,,,0.0-3.0-58.0,-1.0,none,,-1,,500.0,<div class = centerbox><div class = fixation>+</div></div>,,,,174791,0.0,fixation,134,poldrack-single-stim,
135,400.0,500.0,<img class = center src='/static/experiments/stop_signal_single_task_network/images/stopSignal.png'></img>,go,,2000.0,,77.0,1.0,0.0,29.0,stop_signal_single_task_network,,,,,,1.0,0.0-3.0-59.0,77.0,"[90, 77]",,630,square,1000.0,<div class = bigbox><div class = centerbox><div class = gng_number><div class = cue-text><img class = center src='/static/experiments/stop_signal_single_task_network/images/square.png'></img></div>,,go,,176796,0.0,test_trial,135,stop-signal,
136,,,,,,500.0,,,,,,stop_signal_single_task_network,,,,,,,0.0-3.0-60.0,-1.0,none,,-1,,500.0,<div class = centerbox><div class = fixation>+</div></div>,,,,177306,0.0,fixation,136,poldrack-single-stim,
137,400.0,500.0,<img class = center src='/static/experiments/stop_signal_single_task_network/images/stopSignal.png'></img>,go,,2000.0,,77.0,1.0,0.0,30.0,stop_signal_single_task_network,,,,,,1.0,0.0-3.0-61.0,77.0,"[90, 77]",,683,square,1000.0,<div class = bigbox><div class = centerbox><div class = gng_number><div class = cue-text><img class = center src='/static/experiments/stop_signal_single_task_network/images/square.png'></img></div>,,go,,179313,0.0,test_trial,137,stop-signal,
138,,,,,,500.0,,,,,,stop_signal_single_task_network,,,,,,,0.0-3.0-62.0,-1.0,none,,-1,,500.0,<div class = centerbox><div class = fixation>+</div></div>,,,,179819,0.0,fixation,138,poldrack-single-stim,
139,400.0,500.0,<img class = center src='/static/experiments/stop_signal_single_task_network/images/stopSignal.png'></img>,go,,2000.0,,90.0,1.0,0.0,31.0,stop_signal_single_task_network,,,,,,1.0,0.0-3.0-63.0,90.0,"[90, 77]",,720,circle,1000.0,<div class = bigbox><div class = centerbox><div class = gng_number><div class = cue-text><img class = center src='/static/experiments/stop_signal_single_task_network/images/circle.png'></img></div>,,go,,181827,0.0,test_trial,139,stop-signal,
140,,,,,,500.0,,,,,,stop_signal_single_task_network,,,,,,,0.0-3.0-64.0,-1.0,none,,-1,,500.0,<div class = centerbox><div class = fixation>+</div></div>,,,,182335,0.0,fixation,140,poldrack-single-stim,
141,400.0,500.0,<img class = center src='/static/experiments/stop_signal_single_task_network/images/stopSignal.png'></img>,go,,2000.0,,90.0,1.0,0.0,32.0,stop_signal_single_task_network,,,,,,1.0,0.0-3.0-65.0,90.0,"[90, 77]",,621,circle,1000.0,<div class = bigbox><div class = centerbox><div class = gng_number><div class = cue-text><img class = center src='/static/experiments/stop_signal_single_task_network/images/circle.png'></img></div>,,go,,184344,0.0,test_trial,141,stop-signal,
142,,,,,,500.0,,,,,,stop_signal_single_task_network,,,,,,,0.0-3.0-66.0,-1.0,none,,-1,,500.0,<div class = centerbox><div class = fixation>+</div></div>,,,,184853,0.0,fixation,142,poldrack-single-stim,
143,400.0,500.0,<img class = center src='/static/experiments/stop_signal_single_task_network/images/stopSignal.png'></img>,go,,2000.0,,77.0,1.0,0.0,33.0,stop_signal_single_task_network,,,,,,1.0,0.0-3.0-67.0,77.0,"[90, 77]",,418,square,1000.0,<div class = bigbox><div class = centerbox><div class = gng_number><div class = cue-text><img class = center src='/static/experiments/stop_signal_single_task_network/images/square.png'></img></div>,,go,,186858,0.0,test_trial,143,stop-signal,
144,,,,,,500.0,,,,,,stop_signal_single_task_network,,,,,,,0.0-3.0-68.0,-1.0,none,,-1,,500.0,<div class = centerbox><div class = fixation>+</div></div>,,,,187367,0.0,fixation,144,poldrack-single-stim,
145,400.0,500.0,<img class = center src='/static/experiments/stop_signal_single_task_network/images/stopSignal.png'></img>,go,,2000.0,,77.0,1.0,0.0,34.0,stop_signal_single_task_network,,,,,,1.0,0.0-3.0-69.0,77.0,"[90, 77]",,619,square,1000.0,<div class = bigbox><div class = centerbox><div class = gng_number><div class = cue-text><img class = center src='/static/experiments/stop_signal_single_task_network/images/square.png'></img></div>,,go,,189375,0.0,test_trial,145,stop-signal,
146,,,,,,500.0,,,,,,stop_signal_single_task_network,,,,,,,0.0-3.0-70.0,-1.0,none,,-1,,500.0,<div class = centerbox><div class = fixation>+</div></div>,,,,189880,0.0,fixation,146,poldrack-single-stim,
147,400.0,500.0,<img class = center src='/static/experiments/stop_signal_single_task_network/images/stopSignal.png'></img>,go,,2000.0,,77.0,1.0,0.0,35.0,stop_signal_single_task_network,,,,,,1.0,0.0-3.0-71.0,77.0,"[90, 77]",,628,square,1000.0,<div class = bigbox><div class = centerbox><div class = gng_number><div class = cue-text><img class = center src='/static/experiments/stop_signal_single_task_network/images/square.png'></img></div>,,go,,191889,0.0,test_trial,147,stop-signal,
148,,,,,,500.0,,,,,,stop_signal_single_task_network,,,,,,,0.0-3.0-72.0,-1.0,none,,-1,,500.0,<div class = centerbox><div class = fixation>+</div></div>,,,,192397,0.0,fixation,148,poldrack-single-stim,
149,400.0,500.0,<img class = center src='/static/experiments/stop_signal_single_task_network/images/stopSignal.png'></img>,stop,,2000.0,,-1.0,1.0,0.0,36.0,stop_signal_single_task_network,,,,,,,0.0-3.0-73.0,-1.0,"[90, 77]",,-1,square,1000.0,<div class = bigbox><div class = centerbox><div class = gng_number><div class = cue-text><img class = center src='/static/experiments/stop_signal_single_task_network/images/square.png'></img></div>,1.0,stop,,194406,0.0,test_trial,149,stop-signal,
150,,,,,,500.0,,,,,,stop_signal_single_task_network,,,,,,,0.0-3.0-74.0,-1.0,none,,-1,,500.0,<div class = centerbox><div class = fixation>+</div></div>,,,,194915,0.0,fixation,150,poldrack-single-stim,
151,450.0,500.0,<img class = center src='/static/experiments/stop_signal_single_task_network/images/stopSignal.png'></img>,go,,2000.0,,90.0,1.0,0.0,37.0,stop_signal_single_task_network,,,,,,1.0,0.0-3.0-75.0,90.0,"[90, 77]",,591,circle,1000.0,<div class = bigbox><div class = centerbox><div class = gng_number><div class = cue-text><img class = center src='/static/experiments/stop_signal_single_task_network/images/circle.png'></img></div>,,go,,196922,0.0,test_trial,151,stop-signal,
152,,,,,,500.0,,,,,,stop_signal_single_task_network,,,,,,,0.0-3.0-76.0,-1.0,none,,-1,,500.0,<div class = centerbox><div class = fixation>+</div></div>,,,,197431,0.0,fixation,152,poldrack-single-stim,
153,450.0,500.0,<img class = center src='/static/experiments/stop_signal_single_task_network/images/stopSignal.png'></img>,go,,2000.0,,90.0,1.0,0.0,38.0,stop_signal_single_task_network,,,,,,1.0,0.0-3.0-77.0,90.0,"[90, 77]",,609,circle,1000.0,<div class = bigbox><div class = centerbox><div class = gng_number><div class = cue-text><img class = center src='/static/experiments/stop_signal_single_task_network/images/circle.png'></img></div>,,go,,199437,0.0,test_trial,153,stop-signal,
154,,,,,,500.0,,,,,,stop_signal_single_task_network,,,,,,,0.0-3.0-78.0,-1.0,none,,-1,,500.0,<div class = centerbox><div class = fixation>+</div></div>,,,,199946,0.0,fixation,154,poldrack-single-stim,
155,450.0,500.0,<img class = center src='/static/experiments/stop_signal_single_task_network/images/stopSignal.png'></img>,go,,2000.0,,90.0,1.0,0.0,39.0,stop_signal_single_task_network,,,,,,1.0,0.0-3.0-79.0,90.0,"[90, 77]",,759,circle,1000.0,<div class = bigbox><div class = centerbox><div class = gng_number><div class = cue-text><img class = center src='/static/experiments/stop_signal_single_task_network/images/circle.png'></img></div>,,go,,201953,0.0,test_trial,155,stop-signal,
156,,,,,,500.0,,,,,,stop_signal_single_task_network,,,,,,,0.0-3.0-80.0,-1.0,none,,-1,,500.0,<div class = centerbox><div class = fixation>+</div></div>,,,,202458,0.0,fixation,156,poldrack-single-stim,
157,450.0,500.0,<img class = center src='/static/experiments/stop_signal_single_task_network/images/stopSignal.png'></img>,stop,,2000.0,,-1.0,0.0,0.0,40.0,stop_signal_single_task_network,,,,,,,0.0-3.0-81.0,90.0,"[90, 77]",,622,circle,1000.0,<div class = bigbox><div class = centerbox><div class = gng_number><div class = cue-text><img class = center src='/static/experiments/stop_signal_single_task_network/images/circle.png'></img></div>,0.0,stop,,204467,0.0,test_trial,157,stop-signal,
158,,,,,,500.0,,,,,,stop_signal_single_task_network,,,,,,,0.0-3.0-82.0,-1.0,none,,-1,,500.0,<div class = centerbox><div class = fixation>+</div></div>,,,,204977,0.0,fixation,158,poldrack-single-stim,
159,400.0,500.0,<img class = center src='/static/experiments/stop_signal_single_task_network/images/stopSignal.png'></img>,go,,2000.0,,90.0,1.0,0.0,41.0,stop_signal_single_task_network,,,,,,1.0,0.0-3.0-83.0,90.0,"[90, 77]",,619,circle,1000.0,<div class = bigbox><div class = centerbox><div class = gng_number><div class = cue-text><img class = center src='/static/experiments/stop_signal_single_task_network/images/circle.png'></img></div>,,go,,206984,0.0,test_trial,159,stop-signal,
160,,,,,,500.0,,,,,,stop_signal_single_task_network,,,,,,,0.0-3.0-84.0,-1.0,none,,-1,,500.0,<div class = centerbox><div class = fixation>+</div></div>,,,,207493,0.0,fixation,160,poldrack-single-stim,
161,400.0,500.0,<img class = center src='/static/experiments/stop_signal_single_task_network/images/stopSignal.png'></img>,stop,,2000.0,,-1.0,0.0,0.0,42.0,stop_signal_single_task_network,,,,,,,0.0-3.0-85.0,77.0,"[90, 77]",,536,square,1000.0,<div class = bigbox><div class = centerbox><div class = gng_number><div class = cue-text><img class = center src='/static/experiments/stop_signal_single_task_network/images/square.png'></img></div>,0.0,stop,,209502,0.0,test_trial,161,stop-signal,
162,,,,,,500.0,,,,,,stop_signal_single_task_network,,,,,,,0.0-3.0-86.0,-1.0,none,,-1,,500.0,<div class = centerbox><div class = fixation>+</div></div>,,,,210010,0.0,fixation,162,poldrack-single-stim,
163,350.0,500.0,<img class = center src='/static/experiments/stop_signal_single_task_network/images/stopSignal.png'></img>,go,,2000.0,,77.0,1.0,0.0,43.0,stop_signal_single_task_network,,,,,,1.0,0.0-3.0-87.0,77.0,"[90, 77]",,558,square,1000.0,<div class = bigbox><div class = centerbox><div class = gng_number><div class = cue-text><img class = center src='/static/experiments/stop_signal_single_task_network/images/square.png'></img></div>,,go,,212017,0.0,test_trial,163,stop-signal,
164,,,,,,500.0,,,,,,stop_signal_single_task_network,,,,,,,0.0-3.0-88.0,-1.0,none,,-1,,500.0,<div class = centerbox><div class = fixation>+</div></div>,,,,212525,0.0,fixation,164,poldrack-single-stim,
165,350.0,500.0,<img class = center src='/static/experiments/stop_signal_single_task_network/images/stopSignal.png'></img>,stop,,2000.0,,-1.0,1.0,0.0,44.0,stop_signal_single_task_network,,,,,,,0.0-3.0-89.0,-1.0,"[90, 77]",,-1,circle,1000.0,<div class = bigbox><div class = centerbox><div class = gng_number><div class = cue-text><img class = center src='/static/experiments/stop_signal_single_task_network/images/circle.png'></img></div>,1.0,stop,,214534,0.0,test_trial,165,stop-signal,
166,,,,,,500.0,,,,,,stop_signal_single_task_network,,,,,,,0.0-3.0-90.0,-1.0,none,,-1,,500.0,<div class = centerbox><div class = fixation>+</div></div>,,,,215040,0.0,fixation,166,poldrack-single-stim,
167,400.0,500.0,<img class = center src='/static/experiments/stop_signal_single_task_network/images/stopSignal.png'></img>,go,,2000.0,,90.0,1.0,0.0,45.0,stop_signal_single_task_network,,,,,,1.0,0.0-3.0-91.0,90.0,"[90, 77]",,593,circle,1000.0,<div class = bigbox><div class = centerbox><div class = gng_number><div class = cue-text><img class = center src='/static/experiments/stop_signal_single_task_network/images/circle.png'></img></div>,,go,,217047,0.0,test_trial,167,stop-signal,
168,,,,,,500.0,,,,,,stop_signal_single_task_network,,,,,,,0.0-3.0-92.0,-1.0,none,,-1,,500.0,<div class = centerbox><div class = fixation>+</div></div>,,,,217563,0.0,fixation,168,poldrack-single-stim,
169,400.0,500.0,<img class = center src='/static/experiments/stop_signal_single_task_network/images/stopSignal.png'></img>,go,,2000.0,,77.0,1.0,0.0,46.0,stop_signal_single_task_network,,,,,,1.0,0.0-3.0-93.0,77.0,"[90, 77]",,717,square,1000.0,<div class = bigbox><div class = centerbox><div class = gng_number><div class = cue-text><img class = center src='/static/experiments/stop_signal_single_task_network/images/square.png'></img></div>,,go,,219570,0.0,test_trial,169,stop-signal,
170,,,,,,500.0,,,,,,stop_signal_single_task_network,,,,,,,0.0-3.0-94.0,-1.0,none,,-1,,500.0,<div class = centerbox><div class = fixation>+</div></div>,,,,220080,0.0,fixation,170,poldrack-single-stim,
171,400.0,500.0,<img class = center src='/static/experiments/stop_signal_single_task_network/images/stopSignal.png'></img>,go,,2000.0,,77.0,1.0,0.0,47.0,stop_signal_single_task_network,,,,,,1.0,0.0-3.0-95.0,77.0,"[90, 77]",,585,square,1000.0,<div class = bigbox><div class = centerbox><div class = gng_number><div class = cue-text><img class = center src='/static/experiments/stop_signal_single_task_network/images/square.png'></img></div>,,go,,222090,0.0,test_trial,171,stop-signal,
172,,,,,,500.0,,,,,,stop_signal_single_task_network,,,,,,,0.0-3.0-96.0,-1.0,none,,-1,,500.0,<div class = centerbox><div class = fixation>+</div></div>,,,,222598,0.0,fixation,172,poldrack-single-stim,
173,400.0,500.0,<img class = center src='/static/experiments/stop_signal_single_task_network/images/stopSignal.png'></img>,go,,2000.0,,77.0,1.0,0.0,48.0,stop_signal_single_task_network,,,,,,1.0,0.0-3.0-97.0,77.0,"[90, 77]",,615,square,1000.0,<div class = bigbox><div class = centerbox><div class = gng_number><div class = cue-text><img class = center src='/static/experiments/stop_signal_single_task_network/images/square.png'></img></div>,,go,,224606,0.0,test_trial,173,stop-signal,
174,,,,,,2386.0,,,,,,stop_signal_single_task_network,,,,,,,0.0-3.1-0.1,13.0,[13],,2386,,2386.0,"<div class = bigbox><div class = picture_box><p class = block-text><font color=""white""><br>Please take this time to read your feedback and to take a short break. Press enter to continue.</p><p class = block-text>You have completed: 1 out of 3 blocks of trials.</font></p></div></div>",,,,227005,0.0,practice-no-stop-feedback,174,poldrack-single-stim,
175,,,,,,9683.0,True,69.0,,,,stop_signal_single_task_network,,,,,,,0.0-3.1-1.1-0.1,69.0,[],,9683,,9683.0,"<p>If (7+1+4) is even, press the ""E"" key. Otherwise press the ""O"" key. </p>",,,,236693,200.0,attention_check,175,attention-check,
176,,,,,,500.0,,,,,,stop_signal_single_task_network,,,,,,,0.0-3.1-2.1,-1.0,none,,-1,,500.0,<div class = centerbox><div class = fixation>+</div></div>,,,,237399,0.0,fixation,176,poldrack-single-stim,
177,400.0,500.0,<img class = center src='/static/experiments/stop_signal_single_task_network/images/stopSignal.png'></img>,stop,,2000.0,,-1.0,1.0,1.0,1.0,stop_signal_single_task_network,,,,,,,0.0-3.1-3.1,-1.0,"[90, 77]",,-1,circle,1000.0,<div class = bigbox><div class = centerbox><div class = gng_number><div class = cue-text><img class = center src='/static/experiments/stop_signal_single_task_network/images/circle.png'></img></div>,1.0,stop,,239405,0.0,test_trial,177,stop-signal,
178,,,,,,500.0,,,,,,stop_signal_single_task_network,,,,,,,0.0-3.1-4.1,-1.0,none,,-1,,500.0,<div class = centerbox><div class = fixation>+</div></div>,,,,239910,0.0,fixation,178,poldrack-single-stim,
179,450.0,500.0,<img class = center src='/static/experiments/stop_signal_single_task_network/images/stopSignal.png'></img>,go,,2000.0,,90.0,1.0,1.0,2.0,stop_signal_single_task_network,,,,,,1.0,0.0-3.1-5.1,90.0,"[90, 77]",,780,circle,1000.0,<div class = bigbox><div class = centerbox><div class = gng_number><div class = cue-text><img class = center src='/static/experiments/stop_signal_single_task_network/images/circle.png'></img></div>,,go,,241918,0.0,test_trial,179,stop-signal,
180,,,,,,500.0,,,,,,stop_signal_single_task_network,,,,,,,0.0-3.1-6.1,-1.0,none,,-1,,500.0,<div class = centerbox><div class = fixation>+</div></div>,,,,242428,0.0,fixation,180,poldrack-single-stim,
181,450.0,500.0,<img class = center src='/static/experiments/stop_signal_single_task_network/images/stopSignal.png'></img>,go,,2000.0,,90.0,1.0,1.0,3.0,stop_signal_single_task_network,,,,,,1.0,0.0-3.1-7.1,90.0,"[90, 77]",,782,circle,1000.0,<div class = bigbox><div class = centerbox><div class = gng_number><div class = cue-text><img class = center src='/static/experiments/stop_signal_single_task_network/images/circle.png'></img></div>,,go,,244436,0.0,test_trial,181,stop-signal,
182,,,,,,500.0,,,,,,stop_signal_single_task_network,,,,,,,0.0-3.1-8.1,-1.0,none,,-1,,500.0,<div class = centerbox><div class = fixation>+</div></div>,,,,244946,0.0,fixation,182,poldrack-single-stim,
183,450.0,500.0,<img class = center src='/static/experiments/stop_signal_single_task_network/images/stopSignal.png'></img>,stop,,2000.0,,-1.0,1.0,1.0,4.0,stop_signal_single_task_network,,,,,,,0.0-3.1-9.1,-1.0,"[90, 77]",,-1,circle,1000.0,<div class = bigbox><div class = centerbox><div class = gng_number><div class = cue-text><img class = center src='/static/experiments/stop_signal_single_task_network/images/circle.png'></img></div>,1.0,stop,,246953,0.0,test_trial,183,stop-signal,
184,,,,,,500.0,,,,,,stop_signal_single_task_network,,,,,,,0.0-3.1-10.1,-1.0,none,,-1,,500.0,<div class = centerbox><div class = fixation>+</div></div>,,,,247461,0.0,fixation,184,poldrack-single-stim,
185,500.0,500.0,<img class = center src='/static/experiments/stop_signal_single_task_network/images/stopSignal.png'></img>,go,,2000.0,,90.0,1.0,1.0,5.0,stop_signal_single_task_network,,,,,,1.0,0.0-3.1-11.1,90.0,"[90, 77]",,596,circle,1000.0,<div class = bigbox><div class = centerbox><div class = gng_number><div class = cue-text><img class = center src='/static/experiments/stop_signal_single_task_network/images/circle.png'></img></div>,,go,,249466,0.0,test_trial,185,stop-signal,
186,,,,,,500.0,,,,,,stop_signal_single_task_network,,,,,,,0.0-3.1-12.1,-1.0,none,,-1,,500.0,<div class = centerbox><div class = fixation>+</div></div>,,,,249976,0.0,fixation,186,poldrack-single-stim,
187,500.0,500.0,<img class = center src='/static/experiments/stop_signal_single_task_network/images/stopSignal.png'></img>,go,,2000.0,,90.0,1.0,1.0,6.0,stop_signal_single_task_network,,,,,,1.0,0.0-3.1-13.1,90.0,"[90, 77]",,663,circle,1000.0,<div class = bigbox><div class = centerbox><div class = gng_number><div class = cue-text><img class = center src='/static/experiments/stop_signal_single_task_network/images/circle.png'></img></div>,,go,,251986,0.0,test_trial,187,stop-signal,
188,,,,,,500.0,,,,,,stop_signal_single_task_network,,,,,,,0.0-3.1-14.1,-1.0,none,,-1,,500.0,<div class = centerbox><div class = fixation>+</div></div>,,,,252502,0.0,fixation,188,poldrack-single-stim,
189,500.0,500.0,<img class = center src='/static/experiments/stop_signal_single_task_network/images/stopSignal.png'></img>,stop,,2000.0,,-1.0,0.0,1.0,7.0,stop_signal_single_task_network,,,,,,,0.0-3.1-15.1,77.0,"[90, 77]",,469,square,1000.0,<div class = bigbox><div class = centerbox><div class = gng_number><div class = cue-text><img class = center src='/static/experiments/stop_signal_single_task_network/images/square.png'></img></div>,0.0,stop,,254509,0.0,test_trial,189,stop-signal,
190,,,,,,500.0,,,,,,stop_signal_single_task_network,,,,,,,0.0-3.1-16.1,-1.0,none,,-1,,500.0,<div class = centerbox><div class = fixation>+</div></div>,,,,255023,0.0,fixation,190,poldrack-single-stim,
191,450.0,500.0,<img class = center src='/static/experiments/stop_signal_single_task_network/images/stopSignal.png'></img>,go,,2000.0,,90.0,1.0,1.0,8.0,stop_signal_single_task_network,,,,,,1.0,0.0-3.1-17.1,90.0,"[90, 77]",,480,circle,1000.0,<div class = bigbox><div class = centerbox><div class = gng_number><div class = cue-text><img class = center src='/static/experiments/stop_signal_single_task_network/images/circle.png'></img></div>,,go,,257032,0.0,test_trial,191,stop-signal,
192,,,,,,500.0,,,,,,stop_signal_single_task_network,,,,,,,0.0-3.1-18.1,-1.0,none,,-1,,500.0,<div class = centerbox><div class = fixation>+</div></div>,,,,257541,0.0,fixation,192,poldrack-single-stim,
193,450.0,500.0,<img class = center src='/static/experiments/stop_signal_single_task_network/images/stopSignal.png'></img>,go,,2000.0,,77.0,1.0,1.0,9.0,stop_signal_single_task_network,,,,,,1.0,0.0-3.1-19.1,77.0,"[90, 77]",,576,square,1000.0,<div class = bigbox><div class = centerbox><div class = gng_number><div class = cue-text><img class = center src='/static/experiments/stop_signal_single_task_network/images/square.png'></img></div>,,go,,259549,0.0,test_trial,193,stop-signal,
194,,,,,,500.0,,,,,,stop_signal_single_task_network,,,,,,,0.0-3.1-20.1,-1.0,none,,-1,,500.0,<div class = centerbox><div class = fixation>+</div></div>,,,,260059,0.0,fixation,194,poldrack-single-stim,
195,450.0,500.0,<img class = center src='/static/experiments/stop_signal_single_task_network/images/stopSignal.png'></img>,go,,2000.0,,77.0,1.0,1.0,10.0,stop_signal_single_task_network,,,,,,1.0,0.0-3.1-21.1,77.0,"[90, 77]",,785,square,1000.0,<div class = bigbox><div class = centerbox><div class = gng_number><div class = cue-text><img class = center src='/static/experiments/stop_signal_single_task_network/images/square.png'></img></div>,,go,,262075,0.0,test_trial,195,stop-signal,
196,,,,,,500.0,,,,,,stop_signal_single_task_network,,,,,,,0.0-3.1-22.1,-1.0,none,,-1,,500.0,<div class = centerbox><div class = fixation>+</div></div>,,,,262584,0.0,fixation,196,poldrack-single-stim,
197,450.0,500.0,<img class = center src='/static/experiments/stop_signal_single_task_network/images/stopSignal.png'></img>,stop,,2000.0,,-1.0,0.0,1.0,11.0,stop_signal_single_task_network,,,,,,,0.0-3.1-23.1,90.0,"[90, 77]",,436,circle,1000.0,<div class = bigbox><div class = centerbox><div class = gng_number><div class = cue-text><img class = center src='/static/experiments/stop_signal_single_task_network/images/circle.png'></img></div>,0.0,stop,,264593,0.0,test_trial,197,stop-signal,
198,,,,,,500.0,,,,,,stop_signal_single_task_network,,,,,,,0.0-3.1-24.1,-1.0,none,,-1,,500.0,<div class = centerbox><div class = fixation>+</div></div>,,,,265106,0.0,fixation,198,poldrack-single-stim,
199,400.0,500.0,<img class = center src='/static/experiments/stop_signal_single_task_network/images/stopSignal.png'></img>,go,,2000.0,,90.0,1.0,1.0,12.0,stop_signal_single_task_network,,,,,,1.0,0.0-3.1-25.1,90.0,"[90, 77]",,604,circle,1000.0,<div class = bigbox><div class = centerbox><div class = gng_number><div class = cue-text><img class = center src='/static/experiments/stop_signal_single_task_network/images/circle.png'></img></div>,,go,,267112,0.0,test_trial,199,stop-signal,
200,,,,,,500.0,,,,,,stop_signal_single_task_network,,,,,,,0.0-3.1-26.1,-1.0,none,,-1,,500.0,<div class = centerbox><div class = fixation>+</div></div>,,,,267623,0.0,fixation,200,poldrack-single-stim,
201,400.0,500.0,<img class = center src='/static/experiments/stop_signal_single_task_network/images/stopSignal.png'></img>,go,,2000.0,,77.0,1.0,1.0,13.0,stop_signal_single_task_network,,,,,,1.0,0.0-3.1-27.1,77.0,"[90, 77]",,699,square,1000.0,<div class = bigbox><div class = centerbox><div class = gng_number><div class = cue-text><img class = center src='/static/experiments/stop_signal_single_task_network/images/square.png'></img></div>,,go,,269631,0.0,test_trial,201,stop-signal,
202,,,,,,500.0,,,,,,stop_signal_single_task_network,,,,,,,0.0-3.1-28.1,-1.0,none,,-1,,500.0,<div class = centerbox><div class = fixation>+</div></div>,,,,270141,0.0,fixation,202,poldrack-single-stim,
203,400.0,500.0,<img class = center src='/static/experiments/stop_signal_single_task_network/images/stopSignal.png'></img>,stop,,2000.0,,-1.0,1.0,1.0,14.0,stop_signal_single_task_network,,,,,,,0.0-3.1-29.1,-1.0,"[90, 77]",,-1,square,1000.0,<div class = bigbox><div class = centerbox><div class = gng_number><div class = cue-text><img class = center src='/static/experiments/stop_signal_single_task_network/images/square.png'></img></div>,1.0,stop,,272149,0.0,test_trial,203,stop-signal,
204,,,,,,500.0,,,,,,stop_signal_single_task_network,,,,,,,0.0-3.1-30.1,-1.0,none,,-1,,500.0,<div class = centerbox><div class = fixation>+</div></div>,,,,272658,0.0,fixation,204,poldrack-single-stim,
205,450.0,500.0,<img class = center src='/static/experiments/stop_signal_single_task_network/images/stopSignal.png'></img>,go,,2000.0,,77.0,1.0,1.0,15.0,stop_signal_single_task_network,,,,,,1.0,0.0-3.1-31.1,77.0,"[90, 77]",,558,square,1000.0,<div class = bigbox><div class = centerbox><div class = gng_number><div class = cue-text><img class = center src='/static/experiments/stop_signal_single_task_network/images/square.png'></img></div>,,go,,274668,0.0,test_trial,205,stop-signal,
206,,,,,,500.0,,,,,,stop_signal_single_task_network,,,,,,,0.0-3.1-32.1,-1.0,none,,-1,,500.0,<div class = centerbox><div class = fixation>+</div></div>,,,,275175,0.0,fixation,206,poldrack-single-stim,
207,450.0,500.0,<img class = center src='/static/experiments/stop_signal_single_task_network/images/stopSignal.png'></img>,go,,2000.0,,77.0,1.0,1.0,16.0,stop_signal_single_task_network,,,,,,1.0,0.0-3.1-33.1,77.0,"[90, 77]",,689,square,1000.0,<div class = bigbox><div class = centerbox><div class = gng_number><div class = cue-text><img class = center src='/static/experiments/stop_signal_single_task_network/images/square.png'></img></div>,,go,,277183,0.0,test_trial,207,stop-signal,
208,,,,,,500.0,,,,,,stop_signal_single_task_network,,,,,,,0.0-3.1-34.1,-1.0,none,,-1,,500.0,<div class = centerbox><div class = fixation>+</div></div>,,,,277695,0.0,fixation,208,poldrack-single-stim,
209,450.0,500.0,<img class = center src='/static/experiments/stop_signal_single_task_network/images/stopSignal.png'></img>,go,,2000.0,,77.0,1.0,1.0,17.0,stop_signal_single_task_network,,,,,,1.0,0.0-3.1-35.1,77.0,"[90, 77]",,821,square,1000.0,<div class = bigbox><div class = centerbox><div class = gng_number><div class = cue-text><img class = center src='/static/experiments/stop_signal_single_task_network/images/square.png'></img></div>,,go,,279701,0.0,test_trial,209,stop-signal,
210,,,,,,500.0,,,,,,stop_signal_single_task_network,,,,,,,0.0-3.1-36.1,-1.0,none,,-1,,500.0,<div class = centerbox><div class = fixation>+</div></div>,,,,280212,0.0,fixation,210,poldrack-single-stim,
211,450.0,500.0,<img class = center src='/static/experiments/stop_signal_single_task_network/images/stopSignal.png'></img>,go,,2000.0,,77.0,1.0,1.0,18.0,stop_signal_single_task_network,,,,,,1.0,0.0-3.1-37.1,77.0,"[90, 77]",,757,square,1000.0,<div class = bigbox><div class = centerbox><div class = gng_number><div class = cue-text><img class = center src='/static/experiments/stop_signal_single_task_network/images/square.png'></img></div>,,go,,282221,0.0,test_trial,211,stop-signal,
212,,,,,,500.0,,,,,,stop_signal_single_task_network,,,,,,,0.0-3.1-38.1,-1.0,none,,-1,,500.0,<div class = centerbox><div class = fixation>+</div></div>,,,,282732,0.0,fixation,212,poldrack-single-stim,
213,450.0,500.0,<img class = center src='/static/experiments/stop_signal_single_task_network/images/stopSignal.png'></img>,go,,2000.0,,90.0,1.0,1.0,19.0,stop_signal_single_task_network,,,,,,1.0,0.0-3.1-39.1,90.0,"[90, 77]",,733,circle,1000.0,<div class = bigbox><div class = centerbox><div class = gng_number><div class = cue-text><img class = center src='/static/experiments/stop_signal_single_task_network/images/circle.png'></img></div>,,go,,284742,0.0,test_trial,213,stop-signal,
214,,,,,,500.0,,,,,,stop_signal_single_task_network,,,,,,,0.0-3.1-40.1,-1.0,none,,-1,,500.0,<div class = centerbox><div class = fixation>+</div></div>,,,,285252,0.0,fixation,214,poldrack-single-stim,
215,450.0,500.0,<img class = center src='/static/experiments/stop_signal_single_task_network/images/stopSignal.png'></img>,go,,2000.0,,77.0,1.0,1.0,20.0,stop_signal_single_task_network,,,,,,1.0,0.0-3.1-41.1,77.0,"[90, 77]",,669,square,1000.0,<div class = bigbox><div class = centerbox><div class = gng_number><div class = cue-text><img class = center src='/static/experiments/stop_signal_single_task_network/images/square.png'></img></div>,,go,,287260,0.0,test_trial,215,stop-signal,
216,,,,,,500.0,,,,,,stop_signal_single_task_network,,,,,,,0.0-3.1-42.1,-1.0,none,,-1,,500.0,<div class = centerbox><div class = fixation>+</div></div>,,,,287766,0.0,fixation,216,poldrack-single-stim,
217,450.0,500.0,<img class = center src='/static/experiments/stop_signal_single_task_network/images/stopSignal.png'></img>,go,,2000.0,,90.0,1.0,1.0,21.0,stop_signal_single_task_network,,,,,,1.0,0.0-3.1-43.1,90.0,"[90, 77]",,445,circle,1000.0,<div class = bigbox><div class = centerbox><div class = gng_number><div class = cue-text><img class = center src='/static/experiments/stop_signal_single_task_network/images/circle.png'></img></div>,,go,,289775,0.0,test_trial,217,stop-signal,
218,,,,,,500.0,,,,,,stop_signal_single_task_network,,,,,,,0.0-3.1-44.1,-1.0,none,,-1,,500.0,<div class = centerbox><div class = fixation>+</div></div>,,,,290292,0.0,fixation,218,poldrack-single-stim,
219,450.0,500.0,<img class = center src='/static/experiments/stop_signal_single_task_network/images/stopSignal.png'></img>,go,,2000.0,,77.0,1.0,1.0,22.0,stop_signal_single_task_network,,,,,,1.0,0.0-3.1-45.1,77.0,"[90, 77]",,461,square,1000.0,<div class = bigbox><div class = centerbox><div class = gng_number><div class = cue-text><img class = center src='/static/experiments/stop_signal_single_task_network/images/square.png'></img></div>,,go,,292300,0.0,test_trial,219,stop-signal,
220,,,,,,500.0,,,,,,stop_signal_single_task_network,,,,,,,0.0-3.1-46.1,-1.0,none,,-1,,500.0,<div class = centerbox><div class = fixation>+</div></div>,,,,292810,0.0,fixation,220,poldrack-single-stim,
221,450.0,500.0,<img class = center src='/static/experiments/stop_signal_single_task_network/images/stopSignal.png'></img>,stop,,2000.0,,-1.0,0.0,1.0,23.0,stop_signal_single_task_network,,,,,,,0.0-3.1-47.1,90.0,"[90, 77]",,460,circle,1000.0,<div class = bigbox><div class = centerbox><div class = gng_number><div class = cue-text><img class = center src='/static/experiments/stop_signal_single_task_network/images/circle.png'></img></div>,0.0,stop,,294817,0.0,test_trial,221,stop-signal,
222,,,,,,500.0,,,,,,stop_signal_single_task_network,,,,,,,0.0-3.1-48.1,-1.0,none,,-1,,500.0,<div class = centerbox><div class = fixation>+</div></div>,,,,295322,0.0,fixation,222,poldrack-single-stim,
223,400.0,500.0,<img class = center src='/static/experiments/stop_signal_single_task_network/images/stopSignal.png'></img>,go,,2000.0,,77.0,1.0,1.0,24.0,stop_signal_single_task_network,,,,,,1.0,0.0-3.1-49.1,77.0,"[90, 77]",,428,square,1000.0,<div class = bigbox><div class = centerbox><div class = gng_number><div class = cue-text><img class = center src='/static/experiments/stop_signal_single_task_network/images/square.png'></img></div>,,go,,297331,0.0,test_trial,223,stop-signal,
224,,,,,,500.0,,,,,,stop_signal_single_task_network,,,,,,,0.0-3.1-50.1,-1.0,none,,-1,,500.0,<div class = centerbox><div class = fixation>+</div></div>,,,,297839,0.0,fixation,224,poldrack-single-stim,
225,400.0,500.0,<img class = center src='/static/experiments/stop_signal_single_task_network/images/stopSignal.png'></img>,stop,,2000.0,,-1.0,0.0,1.0,25.0,stop_signal_single_task_network,,,,,,,0.0-3.1-51.1,77.0,"[90, 77]",,588,square,1000.0,<div class = bigbox><div class = centerbox><div class = gng_number><div class = cue-text><img class = center src='/static/experiments/stop_signal_single_task_network/images/square.png'></img></div>,0.0,stop,,299847,0.0,test_trial,225,stop-signal,
226,,,,,,500.0,,,,,,stop_signal_single_task_network,,,,,,,0.0-3.1-52.1,-1.0,none,,-1,,500.0,<div class = centerbox><div class = fixation>+</div></div>,,,,300358,0.0,fixation,226,poldrack-single-stim,
227,350.0,500.0,<img class = center src='/static/experiments/stop_signal_single_task_network/images/stopSignal.png'></img>,stop,,2000.0,,-1.0,0.0,1.0,26.0,stop_signal_single_task_network,,,,,,,0.0-3.1-53.1,77.0,"[90, 77]",,542,square,1000.0,<div class = bigbox><div class = centerbox><div class = gng_number><div class = cue-text><img class = center src='/static/experiments/stop_signal_single_task_network/images/square.png'></img></div>,0.0,stop,,302365,0.0,test_trial,227,stop-signal,
228,,,,,,500.0,,,,,,stop_signal_single_task_network,,,,,,,0.0-3.1-54.1,-1.0,none,,-1,,500.0,<div class = centerbox><div class = fixation>+</div></div>,,,,302876,0.0,fixation,228,poldrack-single-stim,
229,300.0,500.0,<img class = center src='/static/experiments/stop_signal_single_task_network/images/stopSignal.png'></img>,go,,2000.0,,77.0,1.0,1.0,27.0,stop_signal_single_task_network,,,,,,1.0,0.0-3.1-55.1,77.0,"[90, 77]",,564,square,1000.0,<div class = bigbox><div class = centerbox><div class = gng_number><div class = cue-text><img class = center src='/static/experiments/stop_signal_single_task_network/images/square.png'></img></div>,,go,,304884,0.0,test_trial,229,stop-signal,
230,,,,,,500.0,,,,,,stop_signal_single_task_network,,,,,,,0.0-3.1-56.1,-1.0,none,,-1,,500.0,<div class = centerbox><div class = fixation>+</div></div>,,,,305395,0.0,fixation,230,poldrack-single-stim,
231,300.0,500.0,<img class = center src='/static/experiments/stop_signal_single_task_network/images/stopSignal.png'></img>,go,,2000.0,,90.0,1.0,1.0,28.0,stop_signal_single_task_network,,,,,,1.0,0.0-3.1-57.1,90.0,"[90, 77]",,516,circle,1000.0,<div class = bigbox><div class = centerbox><div class = gng_number><div class = cue-text><img class = center src='/static/experiments/stop_signal_single_task_network/images/circle.png'></img></div>,,go,,307400,0.0,test_trial,231,stop-signal,
232,,,,,,500.0,,,,,,stop_signal_single_task_network,,,,,,,0.0-3.1-58.1,-1.0,none,,-1,,500.0,<div class = centerbox><div class = fixation>+</div></div>,,,,307911,0.0,fixation,232,poldrack-single-stim,
233,300.0,500.0,<img class = center src='/static/experiments/stop_signal_single_task_network/images/stopSignal.png'></img>,go,,2000.0,,77.0,1.0,1.0,29.0,stop_signal_single_task_network,,,,,,1.0,0.0-3.1-59.1,77.0,"[90, 77]",,505,square,1000.0,<div class = bigbox><div class = centerbox><div class = gng_number><div class = cue-text><img class = center src='/static/experiments/stop_signal_single_task_network/images/square.png'></img></div>,,go,,309919,0.0,test_trial,233,stop-signal,
234,,,,,,500.0,,,,,,stop_signal_single_task_network,,,,,,,0.0-3.1-60.1,-1.0,none,,-1,,500.0,<div class = centerbox><div class = fixation>+</div></div>,,,,310437,0.0,fixation,234,poldrack-single-stim,
235,300.0,500.0,<img class = center src='/static/experiments/stop_signal_single_task_network/images/stopSignal.png'></img>,go,,2000.0,,77.0,1.0,1.0,30.0,stop_signal_single_task_network,,,,,,1.0,0.0-3.1-61.1,77.0,"[90, 77]",,696,square,1000.0,<div class = bigbox><div class = centerbox><div class = gng_number><div class = cue-text><img class = center src='/static/experiments/stop_signal_single_task_network/images/square.png'></img></div>,,go,,312445,0.0,test_trial,235,stop-signal,
236,,,,,,500.0,,,,,,stop_signal_single_task_network,,,,,,,0.0-3.1-62.1,-1.0,none,,-1,,500.0,<div class = centerbox><div class = fixation>+</div></div>,,,,312955,0.0,fixation,236,poldrack-single-stim,
237,300.0,500.0,<img class = center src='/static/experiments/stop_signal_single_task_network/images/stopSignal.png'></img>,go,,2000.0,,90.0,1.0,1.0,31.0,stop_signal_single_task_network,,,,,,1.0,0.0-3.1-63.1,90.0,"[90, 77]",,414,circle,1000.0,<div class = bigbox><div class = centerbox><div class = gng_number><div class = cue-text><img class = center src='/static/experiments/stop_signal_single_task_network/images/circle.png'></img></div>,,go,,314965,0.0,test_trial,237,stop-signal,
238,,,,,,500.0,,,,,,stop_signal_single_task_network,,,,,,,0.0-3.1-64.1,-1.0,none,,-1,,500.0,<div class = centerbox><div class = fixation>+</div></div>,,,,315476,0.0,fixation,238,poldrack-single-stim,
239,300.0,500.0,<img class = center src='/static/experiments/stop_signal_single_task_network/images/stopSignal.png'></img>,stop,,2000.0,,-1.0,0.0,1.0,32.0,stop_signal_single_task_network,,,,,,,0.0-3.1-65.1,77.0,"[90, 77]",,452,square,1000.0,<div class = bigbox><div class = centerbox><div class = gng_number><div class = cue-text><img class = center src='/static/experiments/stop_signal_single_task_network/images/square.png'></img></div>,0.0,stop,,317483,0.0,test_trial,239,stop-signal,
240,,,,,,500.0,,,,,,stop_signal_single_task_network,,,,,,,0.0-3.1-66.1,-1.0,none,,-1,,500.0,<div class = centerbox><div class = fixation>+</div></div>,,,,317993,0.0,fixation,240,poldrack-single-stim,
241,250.0,500.0,<img class = center src='/static/experiments/stop_signal_single_task_network/images/stopSignal.png'></img>,stop,,2000.0,,-1.0,0.0,1.0,33.0,stop_signal_single_task_network,,,,,,,0.0-3.1-67.1,90.0,"[90, 77]",,433,circle,1000.0,<div class = bigbox><div class = centerbox><div class = gng_number><div class = cue-text><img class = center src='/static/experiments/stop_signal_single_task_network/images/circle.png'></img></div>,0.0,stop,,320000,0.0,test_trial,241,stop-signal,
242,,,,,,500.0,,,,,,stop_signal_single_task_network,,,,,,,0.0-3.1-68.1,-1.0,none,,-1,,500.0,<div class = centerbox><div class = fixation>+</div></div>,,,,320509,0.0,fixation,242,poldrack-single-stim,
243,200.0,500.0,<img class = center src='/static/experiments/stop_signal_single_task_network/images/stopSignal.png'></img>,go,,2000.0,,90.0,1.0,1.0,34.0,stop_signal_single_task_network,,,,,,1.0,0.0-3.1-69.1,90.0,"[90, 77]",,555,circle,1000.0,<div class = bigbox><div class = centerbox><div class = gng_number><div class = cue-text><img class = center src='/static/experiments/stop_signal_single_task_network/images/circle.png'></img></div>,,go,,322516,0.0,test_trial,243,stop-signal,
244,,,,,,500.0,,,,,,stop_signal_single_task_network,,,,,,,0.0-3.1-70.1,-1.0,none,,-1,,500.0,<div class = centerbox><div class = fixation>+</div></div>,,,,323023,0.0,fixation,244,poldrack-single-stim,
245,200.0,500.0,<img class = center src='/static/experiments/stop_signal_single_task_network/images/stopSignal.png'></img>,go,,2000.0,,77.0,1.0,1.0,35.0,stop_signal_single_task_network,,,,,,1.0,0.0-3.1-71.1,77.0,"[90, 77]",,475,square,1000.0,<div class = bigbox><div class = centerbox><div class = gng_number><div class = cue-text><img class = center src='/static/experiments/stop_signal_single_task_network/images/square.png'></img></div>,,go,,325031,0.0,test_trial,245,stop-signal,
246,,,,,,500.0,,,,,,stop_signal_single_task_network,,,,,,,0.0-3.1-72.1,-1.0,none,,-1,,500.0,<div class = centerbox><div class = fixation>+</div></div>,,,,325541,0.0,fixation,246,poldrack-single-stim,
247,200.0,500.0,<img class = center src='/static/experiments/stop_signal_single_task_network/images/stopSignal.png'></img>,go,,2000.0,,90.0,1.0,1.0,36.0,stop_signal_single_task_network,,,,,,1.0,0.0-3.1-73.1,90.0,"[90, 77]",,475,circle,1000.0,<div class = bigbox><div class = centerbox><div class = gng_number><div class = cue-text><img class = center src='/static/experiments/stop_signal_single_task_network/images/circle.png'></img></div>,,go,,327549,0.0,test_trial,247,stop-signal,
248,,,,,,500.0,,,,,,stop_signal_single_task_network,,,,,,,0.0-3.1-74.1,-1.0,none,,-1,,500.0,<div class = centerbox><div class = fixation>+</div></div>,,,,328059,0.0,fixation,248,poldrack-single-stim,
249,200.0,500.0,<img class = center src='/static/experiments/stop_signal_single_task_network/images/stopSignal.png'></img>,go,,2000.0,,90.0,1.0,1.0,37.0,stop_signal_single_task_network,,,,,,1.0,0.0-3.1-75.1,90.0,"[90, 77]",,422,circle,1000.0,<div class = bigbox><div class = centerbox><div class = gng_number><div class = cue-text><img class = center src='/static/experiments/stop_signal_single_task_network/images/circle.png'></img></div>,,go,,330066,0.0,test_trial,249,stop-signal,
250,,,,,,500.0,,,,,,stop_signal_single_task_network,,,,,,,0.0-3.1-76.1,-1.0,none,,-1,,500.0,<div class = centerbox><div class = fixation>+</div></div>,,,,330576,0.0,fixation,250,poldrack-single-stim,
251,200.0,500.0,<img class = center src='/static/experiments/stop_signal_single_task_network/images/stopSignal.png'></img>,go,,2000.0,,90.0,1.0,1.0,38.0,stop_signal_single_task_network,,,,,,1.0,0.0-3.1-77.1,90.0,"[90, 77]",,409,circle,1000.0,<div class = bigbox><div class = centerbox><div class = gng_number><div class = cue-text><img class = center src='/static/experiments/stop_signal_single_task_network/images/circle.png'></img></div>,,go,,332583,0.0,test_trial,251,stop-signal,
252,,,,,,500.0,,,,,,stop_signal_single_task_network,,,,,,,0.0-3.1-78.1,-1.0,none,,-1,,500.0,<div class = centerbox><div class = fixation>+</div></div>,,,,333087,0.0,fixation,252,poldrack-single-stim,
253,200.0,500.0,<img class = center src='/static/experiments/stop_signal_single_task_network/images/stopSignal.png'></img>,stop,,2000.0,,-1.0,1.0,1.0,39.0,stop_signal_single_task_network,,,,,,,0.0-3.1-79.1,-1.0,"[90, 77]",,-1,square,1000.0,<div class = bigbox><div class = centerbox><div class = gng_number><div class = cue-text><img class = center src='/static/experiments/stop_signal_single_task_network/images/square.png'></img></div>,1.0,stop,,335095,0.0,test_trial,253,stop-signal,
254,,,,,,500.0,,,,,,stop_signal_single_task_network,,,,,,,0.0-3.1-80.1,-1.0,none,,-1,,500.0,<div class = centerbox><div class = fixation>+</div></div>,,,,335599,0.0,fixation,254,poldrack-single-stim,
255,250.0,500.0,<img class = center src='/static/experiments/stop_signal_single_task_network/images/stopSignal.png'></img>,stop,,2000.0,,-1.0,0.0,1.0,40.0,stop_signal_single_task_network,,,,,,,0.0-3.1-81.1,90.0,"[90, 77]",,394,circle,1000.0,<div class = bigbox><div class = centerbox><div class = gng_number><div class = cue-text><img class = center src='/static/experiments/stop_signal_single_task_network/images/circle.png'></img></div>,0.0,stop,,337603,0.0,test_trial,255,stop-signal,
256,,,,,,500.0,,,,,,stop_signal_single_task_network,,,,,,,0.0-3.1-82.1,-1.0,none,,-1,,500.0,<div class = centerbox><div class = fixation>+</div></div>,,,,338113,0.0,fixation,256,poldrack-single-stim,
257,200.0,500.0,<img class = center src='/static/experiments/stop_signal_single_task_network/images/stopSignal.png'></img>,stop,,2000.0,,-1.0,1.0,1.0,41.0,stop_signal_single_task_network,,,,,,,0.0-3.1-83.1,-1.0,"[90, 77]",,-1,square,1000.0,<div class = bigbox><div class = centerbox><div class = gng_number><div class = cue-text><img class = center src='/static/experiments/stop_signal_single_task_network/images/square.png'></img></div>,1.0,stop,,340119,0.0,test_trial,257,stop-signal,
258,,,,,,500.0,,,,,,stop_signal_single_task_network,,,,,,,0.0-3.1-84.1,-1.0,none,,-1,,500.0,<div class = centerbox><div class = fixation>+</div></div>,,,,340630,0.0,fixation,258,poldrack-single-stim,
259,250.0,500.0,<img class = center src='/static/experiments/stop_signal_single_task_network/images/stopSignal.png'></img>,stop,,2000.0,,-1.0,1.0,1.0,42.0,stop_signal_single_task_network,,,,,,,0.0-3.1-85.1,-1.0,"[90, 77]",,-1,circle,1000.0,<div class = bigbox><div class = centerbox><div class = gng_number><div class = cue-text><img class = center src='/static/experiments/stop_signal_single_task_network/images/circle.png'></img></div>,1.0,stop,,342643,0.0,test_trial,259,stop-signal,
260,,,,,,500.0,,,,,,stop_signal_single_task_network,,,,,,,0.0-3.1-86.1,-1.0,none,,-1,,500.0,<div class = centerbox><div class = fixation>+</div></div>,,,,343151,0.0,fixation,260,poldrack-single-stim,
261,300.0,500.0,<img class = center src='/static/experiments/stop_signal_single_task_network/images/stopSignal.png'></img>,stop,,2000.0,,-1.0,1.0,1.0,43.0,stop_signal_single_task_network,,,,,,,0.0-3.1-87.1,-1.0,"[90, 77]",,-1,square,1000.0,<div class = bigbox><div class = centerbox><div class = gng_number><div class = cue-text><img class = center src='/static/experiments/stop_signal_single_task_network/images/square.png'></img></div>,1.0,stop,,345158,0.0,test_trial,261,stop-signal,
262,,,,,,500.0,,,,,,stop_signal_single_task_network,,,,,,,0.0-3.1-88.1,-1.0,none,,-1,,500.0,<div class = centerbox><div class = fixation>+</div></div>,,,,345669,0.0,fixation,262,poldrack-single-stim,
263,350.0,500.0,<img class = center src='/static/experiments/stop_signal_single_task_network/images/stopSignal.png'></img>,go,,2000.0,,90.0,1.0,1.0,44.0,stop_signal_single_task_network,,,,,,1.0,0.0-3.1-89.1,90.0,"[90, 77]",,689,circle,1000.0,<div class = bigbox><div class = centerbox><div class = gng_number><div class = cue-text><img class = center src='/static/experiments/stop_signal_single_task_network/images/circle.png'></img></div>,,go,,347677,0.0,test_trial,263,stop-signal,
264,,,,,,500.0,,,,,,stop_signal_single_task_network,,,,,,,0.0-3.1-90.1,-1.0,none,,-1,,500.0,<div class = centerbox><div class = fixation>+</div></div>,,,,348187,0.0,fixation,264,poldrack-single-stim,
265,350.0,500.0,<img class = center src='/static/experiments/stop_signal_single_task_network/images/stopSignal.png'></img>,go,,2000.0,,77.0,1.0,1.0,45.0,stop_signal_single_task_network,,,,,,1.0,0.0-3.1-91.1,77.0,"[90, 77]",,693,square,1000.0,<div class = bigbox><div class = centerbox><div class = gng_number><div class = cue-text><img class = center src='/static/experiments/stop_signal_single_task_network/images/square.png'></img></div>,,go,,350195,0.0,test_trial,265,stop-signal,
266,,,,,,500.0,,,,,,stop_signal_single_task_network,,,,,,,0.0-3.1-92.1,-1.0,none,,-1,,500.0,<div class = centerbox><div class = fixation>+</div></div>,,,,350705,0.0,fixation,266,poldrack-single-stim,
267,350.0,500.0,<img class = center src='/static/experiments/stop_signal_single_task_network/images/stopSignal.png'></img>,stop,,2000.0,,-1.0,0.0,1.0,46.0,stop_signal_single_task_network,,,,,,,0.0-3.1-93.1,90.0,"[90, 77]",,487,circle,1000.0,<div class = bigbox><div class = centerbox><div class = gng_number><div class = cue-text><img class = center src='/static/experiments/stop_signal_single_task_network/images/circle.png'></img></div>,0.0,stop,,352716,0.0,test_trial,267,stop-signal,
268,,,,,,500.0,,,,,,stop_signal_single_task_network,,,,,,,0.0-3.1-94.1,-1.0,none,,-1,,500.0,<div class = centerbox><div class = fixation>+</div></div>,,,,353226,0.0,fixation,268,poldrack-single-stim,
269,300.0,500.0,<img class = center src='/static/experiments/stop_signal_single_task_network/images/stopSignal.png'></img>,go,,2000.0,,90.0,1.0,1.0,47.0,stop_signal_single_task_network,,,,,,1.0,0.0-3.1-95.1,90.0,"[90, 77]",,715,circle,1000.0,<div class = bigbox><div class = centerbox><div class = gng_number><div class = cue-text><img class = center src='/static/experiments/stop_signal_single_task_network/images/circle.png'></img></div>,,go,,355234,0.0,test_trial,269,stop-signal,
270,,,,,,500.0,,,,,,stop_signal_single_task_network,,,,,,,0.0-3.1-96.1,-1.0,none,,-1,,500.0,<div class = centerbox><div class = fixation>+</div></div>,,,,355740,0.0,fixation,270,poldrack-single-stim,
271,300.0,500.0,<img class = center src='/static/experiments/stop_signal_single_task_network/images/stopSignal.png'></img>,go,,2000.0,,77.0,1.0,1.0,48.0,stop_signal_single_task_network,,,,,,1.0,0.0-3.1-97.1,77.0,"[90, 77]",,668,square,1000.0,<div class = bigbox><div class = centerbox><div class = gng_number><div class = cue-text><img class = center src='/static/experiments/stop_signal_single_task_network/images/square.png'></img></div>,,go,,357749,0.0,test_trial,271,stop-signal,
272,,,,,,1548.0,,,,,,stop_signal_single_task_network,,,,,,,0.0-3.2-0.2,13.0,[13],,1548,,1548.0,"<div class = bigbox><div class = picture_box><p class = block-text><font color=""white""><br>Please take this time to read your feedback and to take a short break. Press enter to continue.</p><p class = block-text>You have completed: 2 out of 3 blocks of trials.</font></p></div></div>",,,,359319,0.0,practice-no-stop-feedback,272,poldrack-single-stim,
