,SSD_congruent,SSD_incongruent,SS_delay,SS_duration,SS_stimulus,SS_trial_type,att_check_percent,block_duration,center_letter,correct,correct_response,correct_trial,current_block,current_trial,exp_id,final_accuracy,final_avg_rt,final_credit_var,final_missed_percent,final_responses_ok,flanker_condition,flanker_letter,internal_node_id,key_press,possible_responses,responses,rt,stim_duration,stimulus,stop_acc,stop_signal_condition,text,time_elapsed,timing_post_trial,trial_id,trial_index,trial_type,view_history
0,,,,,,,,2293.0,,,,,,,stop_signal_with_flanker,,,,,,,,0.0-0.0-0.0,13.0,[13],,2293,2293.0,<div class = bigbox><div class = picture_box><p class = block-text>Welcome to the experiment. This experiment will take around 10 minutes. Press <i>enter</i> to begin.</p></div></div>,,,,2295,0.0,feedback_block,0,poldrack-single-stim,
1,,,,,,,,,,,,,,,stop_signal_with_flanker,,,,,,,,0.0-0.0-1.0,,,,75253,,,,,,77550,,instruction,1,poldrack-instructions,"[{""page_index"":0,""viewing_time"":46949},{""page_index"":1,""viewing_time"":26167},{""page_index"":2,""viewing_time"":2137}]"
2,,,,,,,,500.0,,,,,,,stop_signal_with_flanker,,,,,,,,0.0-0.0-2.0,-1.0,none,,-1,500.0,<div class = centerbox><div class = fixation>+</div></div>,,,,79055,0.0,practice_fixation,2,poldrack-single-stim,
3,350.0,350.0,350.0,500.0,"<div class = bigbox><div class = centerbox><div class = starbox><img class = star src=""/static/experiments/stop_signal_with_flanker/images/stopSignal.png""></img></div></div></div>",go,,2000.0,H,,72.0,1.0,0.0,1.0,stop_signal_with_flanker,,,,,,H_incongruent,F,0.0-0.0-3.0,72.0,"[70, 72]",,788,1000.0,"<div class = bigbox><div class = centerbox><div class = flankerLeft_2><div class = cue-text><img class = center src=""/static/experiments/stop_signal_with_flanker/images/F.png""></img></div></div><div class = flankerLeft_1><div class = cue-text><img class = center src=""/static/experiments/stop_signal_with_flanker/images/F.png""></img></div></div><div class = flankerMiddle><div class = cue-text><img class = center src=""/static/experiments/stop_signal_with_flanker/images/H.png""></img></div></div><div class = flankerRight_1><div class = cue-text><img class = center src=""/static/experiments/stop_signal_with_flanker/images/F.png""></img></div></div><div class = flankerRight_2><div class = cue-text><img class = center src=""/static/experiments/stop_signal_with_flanker/images/F.png""></img>",,go,,81058,0.0,practice_trial,3,stop-signal,
4,,,,,,,,500.0,,,,,,,stop_signal_with_flanker,,,,,,,,0.0-0.0-4.0,-1.0,none,,-1,500.0,"<div class = fb_box><div class = center-text><font size = 20>Correct!</font></div></div><ul style = ""text-align:left;""><font color=white><li>Indicate the identity of the middle letter</li><li>Do not respond if you see a star around the letters!</li><li>Do not slow down your responses to the letter to wait for the star.</li></font></ul>",,,,81562,0.0,practice-stop-feedback,4,poldrack-single-stim,
5,,,,,,,,500.0,,,,,,,stop_signal_with_flanker,,,,,,,,0.0-0.0-5.0,-1.0,none,,-1,500.0,<div class = centerbox><div class = fixation>+</div></div>,,,,82064,0.0,practice_fixation,5,poldrack-single-stim,
6,350.0,350.0,350.0,500.0,"<div class = bigbox><div class = centerbox><div class = starbox><img class = star src=""/static/experiments/stop_signal_with_flanker/images/stopSignal.png""></img></div></div></div>",go,,2000.0,H,,72.0,1.0,0.0,2.0,stop_signal_with_flanker,,,,,,H_congruent,H,0.0-0.0-6.0,72.0,"[70, 72]",,603,1000.0,"<div class = bigbox><div class = centerbox><div class = flankerLeft_2><div class = cue-text><img class = center src=""/static/experiments/stop_signal_with_flanker/images/H.png""></img></div></div><div class = flankerLeft_1><div class = cue-text><img class = center src=""/static/experiments/stop_signal_with_flanker/images/H.png""></img></div></div><div class = flankerMiddle><div class = cue-text><img class = center src=""/static/experiments/stop_signal_with_flanker/images/H.png""></img></div></div><div class = flankerRight_1><div class = cue-text><img class = center src=""/static/experiments/stop_signal_with_flanker/images/H.png""></img></div></div><div class = flankerRight_2><div class = cue-text><img class = center src=""/static/experiments/stop_signal_with_flanker/images/H.png""></img>",,go,,84068,0.0,practice_trial,6,stop-signal,
7,,,,,,,,500.0,,,,,,,stop_signal_with_flanker,,,,,,,,0.0-0.0-7.0,-1.0,none,,-1,500.0,"<div class = fb_box><div class = center-text><font size = 20>Correct!</font></div></div><ul style = ""text-align:left;""><font color=white><li>Indicate the identity of the middle letter</li><li>Do not respond if you see a star around the letters!</li><li>Do not slow down your responses to the letter to wait for the star.</li></font></ul>",,,,84572,0.0,practice-stop-feedback,7,poldrack-single-stim,
8,,,,,,,,500.0,,,,,,,stop_signal_with_flanker,,,,,,,,0.0-0.0-8.0,-1.0,none,,-1,500.0,<div class = centerbox><div class = fixation>+</div></div>,,,,85074,0.0,practice_fixation,8,poldrack-single-stim,
9,350.0,350.0,350.0,500.0,"<div class = bigbox><div class = centerbox><div class = starbox><img class = star src=""/static/experiments/stop_signal_with_flanker/images/stopSignal.png""></img></div></div></div>",stop,,2000.0,H,,-1.0,0.0,0.0,3.0,stop_signal_with_flanker,,,,,,H_incongruent,F,0.0-0.0-9.0,72.0,"[70, 72]",,555,1000.0,"<div class = bigbox><div class = centerbox><div class = flankerLeft_2><div class = cue-text><img class = center src=""/static/experiments/stop_signal_with_flanker/images/F.png""></img></div></div><div class = flankerLeft_1><div class = cue-text><img class = center src=""/static/experiments/stop_signal_with_flanker/images/F.png""></img></div></div><div class = flankerMiddle><div class = cue-text><img class = center src=""/static/experiments/stop_signal_with_flanker/images/H.png""></img></div></div><div class = flankerRight_1><div class = cue-text><img class = center src=""/static/experiments/stop_signal_with_flanker/images/F.png""></img></div></div><div class = flankerRight_2><div class = cue-text><img class = center src=""/static/experiments/stop_signal_with_flanker/images/F.png""></img>",0.0,stop,,87078,0.0,practice_trial,9,stop-signal,
10,,,,,,,,500.0,,,,,,,stop_signal_with_flanker,,,,,,,,0.0-0.0-10.0,-1.0,none,,-1,500.0,"<div class = fb_box><div class = center-text><font size = 20>There was a star.</font></div></div><ul style = ""text-align:left;""><font color=white><li>Indicate the identity of the middle letter</li><li>Do not respond if you see a star around the letters!</li><li>Do not slow down your responses to the letter to wait for the star.</li></font></ul>",,,,87580,0.0,practice-stop-feedback,10,poldrack-single-stim,
11,,,,,,,,500.0,,,,,,,stop_signal_with_flanker,,,,,,,,0.0-0.0-11.0,-1.0,none,,-1,500.0,<div class = centerbox><div class = fixation>+</div></div>,,,,88082,0.0,practice_fixation,11,poldrack-single-stim,
12,350.0,300.0,350.0,500.0,"<div class = bigbox><div class = centerbox><div class = starbox><img class = star src=""/static/experiments/stop_signal_with_flanker/images/stopSignal.png""></img></div></div></div>",go,,2000.0,F,,70.0,1.0,0.0,4.0,stop_signal_with_flanker,,,,,,F_congruent,F,0.0-0.0-12.0,70.0,"[70, 72]",,625,1000.0,"<div class = bigbox><div class = centerbox><div class = flankerLeft_2><div class = cue-text><img class = center src=""/static/experiments/stop_signal_with_flanker/images/F.png""></img></div></div><div class = flankerLeft_1><div class = cue-text><img class = center src=""/static/experiments/stop_signal_with_flanker/images/F.png""></img></div></div><div class = flankerMiddle><div class = cue-text><img class = center src=""/static/experiments/stop_signal_with_flanker/images/F.png""></img></div></div><div class = flankerRight_1><div class = cue-text><img class = center src=""/static/experiments/stop_signal_with_flanker/images/F.png""></img></div></div><div class = flankerRight_2><div class = cue-text><img class = center src=""/static/experiments/stop_signal_with_flanker/images/F.png""></img>",,go,,90086,0.0,practice_trial,12,stop-signal,
13,,,,,,,,500.0,,,,,,,stop_signal_with_flanker,,,,,,,,0.0-0.0-13.0,-1.0,none,,-1,500.0,"<div class = fb_box><div class = center-text><font size = 20>Correct!</font></div></div><ul style = ""text-align:left;""><font color=white><li>Indicate the identity of the middle letter</li><li>Do not respond if you see a star around the letters!</li><li>Do not slow down your responses to the letter to wait for the star.</li></font></ul>",,,,90590,0.0,practice-stop-feedback,13,poldrack-single-stim,
14,,,,,,,,500.0,,,,,,,stop_signal_with_flanker,,,,,,,,0.0-0.0-14.0,-1.0,none,,-1,500.0,<div class = centerbox><div class = fixation>+</div></div>,,,,91092,0.0,practice_fixation,14,poldrack-single-stim,
15,350.0,300.0,350.0,500.0,"<div class = bigbox><div class = centerbox><div class = starbox><img class = star src=""/static/experiments/stop_signal_with_flanker/images/stopSignal.png""></img></div></div></div>",go,,2000.0,H,,72.0,1.0,0.0,5.0,stop_signal_with_flanker,,,,,,H_congruent,H,0.0-0.0-15.0,72.0,"[70, 72]",,583,1000.0,"<div class = bigbox><div class = centerbox><div class = flankerLeft_2><div class = cue-text><img class = center src=""/static/experiments/stop_signal_with_flanker/images/H.png""></img></div></div><div class = flankerLeft_1><div class = cue-text><img class = center src=""/static/experiments/stop_signal_with_flanker/images/H.png""></img></div></div><div class = flankerMiddle><div class = cue-text><img class = center src=""/static/experiments/stop_signal_with_flanker/images/H.png""></img></div></div><div class = flankerRight_1><div class = cue-text><img class = center src=""/static/experiments/stop_signal_with_flanker/images/H.png""></img></div></div><div class = flankerRight_2><div class = cue-text><img class = center src=""/static/experiments/stop_signal_with_flanker/images/H.png""></img>",,go,,93096,0.0,practice_trial,15,stop-signal,
16,,,,,,,,500.0,,,,,,,stop_signal_with_flanker,,,,,,,,0.0-0.0-16.0,-1.0,none,,-1,500.0,"<div class = fb_box><div class = center-text><font size = 20>Correct!</font></div></div><ul style = ""text-align:left;""><font color=white><li>Indicate the identity of the middle letter</li><li>Do not respond if you see a star around the letters!</li><li>Do not slow down your responses to the letter to wait for the star.</li></font></ul>",,,,93599,0.0,practice-stop-feedback,16,poldrack-single-stim,
17,,,,,,,,500.0,,,,,,,stop_signal_with_flanker,,,,,,,,0.0-0.0-17.0,-1.0,none,,-1,500.0,<div class = centerbox><div class = fixation>+</div></div>,,,,94100,0.0,practice_fixation,17,poldrack-single-stim,
18,350.0,300.0,300.0,500.0,"<div class = bigbox><div class = centerbox><div class = starbox><img class = star src=""/static/experiments/stop_signal_with_flanker/images/stopSignal.png""></img></div></div></div>",go,,2000.0,H,,72.0,0.0,0.0,6.0,stop_signal_with_flanker,,,,,,H_incongruent,F,0.0-0.0-18.0,70.0,"[70, 72]",,622,1000.0,"<div class = bigbox><div class = centerbox><div class = flankerLeft_2><div class = cue-text><img class = center src=""/static/experiments/stop_signal_with_flanker/images/F.png""></img></div></div><div class = flankerLeft_1><div class = cue-text><img class = center src=""/static/experiments/stop_signal_with_flanker/images/F.png""></img></div></div><div class = flankerMiddle><div class = cue-text><img class = center src=""/static/experiments/stop_signal_with_flanker/images/H.png""></img></div></div><div class = flankerRight_1><div class = cue-text><img class = center src=""/static/experiments/stop_signal_with_flanker/images/F.png""></img></div></div><div class = flankerRight_2><div class = cue-text><img class = center src=""/static/experiments/stop_signal_with_flanker/images/F.png""></img>",,go,,96104,0.0,practice_trial,18,stop-signal,
19,,,,,,,,500.0,,,,,,,stop_signal_with_flanker,,,,,,,,0.0-0.0-19.0,-1.0,none,,-1,500.0,"<div class = fb_box><div class = center-text><font size = 20>Incorrect</font></div></div><ul style = ""text-align:left;""><font color=white><li>Indicate the identity of the middle letter</li><li>Do not respond if you see a star around the letters!</li><li>Do not slow down your responses to the letter to wait for the star.</li></font></ul>",,,,96607,0.0,practice-stop-feedback,19,poldrack-single-stim,
20,,,,,,,,500.0,,,,,,,stop_signal_with_flanker,,,,,,,,0.0-0.0-20.0,-1.0,none,,-1,500.0,<div class = centerbox><div class = fixation>+</div></div>,,,,97109,0.0,practice_fixation,20,poldrack-single-stim,
21,350.0,300.0,300.0,500.0,"<div class = bigbox><div class = centerbox><div class = starbox><img class = star src=""/static/experiments/stop_signal_with_flanker/images/stopSignal.png""></img></div></div></div>",go,,2000.0,F,,70.0,0.0,0.0,7.0,stop_signal_with_flanker,,,,,,F_incongruent,H,0.0-0.0-21.0,72.0,"[70, 72]",,607,1000.0,"<div class = bigbox><div class = centerbox><div class = flankerLeft_2><div class = cue-text><img class = center src=""/static/experiments/stop_signal_with_flanker/images/H.png""></img></div></div><div class = flankerLeft_1><div class = cue-text><img class = center src=""/static/experiments/stop_signal_with_flanker/images/H.png""></img></div></div><div class = flankerMiddle><div class = cue-text><img class = center src=""/static/experiments/stop_signal_with_flanker/images/F.png""></img></div></div><div class = flankerRight_1><div class = cue-text><img class = center src=""/static/experiments/stop_signal_with_flanker/images/H.png""></img></div></div><div class = flankerRight_2><div class = cue-text><img class = center src=""/static/experiments/stop_signal_with_flanker/images/H.png""></img>",,go,,99111,0.0,practice_trial,21,stop-signal,
22,,,,,,,,500.0,,,,,,,stop_signal_with_flanker,,,,,,,,0.0-0.0-22.0,-1.0,none,,-1,500.0,"<div class = fb_box><div class = center-text><font size = 20>Incorrect</font></div></div><ul style = ""text-align:left;""><font color=white><li>Indicate the identity of the middle letter</li><li>Do not respond if you see a star around the letters!</li><li>Do not slow down your responses to the letter to wait for the star.</li></font></ul>",,,,99614,0.0,practice-stop-feedback,22,poldrack-single-stim,
23,,,,,,,,500.0,,,,,,,stop_signal_with_flanker,,,,,,,,0.0-0.0-23.0,-1.0,none,,-1,500.0,<div class = centerbox><div class = fixation>+</div></div>,,,,100116,0.0,practice_fixation,23,poldrack-single-stim,
24,350.0,300.0,350.0,500.0,"<div class = bigbox><div class = centerbox><div class = starbox><img class = star src=""/static/experiments/stop_signal_with_flanker/images/stopSignal.png""></img></div></div></div>",stop,,2000.0,F,,-1.0,0.0,0.0,8.0,stop_signal_with_flanker,,,,,,F_congruent,F,0.0-0.0-24.0,70.0,"[70, 72]",,527,1000.0,"<div class = bigbox><div class = centerbox><div class = flankerLeft_2><div class = cue-text><img class = center src=""/static/experiments/stop_signal_with_flanker/images/F.png""></img></div></div><div class = flankerLeft_1><div class = cue-text><img class = center src=""/static/experiments/stop_signal_with_flanker/images/F.png""></img></div></div><div class = flankerMiddle><div class = cue-text><img class = center src=""/static/experiments/stop_signal_with_flanker/images/F.png""></img></div></div><div class = flankerRight_1><div class = cue-text><img class = center src=""/static/experiments/stop_signal_with_flanker/images/F.png""></img></div></div><div class = flankerRight_2><div class = cue-text><img class = center src=""/static/experiments/stop_signal_with_flanker/images/F.png""></img>",0.0,stop,,102119,0.0,practice_trial,24,stop-signal,
25,,,,,,,,500.0,,,,,,,stop_signal_with_flanker,,,,,,,,0.0-0.0-25.0,-1.0,none,,-1,500.0,"<div class = fb_box><div class = center-text><font size = 20>There was a star.</font></div></div><ul style = ""text-align:left;""><font color=white><li>Indicate the identity of the middle letter</li><li>Do not respond if you see a star around the letters!</li><li>Do not slow down your responses to the letter to wait for the star.</li></font></ul>",,,,102622,0.0,practice-stop-feedback,25,poldrack-single-stim,
26,,,,,,,,500.0,,,,,,,stop_signal_with_flanker,,,,,,,,0.0-0.0-26.0,-1.0,none,,-1,500.0,<div class = centerbox><div class = fixation>+</div></div>,,,,103125,0.0,practice_fixation,26,poldrack-single-stim,
27,300.0,300.0,300.0,500.0,"<div class = bigbox><div class = centerbox><div class = starbox><img class = star src=""/static/experiments/stop_signal_with_flanker/images/stopSignal.png""></img></div></div></div>",go,,2000.0,F,,70.0,1.0,0.0,9.0,stop_signal_with_flanker,,,,,,F_congruent,F,0.0-0.0-27.0,70.0,"[70, 72]",,534,1000.0,"<div class = bigbox><div class = centerbox><div class = flankerLeft_2><div class = cue-text><img class = center src=""/static/experiments/stop_signal_with_flanker/images/F.png""></img></div></div><div class = flankerLeft_1><div class = cue-text><img class = center src=""/static/experiments/stop_signal_with_flanker/images/F.png""></img></div></div><div class = flankerMiddle><div class = cue-text><img class = center src=""/static/experiments/stop_signal_with_flanker/images/F.png""></img></div></div><div class = flankerRight_1><div class = cue-text><img class = center src=""/static/experiments/stop_signal_with_flanker/images/F.png""></img></div></div><div class = flankerRight_2><div class = cue-text><img class = center src=""/static/experiments/stop_signal_with_flanker/images/F.png""></img>",,go,,105128,0.0,practice_trial,27,stop-signal,
28,,,,,,,,500.0,,,,,,,stop_signal_with_flanker,,,,,,,,0.0-0.0-28.0,-1.0,none,,-1,500.0,"<div class = fb_box><div class = center-text><font size = 20>Correct!</font></div></div><ul style = ""text-align:left;""><font color=white><li>Indicate the identity of the middle letter</li><li>Do not respond if you see a star around the letters!</li><li>Do not slow down your responses to the letter to wait for the star.</li></font></ul>",,,,105630,0.0,practice-stop-feedback,28,poldrack-single-stim,
29,,,,,,,,500.0,,,,,,,stop_signal_with_flanker,,,,,,,,0.0-0.0-29.0,-1.0,none,,-1,500.0,<div class = centerbox><div class = fixation>+</div></div>,,,,106133,0.0,practice_fixation,29,poldrack-single-stim,
30,300.0,300.0,300.0,500.0,"<div class = bigbox><div class = centerbox><div class = starbox><img class = star src=""/static/experiments/stop_signal_with_flanker/images/stopSignal.png""></img></div></div></div>",go,,2000.0,F,,70.0,1.0,0.0,10.0,stop_signal_with_flanker,,,,,,F_incongruent,H,0.0-0.0-30.0,70.0,"[70, 72]",,607,1000.0,"<div class = bigbox><div class = centerbox><div class = flankerLeft_2><div class = cue-text><img class = center src=""/static/experiments/stop_signal_with_flanker/images/H.png""></img></div></div><div class = flankerLeft_1><div class = cue-text><img class = center src=""/static/experiments/stop_signal_with_flanker/images/H.png""></img></div></div><div class = flankerMiddle><div class = cue-text><img class = center src=""/static/experiments/stop_signal_with_flanker/images/F.png""></img></div></div><div class = flankerRight_1><div class = cue-text><img class = center src=""/static/experiments/stop_signal_with_flanker/images/H.png""></img></div></div><div class = flankerRight_2><div class = cue-text><img class = center src=""/static/experiments/stop_signal_with_flanker/images/H.png""></img>",,go,,108137,0.0,practice_trial,30,stop-signal,
31,,,,,,,,500.0,,,,,,,stop_signal_with_flanker,,,,,,,,0.0-0.0-31.0,-1.0,none,,-1,500.0,"<div class = fb_box><div class = center-text><font size = 20>Correct!</font></div></div><ul style = ""text-align:left;""><font color=white><li>Indicate the identity of the middle letter</li><li>Do not respond if you see a star around the letters!</li><li>Do not slow down your responses to the letter to wait for the star.</li></font></ul>",,,,108639,0.0,practice-stop-feedback,31,poldrack-single-stim,
32,,,,,,,,500.0,,,,,,,stop_signal_with_flanker,,,,,,,,0.0-0.0-32.0,-1.0,none,,-1,500.0,<div class = centerbox><div class = fixation>+</div></div>,,,,109141,0.0,practice_fixation,32,poldrack-single-stim,
33,300.0,300.0,300.0,500.0,"<div class = bigbox><div class = centerbox><div class = starbox><img class = star src=""/static/experiments/stop_signal_with_flanker/images/stopSignal.png""></img></div></div></div>",stop,,2000.0,F,,-1.0,0.0,0.0,11.0,stop_signal_with_flanker,,,,,,F_incongruent,H,0.0-0.0-33.0,70.0,"[70, 72]",,679,1000.0,"<div class = bigbox><div class = centerbox><div class = flankerLeft_2><div class = cue-text><img class = center src=""/static/experiments/stop_signal_with_flanker/images/H.png""></img></div></div><div class = flankerLeft_1><div class = cue-text><img class = center src=""/static/experiments/stop_signal_with_flanker/images/H.png""></img></div></div><div class = flankerMiddle><div class = cue-text><img class = center src=""/static/experiments/stop_signal_with_flanker/images/F.png""></img></div></div><div class = flankerRight_1><div class = cue-text><img class = center src=""/static/experiments/stop_signal_with_flanker/images/H.png""></img></div></div><div class = flankerRight_2><div class = cue-text><img class = center src=""/static/experiments/stop_signal_with_flanker/images/H.png""></img>",0.0,stop,,111143,0.0,practice_trial,33,stop-signal,
34,,,,,,,,500.0,,,,,,,stop_signal_with_flanker,,,,,,,,0.0-0.0-34.0,-1.0,none,,-1,500.0,"<div class = fb_box><div class = center-text><font size = 20>There was a star.</font></div></div><ul style = ""text-align:left;""><font color=white><li>Indicate the identity of the middle letter</li><li>Do not respond if you see a star around the letters!</li><li>Do not slow down your responses to the letter to wait for the star.</li></font></ul>",,,,111646,0.0,practice-stop-feedback,34,poldrack-single-stim,
35,,,,,,,,500.0,,,,,,,stop_signal_with_flanker,,,,,,,,0.0-0.0-35.0,-1.0,none,,-1,500.0,<div class = centerbox><div class = fixation>+</div></div>,,,,112148,0.0,practice_fixation,35,poldrack-single-stim,
36,300.0,250.0,300.0,500.0,"<div class = bigbox><div class = centerbox><div class = starbox><img class = star src=""/static/experiments/stop_signal_with_flanker/images/stopSignal.png""></img></div></div></div>",stop,,2000.0,H,,-1.0,0.0,0.0,12.0,stop_signal_with_flanker,,,,,,H_congruent,H,0.0-0.0-36.0,72.0,"[70, 72]",,479,1000.0,"<div class = bigbox><div class = centerbox><div class = flankerLeft_2><div class = cue-text><img class = center src=""/static/experiments/stop_signal_with_flanker/images/H.png""></img></div></div><div class = flankerLeft_1><div class = cue-text><img class = center src=""/static/experiments/stop_signal_with_flanker/images/H.png""></img></div></div><div class = flankerMiddle><div class = cue-text><img class = center src=""/static/experiments/stop_signal_with_flanker/images/H.png""></img></div></div><div class = flankerRight_1><div class = cue-text><img class = center src=""/static/experiments/stop_signal_with_flanker/images/H.png""></img></div></div><div class = flankerRight_2><div class = cue-text><img class = center src=""/static/experiments/stop_signal_with_flanker/images/H.png""></img>",0.0,stop,,114151,0.0,practice_trial,36,stop-signal,
37,,,,,,,,500.0,,,,,,,stop_signal_with_flanker,,,,,,,,0.0-0.0-37.0,-1.0,none,,-1,500.0,"<div class = fb_box><div class = center-text><font size = 20>There was a star.</font></div></div><ul style = ""text-align:left;""><font color=white><li>Indicate the identity of the middle letter</li><li>Do not respond if you see a star around the letters!</li><li>Do not slow down your responses to the letter to wait for the star.</li></font></ul>",,,,114653,0.0,practice-stop-feedback,37,poldrack-single-stim,
38,,,,,,,,10557.0,,,,,,,stop_signal_with_flanker,,,,,,,,0.0-0.1-0.1,13.0,[13],,10557,10557.0,<div class = bigbox><div class = picture_box><p class = block-text><br>Please take this time to read your feedback and to take a short break! Press enter to continue.</p><p class = block-text>You have not been stopping your response when stars are present.  Please try your best to stop your response if you see a star.</p><p class = block-text>Redoing this practice. Press Enter to continue.</p></div></div>,,,,125214,0.0,feedback_block,38,poldrack-single-stim,
39,,,,,,,,,,,,,,,stop_signal_with_flanker,,,,,,,,0.0-0.1-1.1,,,,5551,,,,,,130765,,instruction,39,poldrack-instructions,"[{""page_index"":0,""viewing_time"":3559},{""page_index"":1,""viewing_time"":1040},{""page_index"":2,""viewing_time"":952}]"
40,,,,,,,,500.0,,,,,,,stop_signal_with_flanker,,,,,,,,0.0-0.1-2.1,-1.0,none,,-1,500.0,<div class = centerbox><div class = fixation>+</div></div>,,,,132269,0.0,practice_fixation,40,poldrack-single-stim,
41,250.0,250.0,250.0,500.0,"<div class = bigbox><div class = centerbox><div class = starbox><img class = star src=""/static/experiments/stop_signal_with_flanker/images/stopSignal.png""></img></div></div></div>",stop,,2000.0,F,,-1.0,1.0,1.0,1.0,stop_signal_with_flanker,,,,,,F_congruent,F,0.0-0.1-3.1,-1.0,"[70, 72]",,-1,1000.0,"<div class = bigbox><div class = centerbox><div class = flankerLeft_2><div class = cue-text><img class = center src=""/static/experiments/stop_signal_with_flanker/images/F.png""></img></div></div><div class = flankerLeft_1><div class = cue-text><img class = center src=""/static/experiments/stop_signal_with_flanker/images/F.png""></img></div></div><div class = flankerMiddle><div class = cue-text><img class = center src=""/static/experiments/stop_signal_with_flanker/images/F.png""></img></div></div><div class = flankerRight_1><div class = cue-text><img class = center src=""/static/experiments/stop_signal_with_flanker/images/F.png""></img></div></div><div class = flankerRight_2><div class = cue-text><img class = center src=""/static/experiments/stop_signal_with_flanker/images/F.png""></img>",1.0,stop,,134271,0.0,practice_trial,41,stop-signal,
42,,,,,,,,500.0,,,,,,,stop_signal_with_flanker,,,,,,,,0.0-0.1-4.1,-1.0,none,,-1,500.0,"<div class = fb_box><div class = center-text><font size = 20>Correct!</font></div></div><ul style = ""text-align:left;""><font color=white><li>Indicate the identity of the middle letter</li><li>Do not respond if you see a star around the letters!</li><li>Do not slow down your responses to the letter to wait for the star.</li></font></ul>",,,,134775,0.0,practice-stop-feedback,42,poldrack-single-stim,
43,,,,,,,,500.0,,,,,,,stop_signal_with_flanker,,,,,,,,0.0-0.1-5.1,-1.0,none,,-1,500.0,<div class = centerbox><div class = fixation>+</div></div>,,,,135278,0.0,practice_fixation,43,poldrack-single-stim,
44,300.0,250.0,250.0,500.0,"<div class = bigbox><div class = centerbox><div class = starbox><img class = star src=""/static/experiments/stop_signal_with_flanker/images/stopSignal.png""></img></div></div></div>",go,,2000.0,H,,72.0,1.0,1.0,2.0,stop_signal_with_flanker,,,,,,H_incongruent,F,0.0-0.1-6.1,72.0,"[70, 72]",,517,1000.0,"<div class = bigbox><div class = centerbox><div class = flankerLeft_2><div class = cue-text><img class = center src=""/static/experiments/stop_signal_with_flanker/images/F.png""></img></div></div><div class = flankerLeft_1><div class = cue-text><img class = center src=""/static/experiments/stop_signal_with_flanker/images/F.png""></img></div></div><div class = flankerMiddle><div class = cue-text><img class = center src=""/static/experiments/stop_signal_with_flanker/images/H.png""></img></div></div><div class = flankerRight_1><div class = cue-text><img class = center src=""/static/experiments/stop_signal_with_flanker/images/F.png""></img></div></div><div class = flankerRight_2><div class = cue-text><img class = center src=""/static/experiments/stop_signal_with_flanker/images/F.png""></img>",,go,,137281,0.0,practice_trial,44,stop-signal,
45,,,,,,,,500.0,,,,,,,stop_signal_with_flanker,,,,,,,,0.0-0.1-7.1,-1.0,none,,-1,500.0,"<div class = fb_box><div class = center-text><font size = 20>Correct!</font></div></div><ul style = ""text-align:left;""><font color=white><li>Indicate the identity of the middle letter</li><li>Do not respond if you see a star around the letters!</li><li>Do not slow down your responses to the letter to wait for the star.</li></font></ul>",,,,137783,0.0,practice-stop-feedback,45,poldrack-single-stim,
46,,,,,,,,500.0,,,,,,,stop_signal_with_flanker,,,,,,,,0.0-0.1-8.1,-1.0,none,,-1,500.0,<div class = centerbox><div class = fixation>+</div></div>,,,,138284,0.0,practice_fixation,46,poldrack-single-stim,
47,300.0,250.0,250.0,500.0,"<div class = bigbox><div class = centerbox><div class = starbox><img class = star src=""/static/experiments/stop_signal_with_flanker/images/stopSignal.png""></img></div></div></div>",go,,2000.0,H,,72.0,1.0,1.0,3.0,stop_signal_with_flanker,,,,,,H_incongruent,F,0.0-0.1-9.1,72.0,"[70, 72]",,616,1000.0,"<div class = bigbox><div class = centerbox><div class = flankerLeft_2><div class = cue-text><img class = center src=""/static/experiments/stop_signal_with_flanker/images/F.png""></img></div></div><div class = flankerLeft_1><div class = cue-text><img class = center src=""/static/experiments/stop_signal_with_flanker/images/F.png""></img></div></div><div class = flankerMiddle><div class = cue-text><img class = center src=""/static/experiments/stop_signal_with_flanker/images/H.png""></img></div></div><div class = flankerRight_1><div class = cue-text><img class = center src=""/static/experiments/stop_signal_with_flanker/images/F.png""></img></div></div><div class = flankerRight_2><div class = cue-text><img class = center src=""/static/experiments/stop_signal_with_flanker/images/F.png""></img>",,go,,140287,0.0,practice_trial,47,stop-signal,
48,,,,,,,,500.0,,,,,,,stop_signal_with_flanker,,,,,,,,0.0-0.1-10.1,-1.0,none,,-1,500.0,"<div class = fb_box><div class = center-text><font size = 20>Correct!</font></div></div><ul style = ""text-align:left;""><font color=white><li>Indicate the identity of the middle letter</li><li>Do not respond if you see a star around the letters!</li><li>Do not slow down your responses to the letter to wait for the star.</li></font></ul>",,,,140789,0.0,practice-stop-feedback,48,poldrack-single-stim,
49,,,,,,,,500.0,,,,,,,stop_signal_with_flanker,,,,,,,,0.0-0.1-11.1,-1.0,none,,-1,500.0,<div class = centerbox><div class = fixation>+</div></div>,,,,141291,0.0,practice_fixation,49,poldrack-single-stim,
50,300.0,250.0,250.0,500.0,"<div class = bigbox><div class = centerbox><div class = starbox><img class = star src=""/static/experiments/stop_signal_with_flanker/images/stopSignal.png""></img></div></div></div>",go,,2000.0,F,,70.0,1.0,1.0,4.0,stop_signal_with_flanker,,,,,,F_incongruent,H,0.0-0.1-12.1,70.0,"[70, 72]",,545,1000.0,"<div class = bigbox><div class = centerbox><div class = flankerLeft_2><div class = cue-text><img class = center src=""/static/experiments/stop_signal_with_flanker/images/H.png""></img></div></div><div class = flankerLeft_1><div class = cue-text><img class = center src=""/static/experiments/stop_signal_with_flanker/images/H.png""></img></div></div><div class = flankerMiddle><div class = cue-text><img class = center src=""/static/experiments/stop_signal_with_flanker/images/F.png""></img></div></div><div class = flankerRight_1><div class = cue-text><img class = center src=""/static/experiments/stop_signal_with_flanker/images/H.png""></img></div></div><div class = flankerRight_2><div class = cue-text><img class = center src=""/static/experiments/stop_signal_with_flanker/images/H.png""></img>",,go,,143294,0.0,practice_trial,50,stop-signal,
51,,,,,,,,500.0,,,,,,,stop_signal_with_flanker,,,,,,,,0.0-0.1-13.1,-1.0,none,,-1,500.0,"<div class = fb_box><div class = center-text><font size = 20>Correct!</font></div></div><ul style = ""text-align:left;""><font color=white><li>Indicate the identity of the middle letter</li><li>Do not respond if you see a star around the letters!</li><li>Do not slow down your responses to the letter to wait for the star.</li></font></ul>",,,,143796,0.0,practice-stop-feedback,51,poldrack-single-stim,
52,,,,,,,,500.0,,,,,,,stop_signal_with_flanker,,,,,,,,0.0-0.1-14.1,-1.0,none,,-1,500.0,<div class = centerbox><div class = fixation>+</div></div>,,,,144298,0.0,practice_fixation,52,poldrack-single-stim,
53,300.0,250.0,250.0,500.0,"<div class = bigbox><div class = centerbox><div class = starbox><img class = star src=""/static/experiments/stop_signal_with_flanker/images/stopSignal.png""></img></div></div></div>",stop,,2000.0,H,,-1.0,1.0,1.0,5.0,stop_signal_with_flanker,,,,,,H_incongruent,F,0.0-0.1-15.1,-1.0,"[70, 72]",,-1,1000.0,"<div class = bigbox><div class = centerbox><div class = flankerLeft_2><div class = cue-text><img class = center src=""/static/experiments/stop_signal_with_flanker/images/F.png""></img></div></div><div class = flankerLeft_1><div class = cue-text><img class = center src=""/static/experiments/stop_signal_with_flanker/images/F.png""></img></div></div><div class = flankerMiddle><div class = cue-text><img class = center src=""/static/experiments/stop_signal_with_flanker/images/H.png""></img></div></div><div class = flankerRight_1><div class = cue-text><img class = center src=""/static/experiments/stop_signal_with_flanker/images/F.png""></img></div></div><div class = flankerRight_2><div class = cue-text><img class = center src=""/static/experiments/stop_signal_with_flanker/images/F.png""></img>",1.0,stop,,146301,0.0,practice_trial,53,stop-signal,
54,,,,,,,,500.0,,,,,,,stop_signal_with_flanker,,,,,,,,0.0-0.1-16.1,-1.0,none,,-1,500.0,"<div class = fb_box><div class = center-text><font size = 20>Correct!</font></div></div><ul style = ""text-align:left;""><font color=white><li>Indicate the identity of the middle letter</li><li>Do not respond if you see a star around the letters!</li><li>Do not slow down your responses to the letter to wait for the star.</li></font></ul>",,,,146804,0.0,practice-stop-feedback,54,poldrack-single-stim,
55,,,,,,,,500.0,,,,,,,stop_signal_with_flanker,,,,,,,,0.0-0.1-17.1,-1.0,none,,-1,500.0,<div class = centerbox><div class = fixation>+</div></div>,,,,147306,0.0,practice_fixation,55,poldrack-single-stim,
56,300.0,300.0,300.0,500.0,"<div class = bigbox><div class = centerbox><div class = starbox><img class = star src=""/static/experiments/stop_signal_with_flanker/images/stopSignal.png""></img></div></div></div>",go,,2000.0,H,,72.0,1.0,1.0,6.0,stop_signal_with_flanker,,,,,,H_congruent,H,0.0-0.1-18.1,72.0,"[70, 72]",,529,1000.0,"<div class = bigbox><div class = centerbox><div class = flankerLeft_2><div class = cue-text><img class = center src=""/static/experiments/stop_signal_with_flanker/images/H.png""></img></div></div><div class = flankerLeft_1><div class = cue-text><img class = center src=""/static/experiments/stop_signal_with_flanker/images/H.png""></img></div></div><div class = flankerMiddle><div class = cue-text><img class = center src=""/static/experiments/stop_signal_with_flanker/images/H.png""></img></div></div><div class = flankerRight_1><div class = cue-text><img class = center src=""/static/experiments/stop_signal_with_flanker/images/H.png""></img></div></div><div class = flankerRight_2><div class = cue-text><img class = center src=""/static/experiments/stop_signal_with_flanker/images/H.png""></img>",,go,,149309,0.0,practice_trial,56,stop-signal,
57,,,,,,,,500.0,,,,,,,stop_signal_with_flanker,,,,,,,,0.0-0.1-19.1,-1.0,none,,-1,500.0,"<div class = fb_box><div class = center-text><font size = 20>Correct!</font></div></div><ul style = ""text-align:left;""><font color=white><li>Indicate the identity of the middle letter</li><li>Do not respond if you see a star around the letters!</li><li>Do not slow down your responses to the letter to wait for the star.</li></font></ul>",,,,149810,0.0,practice-stop-feedback,57,poldrack-single-stim,
58,,,,,,,,500.0,,,,,,,stop_signal_with_flanker,,,,,,,,0.0-0.1-20.1,-1.0,none,,-1,500.0,<div class = centerbox><div class = fixation>+</div></div>,,,,150312,0.0,practice_fixation,58,poldrack-single-stim,
59,300.0,300.0,300.0,500.0,"<div class = bigbox><div class = centerbox><div class = starbox><img class = star src=""/static/experiments/stop_signal_with_flanker/images/stopSignal.png""></img></div></div></div>",go,,2000.0,F,,70.0,1.0,1.0,7.0,stop_signal_with_flanker,,,,,,F_congruent,F,0.0-0.1-21.1,70.0,"[70, 72]",,579,1000.0,"<div class = bigbox><div class = centerbox><div class = flankerLeft_2><div class = cue-text><img class = center src=""/static/experiments/stop_signal_with_flanker/images/F.png""></img></div></div><div class = flankerLeft_1><div class = cue-text><img class = center src=""/static/experiments/stop_signal_with_flanker/images/F.png""></img></div></div><div class = flankerMiddle><div class = cue-text><img class = center src=""/static/experiments/stop_signal_with_flanker/images/F.png""></img></div></div><div class = flankerRight_1><div class = cue-text><img class = center src=""/static/experiments/stop_signal_with_flanker/images/F.png""></img></div></div><div class = flankerRight_2><div class = cue-text><img class = center src=""/static/experiments/stop_signal_with_flanker/images/F.png""></img>",,go,,152315,0.0,practice_trial,59,stop-signal,
60,,,,,,,,500.0,,,,,,,stop_signal_with_flanker,,,,,,,,0.0-0.1-22.1,-1.0,none,,-1,500.0,"<div class = fb_box><div class = center-text><font size = 20>Correct!</font></div></div><ul style = ""text-align:left;""><font color=white><li>Indicate the identity of the middle letter</li><li>Do not respond if you see a star around the letters!</li><li>Do not slow down your responses to the letter to wait for the star.</li></font></ul>",,,,152817,0.0,practice-stop-feedback,60,poldrack-single-stim,
61,,,,,,,,500.0,,,,,,,stop_signal_with_flanker,,,,,,,,0.0-0.1-23.1,-1.0,none,,-1,500.0,<div class = centerbox><div class = fixation>+</div></div>,,,,153318,0.0,practice_fixation,61,poldrack-single-stim,
62,300.0,300.0,300.0,500.0,"<div class = bigbox><div class = centerbox><div class = starbox><img class = star src=""/static/experiments/stop_signal_with_flanker/images/stopSignal.png""></img></div></div></div>",stop,,2000.0,H,,-1.0,1.0,1.0,8.0,stop_signal_with_flanker,,,,,,H_congruent,H,0.0-0.1-24.1,-1.0,"[70, 72]",,-1,1000.0,"<div class = bigbox><div class = centerbox><div class = flankerLeft_2><div class = cue-text><img class = center src=""/static/experiments/stop_signal_with_flanker/images/H.png""></img></div></div><div class = flankerLeft_1><div class = cue-text><img class = center src=""/static/experiments/stop_signal_with_flanker/images/H.png""></img></div></div><div class = flankerMiddle><div class = cue-text><img class = center src=""/static/experiments/stop_signal_with_flanker/images/H.png""></img></div></div><div class = flankerRight_1><div class = cue-text><img class = center src=""/static/experiments/stop_signal_with_flanker/images/H.png""></img></div></div><div class = flankerRight_2><div class = cue-text><img class = center src=""/static/experiments/stop_signal_with_flanker/images/H.png""></img>",1.0,stop,,155323,0.0,practice_trial,62,stop-signal,
63,,,,,,,,500.0,,,,,,,stop_signal_with_flanker,,,,,,,,0.0-0.1-25.1,-1.0,none,,-1,500.0,"<div class = fb_box><div class = center-text><font size = 20>Correct!</font></div></div><ul style = ""text-align:left;""><font color=white><li>Indicate the identity of the middle letter</li><li>Do not respond if you see a star around the letters!</li><li>Do not slow down your responses to the letter to wait for the star.</li></font></ul>",,,,155825,0.0,practice-stop-feedback,63,poldrack-single-stim,
64,,,,,,,,500.0,,,,,,,stop_signal_with_flanker,,,,,,,,0.0-0.1-26.1,-1.0,none,,-1,500.0,<div class = centerbox><div class = fixation>+</div></div>,,,,156327,0.0,practice_fixation,64,poldrack-single-stim,
65,350.0,300.0,300.0,500.0,"<div class = bigbox><div class = centerbox><div class = starbox><img class = star src=""/static/experiments/stop_signal_with_flanker/images/stopSignal.png""></img></div></div></div>",stop,,2000.0,F,,-1.0,1.0,1.0,9.0,stop_signal_with_flanker,,,,,,F_incongruent,H,0.0-0.1-27.1,-1.0,"[70, 72]",,-1,1000.0,"<div class = bigbox><div class = centerbox><div class = flankerLeft_2><div class = cue-text><img class = center src=""/static/experiments/stop_signal_with_flanker/images/H.png""></img></div></div><div class = flankerLeft_1><div class = cue-text><img class = center src=""/static/experiments/stop_signal_with_flanker/images/H.png""></img></div></div><div class = flankerMiddle><div class = cue-text><img class = center src=""/static/experiments/stop_signal_with_flanker/images/F.png""></img></div></div><div class = flankerRight_1><div class = cue-text><img class = center src=""/static/experiments/stop_signal_with_flanker/images/H.png""></img></div></div><div class = flankerRight_2><div class = cue-text><img class = center src=""/static/experiments/stop_signal_with_flanker/images/H.png""></img>",1.0,stop,,158330,0.0,practice_trial,65,stop-signal,
66,,,,,,,,500.0,,,,,,,stop_signal_with_flanker,,,,,,,,0.0-0.1-28.1,-1.0,none,,-1,500.0,"<div class = fb_box><div class = center-text><font size = 20>Correct!</font></div></div><ul style = ""text-align:left;""><font color=white><li>Indicate the identity of the middle letter</li><li>Do not respond if you see a star around the letters!</li><li>Do not slow down your responses to the letter to wait for the star.</li></font></ul>",,,,158831,0.0,practice-stop-feedback,66,poldrack-single-stim,
67,,,,,,,,500.0,,,,,,,stop_signal_with_flanker,,,,,,,,0.0-0.1-29.1,-1.0,none,,-1,500.0,<div class = centerbox><div class = fixation>+</div></div>,,,,159333,0.0,practice_fixation,67,poldrack-single-stim,
68,350.0,350.0,350.0,500.0,"<div class = bigbox><div class = centerbox><div class = starbox><img class = star src=""/static/experiments/stop_signal_with_flanker/images/stopSignal.png""></img></div></div></div>",go,,2000.0,H,,72.0,1.0,1.0,10.0,stop_signal_with_flanker,,,,,,H_congruent,H,0.0-0.1-30.1,72.0,"[70, 72]",,653,1000.0,"<div class = bigbox><div class = centerbox><div class = flankerLeft_2><div class = cue-text><img class = center src=""/static/experiments/stop_signal_with_flanker/images/H.png""></img></div></div><div class = flankerLeft_1><div class = cue-text><img class = center src=""/static/experiments/stop_signal_with_flanker/images/H.png""></img></div></div><div class = flankerMiddle><div class = cue-text><img class = center src=""/static/experiments/stop_signal_with_flanker/images/H.png""></img></div></div><div class = flankerRight_1><div class = cue-text><img class = center src=""/static/experiments/stop_signal_with_flanker/images/H.png""></img></div></div><div class = flankerRight_2><div class = cue-text><img class = center src=""/static/experiments/stop_signal_with_flanker/images/H.png""></img>",,go,,161337,0.0,practice_trial,68,stop-signal,
69,,,,,,,,500.0,,,,,,,stop_signal_with_flanker,,,,,,,,0.0-0.1-31.1,-1.0,none,,-1,500.0,"<div class = fb_box><div class = center-text><font size = 20>Correct!</font></div></div><ul style = ""text-align:left;""><font color=white><li>Indicate the identity of the middle letter</li><li>Do not respond if you see a star around the letters!</li><li>Do not slow down your responses to the letter to wait for the star.</li></font></ul>",,,,161839,0.0,practice-stop-feedback,69,poldrack-single-stim,
70,,,,,,,,500.0,,,,,,,stop_signal_with_flanker,,,,,,,,0.0-0.1-32.1,-1.0,none,,-1,500.0,<div class = centerbox><div class = fixation>+</div></div>,,,,162342,0.0,practice_fixation,70,poldrack-single-stim,
71,350.0,350.0,350.0,500.0,"<div class = bigbox><div class = centerbox><div class = starbox><img class = star src=""/static/experiments/stop_signal_with_flanker/images/stopSignal.png""></img></div></div></div>",go,,2000.0,F,,70.0,1.0,1.0,11.0,stop_signal_with_flanker,,,,,,F_incongruent,H,0.0-0.1-33.1,70.0,"[70, 72]",,622,1000.0,"<div class = bigbox><div class = centerbox><div class = flankerLeft_2><div class = cue-text><img class = center src=""/static/experiments/stop_signal_with_flanker/images/H.png""></img></div></div><div class = flankerLeft_1><div class = cue-text><img class = center src=""/static/experiments/stop_signal_with_flanker/images/H.png""></img></div></div><div class = flankerMiddle><div class = cue-text><img class = center src=""/static/experiments/stop_signal_with_flanker/images/F.png""></img></div></div><div class = flankerRight_1><div class = cue-text><img class = center src=""/static/experiments/stop_signal_with_flanker/images/H.png""></img></div></div><div class = flankerRight_2><div class = cue-text><img class = center src=""/static/experiments/stop_signal_with_flanker/images/H.png""></img>",,go,,164344,0.0,practice_trial,71,stop-signal,
72,,,,,,,,500.0,,,,,,,stop_signal_with_flanker,,,,,,,,0.0-0.1-34.1,-1.0,none,,-1,500.0,"<div class = fb_box><div class = center-text><font size = 20>Correct!</font></div></div><ul style = ""text-align:left;""><font color=white><li>Indicate the identity of the middle letter</li><li>Do not respond if you see a star around the letters!</li><li>Do not slow down your responses to the letter to wait for the star.</li></font></ul>",,,,164846,0.0,practice-stop-feedback,72,poldrack-single-stim,
73,,,,,,,,500.0,,,,,,,stop_signal_with_flanker,,,,,,,,0.0-0.1-35.1,-1.0,none,,-1,500.0,<div class = centerbox><div class = fixation>+</div></div>,,,,165347,0.0,practice_fixation,73,poldrack-single-stim,
74,350.0,350.0,350.0,500.0,"<div class = bigbox><div class = centerbox><div class = starbox><img class = star src=""/static/experiments/stop_signal_with_flanker/images/stopSignal.png""></img></div></div></div>",go,,2000.0,F,,70.0,1.0,1.0,12.0,stop_signal_with_flanker,,,,,,F_congruent,F,0.0-0.1-36.1,70.0,"[70, 72]",,592,1000.0,"<div class = bigbox><div class = centerbox><div class = flankerLeft_2><div class = cue-text><img class = center src=""/static/experiments/stop_signal_with_flanker/images/F.png""></img></div></div><div class = flankerLeft_1><div class = cue-text><img class = center src=""/static/experiments/stop_signal_with_flanker/images/F.png""></img></div></div><div class = flankerMiddle><div class = cue-text><img class = center src=""/static/experiments/stop_signal_with_flanker/images/F.png""></img></div></div><div class = flankerRight_1><div class = cue-text><img class = center src=""/static/experiments/stop_signal_with_flanker/images/F.png""></img></div></div><div class = flankerRight_2><div class = cue-text><img class = center src=""/static/experiments/stop_signal_with_flanker/images/F.png""></img>",,go,,167351,0.0,practice_trial,74,stop-signal,
75,,,,,,,,500.0,,,,,,,stop_signal_with_flanker,,,,,,,,0.0-0.1-37.1,-1.0,none,,-1,500.0,"<div class = fb_box><div class = center-text><font size = 20>Correct!</font></div></div><ul style = ""text-align:left;""><font color=white><li>Indicate the identity of the middle letter</li><li>Do not respond if you see a star around the letters!</li><li>Do not slow down your responses to the letter to wait for the star.</li></font></ul>",,,,167854,0.0,practice-stop-feedback,75,poldrack-single-stim,
76,,,,,,,,6053.0,,,,,,,stop_signal_with_flanker,,,,,,,,0.0-0.2-0.2,13.0,[13],,6053,6053.0,<div class = bigbox><div class = picture_box><p class = block-text><br>Please take this time to read your feedback and to take a short break! Press enter to continue.</p><p class = block-text>You have been responding too slowly.  Please respond as quickly and accurately to each stimulus that requires a response.</p><p class = block-text>Redoing this practice. Press Enter to continue.</p></div></div>,,,,173910,0.0,feedback_block,76,poldrack-single-stim,
77,,,,,,,,,,,,,,,stop_signal_with_flanker,,,,,,,,0.0-0.2-1.2,,,,7879,,,,,,181789,,instruction,77,poldrack-instructions,"[{""page_index"":0,""viewing_time"":4863},{""page_index"":1,""viewing_time"":816},{""page_index"":2,""viewing_time"":2200}]"
78,,,,,,,,500.0,,,,,,,stop_signal_with_flanker,,,,,,,,0.0-0.2-2.2,-1.0,none,,-1,500.0,<div class = centerbox><div class = fixation>+</div></div>,,,,183292,0.0,practice_fixation,78,poldrack-single-stim,
79,350.0,350.0,350.0,500.0,"<div class = bigbox><div class = centerbox><div class = starbox><img class = star src=""/static/experiments/stop_signal_with_flanker/images/stopSignal.png""></img></div></div></div>",go,,2000.0,H,,72.0,1.0,2.0,1.0,stop_signal_with_flanker,,,,,,H_congruent,H,0.0-0.2-3.2,72.0,"[70, 72]",,375,1000.0,"<div class = bigbox><div class = centerbox><div class = flankerLeft_2><div class = cue-text><img class = center src=""/static/experiments/stop_signal_with_flanker/images/H.png""></img></div></div><div class = flankerLeft_1><div class = cue-text><img class = center src=""/static/experiments/stop_signal_with_flanker/images/H.png""></img></div></div><div class = flankerMiddle><div class = cue-text><img class = center src=""/static/experiments/stop_signal_with_flanker/images/H.png""></img></div></div><div class = flankerRight_1><div class = cue-text><img class = center src=""/static/experiments/stop_signal_with_flanker/images/H.png""></img></div></div><div class = flankerRight_2><div class = cue-text><img class = center src=""/static/experiments/stop_signal_with_flanker/images/H.png""></img>",,go,,185296,0.0,practice_trial,79,stop-signal,
80,,,,,,,,500.0,,,,,,,stop_signal_with_flanker,,,,,,,,0.0-0.2-4.2,-1.0,none,,-1,500.0,"<div class = fb_box><div class = center-text><font size = 20>Correct!</font></div></div><ul style = ""text-align:left;""><font color=white><li>Indicate the identity of the middle letter</li><li>Do not respond if you see a star around the letters!</li><li>Do not slow down your responses to the letter to wait for the star.</li></font></ul>",,,,185799,0.0,practice-stop-feedback,80,poldrack-single-stim,
81,,,,,,,,500.0,,,,,,,stop_signal_with_flanker,,,,,,,,0.0-0.2-5.2,-1.0,none,,-1,500.0,<div class = centerbox><div class = fixation>+</div></div>,,,,186301,0.0,practice_fixation,81,poldrack-single-stim,
82,350.0,350.0,350.0,500.0,"<div class = bigbox><div class = centerbox><div class = starbox><img class = star src=""/static/experiments/stop_signal_with_flanker/images/stopSignal.png""></img></div></div></div>",stop,,2000.0,H,,-1.0,0.0,2.0,2.0,stop_signal_with_flanker,,,,,,H_congruent,H,0.0-0.2-6.2,72.0,"[70, 72]",,488,1000.0,"<div class = bigbox><div class = centerbox><div class = flankerLeft_2><div class = cue-text><img class = center src=""/static/experiments/stop_signal_with_flanker/images/H.png""></img></div></div><div class = flankerLeft_1><div class = cue-text><img class = center src=""/static/experiments/stop_signal_with_flanker/images/H.png""></img></div></div><div class = flankerMiddle><div class = cue-text><img class = center src=""/static/experiments/stop_signal_with_flanker/images/H.png""></img></div></div><div class = flankerRight_1><div class = cue-text><img class = center src=""/static/experiments/stop_signal_with_flanker/images/H.png""></img></div></div><div class = flankerRight_2><div class = cue-text><img class = center src=""/static/experiments/stop_signal_with_flanker/images/H.png""></img>",0.0,stop,,188304,0.0,practice_trial,82,stop-signal,
83,,,,,,,,500.0,,,,,,,stop_signal_with_flanker,,,,,,,,0.0-0.2-7.2,-1.0,none,,-1,500.0,"<div class = fb_box><div class = center-text><font size = 20>There was a star.</font></div></div><ul style = ""text-align:left;""><font color=white><li>Indicate the identity of the middle letter</li><li>Do not respond if you see a star around the letters!</li><li>Do not slow down your responses to the letter to wait for the star.</li></font></ul>",,,,188807,0.0,practice-stop-feedback,83,poldrack-single-stim,
84,,,,,,,,500.0,,,,,,,stop_signal_with_flanker,,,,,,,,0.0-0.2-8.2,-1.0,none,,-1,500.0,<div class = centerbox><div class = fixation>+</div></div>,,,,189308,0.0,practice_fixation,84,poldrack-single-stim,
85,300.0,350.0,350.0,500.0,"<div class = bigbox><div class = centerbox><div class = starbox><img class = star src=""/static/experiments/stop_signal_with_flanker/images/stopSignal.png""></img></div></div></div>",go,,2000.0,H,,72.0,0.0,2.0,3.0,stop_signal_with_flanker,,,,,,H_incongruent,F,0.0-0.2-9.2,70.0,"[70, 72]",,535,1000.0,"<div class = bigbox><div class = centerbox><div class = flankerLeft_2><div class = cue-text><img class = center src=""/static/experiments/stop_signal_with_flanker/images/F.png""></img></div></div><div class = flankerLeft_1><div class = cue-text><img class = center src=""/static/experiments/stop_signal_with_flanker/images/F.png""></img></div></div><div class = flankerMiddle><div class = cue-text><img class = center src=""/static/experiments/stop_signal_with_flanker/images/H.png""></img></div></div><div class = flankerRight_1><div class = cue-text><img class = center src=""/static/experiments/stop_signal_with_flanker/images/F.png""></img></div></div><div class = flankerRight_2><div class = cue-text><img class = center src=""/static/experiments/stop_signal_with_flanker/images/F.png""></img>",,go,,191312,0.0,practice_trial,85,stop-signal,
86,,,,,,,,500.0,,,,,,,stop_signal_with_flanker,,,,,,,,0.0-0.2-10.2,-1.0,none,,-1,500.0,"<div class = fb_box><div class = center-text><font size = 20>Incorrect</font></div></div><ul style = ""text-align:left;""><font color=white><li>Indicate the identity of the middle letter</li><li>Do not respond if you see a star around the letters!</li><li>Do not slow down your responses to the letter to wait for the star.</li></font></ul>",,,,191815,0.0,practice-stop-feedback,86,poldrack-single-stim,
87,,,,,,,,500.0,,,,,,,stop_signal_with_flanker,,,,,,,,0.0-0.2-11.2,-1.0,none,,-1,500.0,<div class = centerbox><div class = fixation>+</div></div>,,,,192317,0.0,practice_fixation,87,poldrack-single-stim,
88,300.0,350.0,350.0,500.0,"<div class = bigbox><div class = centerbox><div class = starbox><img class = star src=""/static/experiments/stop_signal_with_flanker/images/stopSignal.png""></img></div></div></div>",stop,,2000.0,F,,-1.0,0.0,2.0,4.0,stop_signal_with_flanker,,,,,,F_incongruent,H,0.0-0.2-12.2,70.0,"[70, 72]",,582,1000.0,"<div class = bigbox><div class = centerbox><div class = flankerLeft_2><div class = cue-text><img class = center src=""/static/experiments/stop_signal_with_flanker/images/H.png""></img></div></div><div class = flankerLeft_1><div class = cue-text><img class = center src=""/static/experiments/stop_signal_with_flanker/images/H.png""></img></div></div><div class = flankerMiddle><div class = cue-text><img class = center src=""/static/experiments/stop_signal_with_flanker/images/F.png""></img></div></div><div class = flankerRight_1><div class = cue-text><img class = center src=""/static/experiments/stop_signal_with_flanker/images/H.png""></img></div></div><div class = flankerRight_2><div class = cue-text><img class = center src=""/static/experiments/stop_signal_with_flanker/images/H.png""></img>",0.0,stop,,194320,0.0,practice_trial,88,stop-signal,
89,,,,,,,,500.0,,,,,,,stop_signal_with_flanker,,,,,,,,0.0-0.2-13.2,-1.0,none,,-1,500.0,"<div class = fb_box><div class = center-text><font size = 20>There was a star.</font></div></div><ul style = ""text-align:left;""><font color=white><li>Indicate the identity of the middle letter</li><li>Do not respond if you see a star around the letters!</li><li>Do not slow down your responses to the letter to wait for the star.</li></font></ul>",,,,194822,0.0,practice-stop-feedback,89,poldrack-single-stim,
90,,,,,,,,500.0,,,,,,,stop_signal_with_flanker,,,,,,,,0.0-0.2-14.2,-1.0,none,,-1,500.0,<div class = centerbox><div class = fixation>+</div></div>,,,,195324,0.0,practice_fixation,90,poldrack-single-stim,
91,300.0,300.0,300.0,500.0,"<div class = bigbox><div class = centerbox><div class = starbox><img class = star src=""/static/experiments/stop_signal_with_flanker/images/stopSignal.png""></img></div></div></div>",go,,2000.0,F,,70.0,1.0,2.0,5.0,stop_signal_with_flanker,,,,,,F_incongruent,H,0.0-0.2-15.2,70.0,"[70, 72]",,671,1000.0,"<div class = bigbox><div class = centerbox><div class = flankerLeft_2><div class = cue-text><img class = center src=""/static/experiments/stop_signal_with_flanker/images/H.png""></img></div></div><div class = flankerLeft_1><div class = cue-text><img class = center src=""/static/experiments/stop_signal_with_flanker/images/H.png""></img></div></div><div class = flankerMiddle><div class = cue-text><img class = center src=""/static/experiments/stop_signal_with_flanker/images/F.png""></img></div></div><div class = flankerRight_1><div class = cue-text><img class = center src=""/static/experiments/stop_signal_with_flanker/images/H.png""></img></div></div><div class = flankerRight_2><div class = cue-text><img class = center src=""/static/experiments/stop_signal_with_flanker/images/H.png""></img>",,go,,197327,0.0,practice_trial,91,stop-signal,
92,,,,,,,,500.0,,,,,,,stop_signal_with_flanker,,,,,,,,0.0-0.2-16.2,-1.0,none,,-1,500.0,"<div class = fb_box><div class = center-text><font size = 20>Correct!</font></div></div><ul style = ""text-align:left;""><font color=white><li>Indicate the identity of the middle letter</li><li>Do not respond if you see a star around the letters!</li><li>Do not slow down your responses to the letter to wait for the star.</li></font></ul>",,,,197829,0.0,practice-stop-feedback,92,poldrack-single-stim,
93,,,,,,,,500.0,,,,,,,stop_signal_with_flanker,,,,,,,,0.0-0.2-17.2,-1.0,none,,-1,500.0,<div class = centerbox><div class = fixation>+</div></div>,,,,198331,0.0,practice_fixation,93,poldrack-single-stim,
94,300.0,300.0,300.0,500.0,"<div class = bigbox><div class = centerbox><div class = starbox><img class = star src=""/static/experiments/stop_signal_with_flanker/images/stopSignal.png""></img></div></div></div>",go,,2000.0,F,,70.0,1.0,2.0,6.0,stop_signal_with_flanker,,,,,,F_incongruent,H,0.0-0.2-18.2,70.0,"[70, 72]",,520,1000.0,"<div class = bigbox><div class = centerbox><div class = flankerLeft_2><div class = cue-text><img class = center src=""/static/experiments/stop_signal_with_flanker/images/H.png""></img></div></div><div class = flankerLeft_1><div class = cue-text><img class = center src=""/static/experiments/stop_signal_with_flanker/images/H.png""></img></div></div><div class = flankerMiddle><div class = cue-text><img class = center src=""/static/experiments/stop_signal_with_flanker/images/F.png""></img></div></div><div class = flankerRight_1><div class = cue-text><img class = center src=""/static/experiments/stop_signal_with_flanker/images/H.png""></img></div></div><div class = flankerRight_2><div class = cue-text><img class = center src=""/static/experiments/stop_signal_with_flanker/images/H.png""></img>",,go,,200336,0.0,practice_trial,94,stop-signal,
95,,,,,,,,500.0,,,,,,,stop_signal_with_flanker,,,,,,,,0.0-0.2-19.2,-1.0,none,,-1,500.0,"<div class = fb_box><div class = center-text><font size = 20>Correct!</font></div></div><ul style = ""text-align:left;""><font color=white><li>Indicate the identity of the middle letter</li><li>Do not respond if you see a star around the letters!</li><li>Do not slow down your responses to the letter to wait for the star.</li></font></ul>",,,,200838,0.0,practice-stop-feedback,95,poldrack-single-stim,
96,,,,,,,,500.0,,,,,,,stop_signal_with_flanker,,,,,,,,0.0-0.2-20.2,-1.0,none,,-1,500.0,<div class = centerbox><div class = fixation>+</div></div>,,,,201339,0.0,practice_fixation,96,poldrack-single-stim,
97,300.0,300.0,300.0,500.0,"<div class = bigbox><div class = centerbox><div class = starbox><img class = star src=""/static/experiments/stop_signal_with_flanker/images/stopSignal.png""></img></div></div></div>",go,,2000.0,H,,72.0,1.0,2.0,7.0,stop_signal_with_flanker,,,,,,H_congruent,H,0.0-0.2-21.2,72.0,"[70, 72]",,464,1000.0,"<div class = bigbox><div class = centerbox><div class = flankerLeft_2><div class = cue-text><img class = center src=""/static/experiments/stop_signal_with_flanker/images/H.png""></img></div></div><div class = flankerLeft_1><div class = cue-text><img class = center src=""/static/experiments/stop_signal_with_flanker/images/H.png""></img></div></div><div class = flankerMiddle><div class = cue-text><img class = center src=""/static/experiments/stop_signal_with_flanker/images/H.png""></img></div></div><div class = flankerRight_1><div class = cue-text><img class = center src=""/static/experiments/stop_signal_with_flanker/images/H.png""></img></div></div><div class = flankerRight_2><div class = cue-text><img class = center src=""/static/experiments/stop_signal_with_flanker/images/H.png""></img>",,go,,203342,0.0,practice_trial,97,stop-signal,
98,,,,,,,,500.0,,,,,,,stop_signal_with_flanker,,,,,,,,0.0-0.2-22.2,-1.0,none,,-1,500.0,"<div class = fb_box><div class = center-text><font size = 20>Correct!</font></div></div><ul style = ""text-align:left;""><font color=white><li>Indicate the identity of the middle letter</li><li>Do not respond if you see a star around the letters!</li><li>Do not slow down your responses to the letter to wait for the star.</li></font></ul>",,,,203844,0.0,practice-stop-feedback,98,poldrack-single-stim,
99,,,,,,,,500.0,,,,,,,stop_signal_with_flanker,,,,,,,,0.0-0.2-23.2,-1.0,none,,-1,500.0,<div class = centerbox><div class = fixation>+</div></div>,,,,204346,0.0,practice_fixation,99,poldrack-single-stim,
100,300.0,300.0,300.0,500.0,"<div class = bigbox><div class = centerbox><div class = starbox><img class = star src=""/static/experiments/stop_signal_with_flanker/images/stopSignal.png""></img></div></div></div>",stop,,2000.0,F,,-1.0,0.0,2.0,8.0,stop_signal_with_flanker,,,,,,F_congruent,F,0.0-0.2-24.2,70.0,"[70, 72]",,465,1000.0,"<div class = bigbox><div class = centerbox><div class = flankerLeft_2><div class = cue-text><img class = center src=""/static/experiments/stop_signal_with_flanker/images/F.png""></img></div></div><div class = flankerLeft_1><div class = cue-text><img class = center src=""/static/experiments/stop_signal_with_flanker/images/F.png""></img></div></div><div class = flankerMiddle><div class = cue-text><img class = center src=""/static/experiments/stop_signal_with_flanker/images/F.png""></img></div></div><div class = flankerRight_1><div class = cue-text><img class = center src=""/static/experiments/stop_signal_with_flanker/images/F.png""></img></div></div><div class = flankerRight_2><div class = cue-text><img class = center src=""/static/experiments/stop_signal_with_flanker/images/F.png""></img>",0.0,stop,,206349,0.0,practice_trial,100,stop-signal,
101,,,,,,,,500.0,,,,,,,stop_signal_with_flanker,,,,,,,,0.0-0.2-25.2,-1.0,none,,-1,500.0,"<div class = fb_box><div class = center-text><font size = 20>There was a star.</font></div></div><ul style = ""text-align:left;""><font color=white><li>Indicate the identity of the middle letter</li><li>Do not respond if you see a star around the letters!</li><li>Do not slow down your responses to the letter to wait for the star.</li></font></ul>",,,,206853,0.0,practice-stop-feedback,101,poldrack-single-stim,
102,,,,,,,,500.0,,,,,,,stop_signal_with_flanker,,,,,,,,0.0-0.2-26.2,-1.0,none,,-1,500.0,<div class = centerbox><div class = fixation>+</div></div>,,,,207355,0.0,practice_fixation,102,poldrack-single-stim,
103,250.0,300.0,300.0,500.0,"<div class = bigbox><div class = centerbox><div class = starbox><img class = star src=""/static/experiments/stop_signal_with_flanker/images/stopSignal.png""></img></div></div></div>",stop,,2000.0,H,,-1.0,1.0,2.0,9.0,stop_signal_with_flanker,,,,,,H_incongruent,F,0.0-0.2-27.2,-1.0,"[70, 72]",,-1,1000.0,"<div class = bigbox><div class = centerbox><div class = flankerLeft_2><div class = cue-text><img class = center src=""/static/experiments/stop_signal_with_flanker/images/F.png""></img></div></div><div class = flankerLeft_1><div class = cue-text><img class = center src=""/static/experiments/stop_signal_with_flanker/images/F.png""></img></div></div><div class = flankerMiddle><div class = cue-text><img class = center src=""/static/experiments/stop_signal_with_flanker/images/H.png""></img></div></div><div class = flankerRight_1><div class = cue-text><img class = center src=""/static/experiments/stop_signal_with_flanker/images/F.png""></img></div></div><div class = flankerRight_2><div class = cue-text><img class = center src=""/static/experiments/stop_signal_with_flanker/images/F.png""></img>",1.0,stop,,209358,0.0,practice_trial,103,stop-signal,
104,,,,,,,,500.0,,,,,,,stop_signal_with_flanker,,,,,,,,0.0-0.2-28.2,-1.0,none,,-1,500.0,"<div class = fb_box><div class = center-text><font size = 20>Correct!</font></div></div><ul style = ""text-align:left;""><font color=white><li>Indicate the identity of the middle letter</li><li>Do not respond if you see a star around the letters!</li><li>Do not slow down your responses to the letter to wait for the star.</li></font></ul>",,,,209861,0.0,practice-stop-feedback,104,poldrack-single-stim,
105,,,,,,,,500.0,,,,,,,stop_signal_with_flanker,,,,,,,,0.0-0.2-29.2,-1.0,none,,-1,500.0,<div class = centerbox><div class = fixation>+</div></div>,,,,210363,0.0,practice_fixation,105,poldrack-single-stim,
106,250.0,350.0,250.0,500.0,"<div class = bigbox><div class = centerbox><div class = starbox><img class = star src=""/static/experiments/stop_signal_with_flanker/images/stopSignal.png""></img></div></div></div>",go,,2000.0,F,,70.0,1.0,2.0,10.0,stop_signal_with_flanker,,,,,,F_congruent,F,0.0-0.2-30.2,70.0,"[70, 72]",,489,1000.0,"<div class = bigbox><div class = centerbox><div class = flankerLeft_2><div class = cue-text><img class = center src=""/static/experiments/stop_signal_with_flanker/images/F.png""></img></div></div><div class = flankerLeft_1><div class = cue-text><img class = center src=""/static/experiments/stop_signal_with_flanker/images/F.png""></img></div></div><div class = flankerMiddle><div class = cue-text><img class = center src=""/static/experiments/stop_signal_with_flanker/images/F.png""></img></div></div><div class = flankerRight_1><div class = cue-text><img class = center src=""/static/experiments/stop_signal_with_flanker/images/F.png""></img></div></div><div class = flankerRight_2><div class = cue-text><img class = center src=""/static/experiments/stop_signal_with_flanker/images/F.png""></img>",,go,,212366,0.0,practice_trial,106,stop-signal,
107,,,,,,,,500.0,,,,,,,stop_signal_with_flanker,,,,,,,,0.0-0.2-31.2,-1.0,none,,-1,500.0,"<div class = fb_box><div class = center-text><font size = 20>Correct!</font></div></div><ul style = ""text-align:left;""><font color=white><li>Indicate the identity of the middle letter</li><li>Do not respond if you see a star around the letters!</li><li>Do not slow down your responses to the letter to wait for the star.</li></font></ul>",,,,212867,0.0,practice-stop-feedback,107,poldrack-single-stim,
108,,,,,,,,500.0,,,,,,,stop_signal_with_flanker,,,,,,,,0.0-0.2-32.2,-1.0,none,,-1,500.0,<div class = centerbox><div class = fixation>+</div></div>,,,,213371,0.0,practice_fixation,108,poldrack-single-stim,
109,250.0,350.0,250.0,500.0,"<div class = bigbox><div class = centerbox><div class = starbox><img class = star src=""/static/experiments/stop_signal_with_flanker/images/stopSignal.png""></img></div></div></div>",go,,2000.0,F,,70.0,1.0,2.0,11.0,stop_signal_with_flanker,,,,,,F_congruent,F,0.0-0.2-33.2,70.0,"[70, 72]",,415,1000.0,"<div class = bigbox><div class = centerbox><div class = flankerLeft_2><div class = cue-text><img class = center src=""/static/experiments/stop_signal_with_flanker/images/F.png""></img></div></div><div class = flankerLeft_1><div class = cue-text><img class = center src=""/static/experiments/stop_signal_with_flanker/images/F.png""></img></div></div><div class = flankerMiddle><div class = cue-text><img class = center src=""/static/experiments/stop_signal_with_flanker/images/F.png""></img></div></div><div class = flankerRight_1><div class = cue-text><img class = center src=""/static/experiments/stop_signal_with_flanker/images/F.png""></img></div></div><div class = flankerRight_2><div class = cue-text><img class = center src=""/static/experiments/stop_signal_with_flanker/images/F.png""></img>",,go,,215375,0.0,practice_trial,109,stop-signal,
110,,,,,,,,500.0,,,,,,,stop_signal_with_flanker,,,,,,,,0.0-0.2-34.2,-1.0,none,,-1,500.0,"<div class = fb_box><div class = center-text><font size = 20>Correct!</font></div></div><ul style = ""text-align:left;""><font color=white><li>Indicate the identity of the middle letter</li><li>Do not respond if you see a star around the letters!</li><li>Do not slow down your responses to the letter to wait for the star.</li></font></ul>",,,,215879,0.0,practice-stop-feedback,110,poldrack-single-stim,
111,,,,,,,,500.0,,,,,,,stop_signal_with_flanker,,,,,,,,0.0-0.2-35.2,-1.0,none,,-1,500.0,<div class = centerbox><div class = fixation>+</div></div>,,,,216380,0.0,practice_fixation,111,poldrack-single-stim,
112,250.0,350.0,350.0,500.0,"<div class = bigbox><div class = centerbox><div class = starbox><img class = star src=""/static/experiments/stop_signal_with_flanker/images/stopSignal.png""></img></div></div></div>",go,,2000.0,H,,72.0,1.0,2.0,12.0,stop_signal_with_flanker,,,,,,H_incongruent,F,0.0-0.2-36.2,72.0,"[70, 72]",,550,1000.0,"<div class = bigbox><div class = centerbox><div class = flankerLeft_2><div class = cue-text><img class = center src=""/static/experiments/stop_signal_with_flanker/images/F.png""></img></div></div><div class = flankerLeft_1><div class = cue-text><img class = center src=""/static/experiments/stop_signal_with_flanker/images/F.png""></img></div></div><div class = flankerMiddle><div class = cue-text><img class = center src=""/static/experiments/stop_signal_with_flanker/images/H.png""></img></div></div><div class = flankerRight_1><div class = cue-text><img class = center src=""/static/experiments/stop_signal_with_flanker/images/F.png""></img></div></div><div class = flankerRight_2><div class = cue-text><img class = center src=""/static/experiments/stop_signal_with_flanker/images/F.png""></img>",,go,,218383,0.0,practice_trial,112,stop-signal,
113,,,,,,,,500.0,,,,,,,stop_signal_with_flanker,,,,,,,,0.0-0.2-37.2,-1.0,none,,-1,500.0,"<div class = fb_box><div class = center-text><font size = 20>Correct!</font></div></div><ul style = ""text-align:left;""><font color=white><li>Indicate the identity of the middle letter</li><li>Do not respond if you see a star around the letters!</li><li>Do not slow down your responses to the letter to wait for the star.</li></font></ul>",,,,218885,0.0,practice-stop-feedback,113,poldrack-single-stim,
114,,,,,,,,3045.0,,,,,,,stop_signal_with_flanker,,,,,,,,0.0-1.0,13.0,[13],,3045,3045.0,<div class = bigbox><div class = picture_box><p class = block-text><br>Please take this time to read your feedback and to take a short break! Press enter to continue.</p><p class = block-text>Done with this practice.</p></div></div>,,,,221933,0.0,feedback_block,114,poldrack-single-stim,
115,,,,,,,,4166.0,,,,,,,stop_signal_with_flanker,,,,,,,,0.0-2.0,13.0,,,4166,,,,,"<div class = centerbox><p class = block-text>We will now start the test portion. In this experiment you will see a row of letters. If the middle letter is H, please press the H Key.  If the middle letter is F, press the F Key. Respond as quickly and accurately as possible. Ignore the letters not in the middle!</p> <p class = block-text>On some trials, you will see a star appear with or shortly after the letters. Do not respond if you see a star.  Do not slow down your responses to the letter in order to wait for the star.</p><p class = block-text>Press Enter to continue.</p></div>",226101,1000.0,instruction,115,poldrack-text,
116,,,,,,,,1461.0,,,,,,,stop_signal_with_flanker,,,,,,,,0.0-3.0-0.0,13.0,[13],,1461,1461.0,<div class = bigbox><div class = picture_box><p class = block-text>We will now start the test portion. Press enter to begin.</p></div></div>,,,,228565,0.0,feedback_block,116,poldrack-single-stim,
117,,,,,,,,3639.0,,True,38.0,,,,stop_signal_with_flanker,,,,,,,,0.0-3.0-1.0-0.0,38.0,[],,3639,3639.0,<p>Press the arrow key that indicates the direction of the sky when standing.</p>,,,,232206,200.0,attention_check,117,attention-check,
118,,,,,,,,500.0,,,,,,,stop_signal_with_flanker,,,,,,,,0.0-3.0-2.0,-1.0,none,,-1,500.0,<div class = centerbox><div class = fixation>+</div></div>,,,,232908,0.0,test_fixation,118,poldrack-single-stim,
119,250.0,350.0,350.0,500.0,"<div class = bigbox><div class = centerbox><div class = starbox><img class = star src=""/static/experiments/stop_signal_with_flanker/images/stopSignal.png""></img></div></div></div>",go,,2000.0,F,,70.0,1.0,0.0,1.0,stop_signal_with_flanker,,,,,,F_incongruent,H,0.0-3.0-3.0,70.0,"[70, 72]",,494,1000.0,"<div class = bigbox><div class = centerbox><div class = flankerLeft_2><div class = cue-text><img class = center src=""/static/experiments/stop_signal_with_flanker/images/H.png""></img></div></div><div class = flankerLeft_1><div class = cue-text><img class = center src=""/static/experiments/stop_signal_with_flanker/images/H.png""></img></div></div><div class = flankerMiddle><div class = cue-text><img class = center src=""/static/experiments/stop_signal_with_flanker/images/F.png""></img></div></div><div class = flankerRight_1><div class = cue-text><img class = center src=""/static/experiments/stop_signal_with_flanker/images/H.png""></img></div></div><div class = flankerRight_2><div class = cue-text><img class = center src=""/static/experiments/stop_signal_with_flanker/images/H.png""></img>",,go,,234911,0.0,test_trial,119,stop-signal,
120,,,,,,,,500.0,,,,,,,stop_signal_with_flanker,,,,,,,,0.0-3.0-4.0,-1.0,none,,-1,500.0,<div class = centerbox><div class = fixation>+</div></div>,,,,235413,0.0,test_fixation,120,poldrack-single-stim,
121,250.0,350.0,350.0,500.0,"<div class = bigbox><div class = centerbox><div class = starbox><img class = star src=""/static/experiments/stop_signal_with_flanker/images/stopSignal.png""></img></div></div></div>",stop,,2000.0,H,,-1.0,0.0,0.0,2.0,stop_signal_with_flanker,,,,,,H_incongruent,F,0.0-3.0-5.0,72.0,"[70, 72]",,358,1000.0,"<div class = bigbox><div class = centerbox><div class = flankerLeft_2><div class = cue-text><img class = center src=""/static/experiments/stop_signal_with_flanker/images/F.png""></img></div></div><div class = flankerLeft_1><div class = cue-text><img class = center src=""/static/experiments/stop_signal_with_flanker/images/F.png""></img></div></div><div class = flankerMiddle><div class = cue-text><img class = center src=""/static/experiments/stop_signal_with_flanker/images/H.png""></img></div></div><div class = flankerRight_1><div class = cue-text><img class = center src=""/static/experiments/stop_signal_with_flanker/images/F.png""></img></div></div><div class = flankerRight_2><div class = cue-text><img class = center src=""/static/experiments/stop_signal_with_flanker/images/F.png""></img>",0.0,stop,,237416,0.0,test_trial,121,stop-signal,
122,,,,,,,,500.0,,,,,,,stop_signal_with_flanker,,,,,,,,0.0-3.0-6.0,-1.0,none,,-1,500.0,<div class = centerbox><div class = fixation>+</div></div>,,,,237918,0.0,test_fixation,122,poldrack-single-stim,
123,250.0,300.0,250.0,500.0,"<div class = bigbox><div class = centerbox><div class = starbox><img class = star src=""/static/experiments/stop_signal_with_flanker/images/stopSignal.png""></img></div></div></div>",go,,2000.0,F,,70.0,1.0,0.0,3.0,stop_signal_with_flanker,,,,,,F_congruent,F,0.0-3.0-7.0,70.0,"[70, 72]",,437,1000.0,"<div class = bigbox><div class = centerbox><div class = flankerLeft_2><div class = cue-text><img class = center src=""/static/experiments/stop_signal_with_flanker/images/F.png""></img></div></div><div class = flankerLeft_1><div class = cue-text><img class = center src=""/static/experiments/stop_signal_with_flanker/images/F.png""></img></div></div><div class = flankerMiddle><div class = cue-text><img class = center src=""/static/experiments/stop_signal_with_flanker/images/F.png""></img></div></div><div class = flankerRight_1><div class = cue-text><img class = center src=""/static/experiments/stop_signal_with_flanker/images/F.png""></img></div></div><div class = flankerRight_2><div class = cue-text><img class = center src=""/static/experiments/stop_signal_with_flanker/images/F.png""></img>",,go,,239920,0.0,test_trial,123,stop-signal,
124,,,,,,,,500.0,,,,,,,stop_signal_with_flanker,,,,,,,,0.0-3.0-8.0,-1.0,none,,-1,500.0,<div class = centerbox><div class = fixation>+</div></div>,,,,240424,0.0,test_fixation,124,poldrack-single-stim,
125,250.0,300.0,300.0,500.0,"<div class = bigbox><div class = centerbox><div class = starbox><img class = star src=""/static/experiments/stop_signal_with_flanker/images/stopSignal.png""></img></div></div></div>",go,,2000.0,H,,72.0,1.0,0.0,4.0,stop_signal_with_flanker,,,,,,H_incongruent,F,0.0-3.0-9.0,72.0,"[70, 72]",,507,1000.0,"<div class = bigbox><div class = centerbox><div class = flankerLeft_2><div class = cue-text><img class = center src=""/static/experiments/stop_signal_with_flanker/images/F.png""></img></div></div><div class = flankerLeft_1><div class = cue-text><img class = center src=""/static/experiments/stop_signal_with_flanker/images/F.png""></img></div></div><div class = flankerMiddle><div class = cue-text><img class = center src=""/static/experiments/stop_signal_with_flanker/images/H.png""></img></div></div><div class = flankerRight_1><div class = cue-text><img class = center src=""/static/experiments/stop_signal_with_flanker/images/F.png""></img></div></div><div class = flankerRight_2><div class = cue-text><img class = center src=""/static/experiments/stop_signal_with_flanker/images/F.png""></img>",,go,,242426,0.0,test_trial,125,stop-signal,
126,,,,,,,,500.0,,,,,,,stop_signal_with_flanker,,,,,,,,0.0-3.0-10.0,-1.0,none,,-1,500.0,<div class = centerbox><div class = fixation>+</div></div>,,,,242927,0.0,test_fixation,126,poldrack-single-stim,
127,250.0,300.0,250.0,500.0,"<div class = bigbox><div class = centerbox><div class = starbox><img class = star src=""/static/experiments/stop_signal_with_flanker/images/stopSignal.png""></img></div></div></div>",go,,2000.0,H,,72.0,1.0,0.0,5.0,stop_signal_with_flanker,,,,,,H_congruent,H,0.0-3.0-11.0,72.0,"[70, 72]",,453,1000.0,"<div class = bigbox><div class = centerbox><div class = flankerLeft_2><div class = cue-text><img class = center src=""/static/experiments/stop_signal_with_flanker/images/H.png""></img></div></div><div class = flankerLeft_1><div class = cue-text><img class = center src=""/static/experiments/stop_signal_with_flanker/images/H.png""></img></div></div><div class = flankerMiddle><div class = cue-text><img class = center src=""/static/experiments/stop_signal_with_flanker/images/H.png""></img></div></div><div class = flankerRight_1><div class = cue-text><img class = center src=""/static/experiments/stop_signal_with_flanker/images/H.png""></img></div></div><div class = flankerRight_2><div class = cue-text><img class = center src=""/static/experiments/stop_signal_with_flanker/images/H.png""></img>",,go,,244929,0.0,test_trial,127,stop-signal,
128,,,,,,,,500.0,,,,,,,stop_signal_with_flanker,,,,,,,,0.0-3.0-12.0,-1.0,none,,-1,500.0,<div class = centerbox><div class = fixation>+</div></div>,,,,245430,0.0,test_fixation,128,poldrack-single-stim,
129,250.0,300.0,300.0,500.0,"<div class = bigbox><div class = centerbox><div class = starbox><img class = star src=""/static/experiments/stop_signal_with_flanker/images/stopSignal.png""></img></div></div></div>",go,,2000.0,F,,70.0,1.0,0.0,6.0,stop_signal_with_flanker,,,,,,F_incongruent,H,0.0-3.0-13.0,70.0,"[70, 72]",,508,1000.0,"<div class = bigbox><div class = centerbox><div class = flankerLeft_2><div class = cue-text><img class = center src=""/static/experiments/stop_signal_with_flanker/images/H.png""></img></div></div><div class = flankerLeft_1><div class = cue-text><img class = center src=""/static/experiments/stop_signal_with_flanker/images/H.png""></img></div></div><div class = flankerMiddle><div class = cue-text><img class = center src=""/static/experiments/stop_signal_with_flanker/images/F.png""></img></div></div><div class = flankerRight_1><div class = cue-text><img class = center src=""/static/experiments/stop_signal_with_flanker/images/H.png""></img></div></div><div class = flankerRight_2><div class = cue-text><img class = center src=""/static/experiments/stop_signal_with_flanker/images/H.png""></img>",,go,,247433,0.0,test_trial,129,stop-signal,
130,,,,,,,,500.0,,,,,,,stop_signal_with_flanker,,,,,,,,0.0-3.0-14.0,-1.0,none,,-1,500.0,<div class = centerbox><div class = fixation>+</div></div>,,,,247935,0.0,test_fixation,130,poldrack-single-stim,
131,250.0,300.0,250.0,500.0,"<div class = bigbox><div class = centerbox><div class = starbox><img class = star src=""/static/experiments/stop_signal_with_flanker/images/stopSignal.png""></img></div></div></div>",stop,,2000.0,H,,-1.0,0.0,0.0,7.0,stop_signal_with_flanker,,,,,,H_congruent,H,0.0-3.0-15.0,72.0,"[70, 72]",,492,1000.0,"<div class = bigbox><div class = centerbox><div class = flankerLeft_2><div class = cue-text><img class = center src=""/static/experiments/stop_signal_with_flanker/images/H.png""></img></div></div><div class = flankerLeft_1><div class = cue-text><img class = center src=""/static/experiments/stop_signal_with_flanker/images/H.png""></img></div></div><div class = flankerMiddle><div class = cue-text><img class = center src=""/static/experiments/stop_signal_with_flanker/images/H.png""></img></div></div><div class = flankerRight_1><div class = cue-text><img class = center src=""/static/experiments/stop_signal_with_flanker/images/H.png""></img></div></div><div class = flankerRight_2><div class = cue-text><img class = center src=""/static/experiments/stop_signal_with_flanker/images/H.png""></img>",0.0,stop,,249939,0.0,test_trial,131,stop-signal,
132,,,,,,,,500.0,,,,,,,stop_signal_with_flanker,,,,,,,,0.0-3.0-16.0,-1.0,none,,-1,500.0,<div class = centerbox><div class = fixation>+</div></div>,,,,250440,0.0,test_fixation,132,poldrack-single-stim,
133,200.0,300.0,200.0,500.0,"<div class = bigbox><div class = centerbox><div class = starbox><img class = star src=""/static/experiments/stop_signal_with_flanker/images/stopSignal.png""></img></div></div></div>",go,,2000.0,F,,70.0,1.0,0.0,8.0,stop_signal_with_flanker,,,,,,F_congruent,F,0.0-3.0-17.0,70.0,"[70, 72]",,514,1000.0,"<div class = bigbox><div class = centerbox><div class = flankerLeft_2><div class = cue-text><img class = center src=""/static/experiments/stop_signal_with_flanker/images/F.png""></img></div></div><div class = flankerLeft_1><div class = cue-text><img class = center src=""/static/experiments/stop_signal_with_flanker/images/F.png""></img></div></div><div class = flankerMiddle><div class = cue-text><img class = center src=""/static/experiments/stop_signal_with_flanker/images/F.png""></img></div></div><div class = flankerRight_1><div class = cue-text><img class = center src=""/static/experiments/stop_signal_with_flanker/images/F.png""></img></div></div><div class = flankerRight_2><div class = cue-text><img class = center src=""/static/experiments/stop_signal_with_flanker/images/F.png""></img>",,go,,252443,0.0,test_trial,133,stop-signal,
134,,,,,,,,500.0,,,,,,,stop_signal_with_flanker,,,,,,,,0.0-3.0-18.0,-1.0,none,,-1,500.0,<div class = centerbox><div class = fixation>+</div></div>,,,,252946,0.0,test_fixation,134,poldrack-single-stim,
135,200.0,300.0,300.0,500.0,"<div class = bigbox><div class = centerbox><div class = starbox><img class = star src=""/static/experiments/stop_signal_with_flanker/images/stopSignal.png""></img></div></div></div>",go,,2000.0,H,,72.0,1.0,0.0,9.0,stop_signal_with_flanker,,,,,,H_incongruent,F,0.0-3.0-19.0,72.0,"[70, 72]",,433,1000.0,"<div class = bigbox><div class = centerbox><div class = flankerLeft_2><div class = cue-text><img class = center src=""/static/experiments/stop_signal_with_flanker/images/F.png""></img></div></div><div class = flankerLeft_1><div class = cue-text><img class = center src=""/static/experiments/stop_signal_with_flanker/images/F.png""></img></div></div><div class = flankerMiddle><div class = cue-text><img class = center src=""/static/experiments/stop_signal_with_flanker/images/H.png""></img></div></div><div class = flankerRight_1><div class = cue-text><img class = center src=""/static/experiments/stop_signal_with_flanker/images/F.png""></img></div></div><div class = flankerRight_2><div class = cue-text><img class = center src=""/static/experiments/stop_signal_with_flanker/images/F.png""></img>",,go,,254949,0.0,test_trial,135,stop-signal,
136,,,,,,,,500.0,,,,,,,stop_signal_with_flanker,,,,,,,,0.0-3.0-20.0,-1.0,none,,-1,500.0,<div class = centerbox><div class = fixation>+</div></div>,,,,255450,0.0,test_fixation,136,poldrack-single-stim,
137,200.0,300.0,300.0,500.0,"<div class = bigbox><div class = centerbox><div class = starbox><img class = star src=""/static/experiments/stop_signal_with_flanker/images/stopSignal.png""></img></div></div></div>",go,,2000.0,F,,70.0,1.0,0.0,10.0,stop_signal_with_flanker,,,,,,F_incongruent,H,0.0-3.0-21.0,70.0,"[70, 72]",,553,1000.0,"<div class = bigbox><div class = centerbox><div class = flankerLeft_2><div class = cue-text><img class = center src=""/static/experiments/stop_signal_with_flanker/images/H.png""></img></div></div><div class = flankerLeft_1><div class = cue-text><img class = center src=""/static/experiments/stop_signal_with_flanker/images/H.png""></img></div></div><div class = flankerMiddle><div class = cue-text><img class = center src=""/static/experiments/stop_signal_with_flanker/images/F.png""></img></div></div><div class = flankerRight_1><div class = cue-text><img class = center src=""/static/experiments/stop_signal_with_flanker/images/H.png""></img></div></div><div class = flankerRight_2><div class = cue-text><img class = center src=""/static/experiments/stop_signal_with_flanker/images/H.png""></img>",,go,,257454,0.0,test_trial,137,stop-signal,
138,,,,,,,,500.0,,,,,,,stop_signal_with_flanker,,,,,,,,0.0-3.0-22.0,-1.0,none,,-1,500.0,<div class = centerbox><div class = fixation>+</div></div>,,,,257956,0.0,test_fixation,138,poldrack-single-stim,
139,200.0,300.0,200.0,500.0,"<div class = bigbox><div class = centerbox><div class = starbox><img class = star src=""/static/experiments/stop_signal_with_flanker/images/stopSignal.png""></img></div></div></div>",stop,,2000.0,F,,-1.0,1.0,0.0,11.0,stop_signal_with_flanker,,,,,,F_congruent,F,0.0-3.0-23.0,-1.0,"[70, 72]",,-1,1000.0,"<div class = bigbox><div class = centerbox><div class = flankerLeft_2><div class = cue-text><img class = center src=""/static/experiments/stop_signal_with_flanker/images/F.png""></img></div></div><div class = flankerLeft_1><div class = cue-text><img class = center src=""/static/experiments/stop_signal_with_flanker/images/F.png""></img></div></div><div class = flankerMiddle><div class = cue-text><img class = center src=""/static/experiments/stop_signal_with_flanker/images/F.png""></img></div></div><div class = flankerRight_1><div class = cue-text><img class = center src=""/static/experiments/stop_signal_with_flanker/images/F.png""></img></div></div><div class = flankerRight_2><div class = cue-text><img class = center src=""/static/experiments/stop_signal_with_flanker/images/F.png""></img>",1.0,stop,,259959,0.0,test_trial,139,stop-signal,
140,,,,,,,,500.0,,,,,,,stop_signal_with_flanker,,,,,,,,0.0-3.0-24.0,-1.0,none,,-1,500.0,<div class = centerbox><div class = fixation>+</div></div>,,,,260461,0.0,test_fixation,140,poldrack-single-stim,
141,250.0,300.0,250.0,500.0,"<div class = bigbox><div class = centerbox><div class = starbox><img class = star src=""/static/experiments/stop_signal_with_flanker/images/stopSignal.png""></img></div></div></div>",go,,2000.0,H,,72.0,1.0,0.0,12.0,stop_signal_with_flanker,,,,,,H_congruent,H,0.0-3.0-25.0,72.0,"[70, 72]",,421,1000.0,"<div class = bigbox><div class = centerbox><div class = flankerLeft_2><div class = cue-text><img class = center src=""/static/experiments/stop_signal_with_flanker/images/H.png""></img></div></div><div class = flankerLeft_1><div class = cue-text><img class = center src=""/static/experiments/stop_signal_with_flanker/images/H.png""></img></div></div><div class = flankerMiddle><div class = cue-text><img class = center src=""/static/experiments/stop_signal_with_flanker/images/H.png""></img></div></div><div class = flankerRight_1><div class = cue-text><img class = center src=""/static/experiments/stop_signal_with_flanker/images/H.png""></img></div></div><div class = flankerRight_2><div class = cue-text><img class = center src=""/static/experiments/stop_signal_with_flanker/images/H.png""></img>",,go,,262464,0.0,test_trial,141,stop-signal,
142,,,,,,,,500.0,,,,,,,stop_signal_with_flanker,,,,,,,,0.0-3.0-26.0,-1.0,none,,-1,500.0,<div class = centerbox><div class = fixation>+</div></div>,,,,262965,0.0,test_fixation,142,poldrack-single-stim,
143,250.0,300.0,300.0,500.0,"<div class = bigbox><div class = centerbox><div class = starbox><img class = star src=""/static/experiments/stop_signal_with_flanker/images/stopSignal.png""></img></div></div></div>",go,,2000.0,H,,72.0,1.0,0.0,13.0,stop_signal_with_flanker,,,,,,H_incongruent,F,0.0-3.0-27.0,72.0,"[70, 72]",,413,1000.0,"<div class = bigbox><div class = centerbox><div class = flankerLeft_2><div class = cue-text><img class = center src=""/static/experiments/stop_signal_with_flanker/images/F.png""></img></div></div><div class = flankerLeft_1><div class = cue-text><img class = center src=""/static/experiments/stop_signal_with_flanker/images/F.png""></img></div></div><div class = flankerMiddle><div class = cue-text><img class = center src=""/static/experiments/stop_signal_with_flanker/images/H.png""></img></div></div><div class = flankerRight_1><div class = cue-text><img class = center src=""/static/experiments/stop_signal_with_flanker/images/F.png""></img></div></div><div class = flankerRight_2><div class = cue-text><img class = center src=""/static/experiments/stop_signal_with_flanker/images/F.png""></img>",,go,,264969,0.0,test_trial,143,stop-signal,
144,,,,,,,,500.0,,,,,,,stop_signal_with_flanker,,,,,,,,0.0-3.0-28.0,-1.0,none,,-1,500.0,<div class = centerbox><div class = fixation>+</div></div>,,,,265470,0.0,test_fixation,144,poldrack-single-stim,
145,250.0,300.0,300.0,500.0,"<div class = bigbox><div class = centerbox><div class = starbox><img class = star src=""/static/experiments/stop_signal_with_flanker/images/stopSignal.png""></img></div></div></div>",go,,2000.0,F,,70.0,0.0,0.0,14.0,stop_signal_with_flanker,,,,,,F_incongruent,H,0.0-3.0-29.0,72.0,"[70, 72]",,396,1000.0,"<div class = bigbox><div class = centerbox><div class = flankerLeft_2><div class = cue-text><img class = center src=""/static/experiments/stop_signal_with_flanker/images/H.png""></img></div></div><div class = flankerLeft_1><div class = cue-text><img class = center src=""/static/experiments/stop_signal_with_flanker/images/H.png""></img></div></div><div class = flankerMiddle><div class = cue-text><img class = center src=""/static/experiments/stop_signal_with_flanker/images/F.png""></img></div></div><div class = flankerRight_1><div class = cue-text><img class = center src=""/static/experiments/stop_signal_with_flanker/images/H.png""></img></div></div><div class = flankerRight_2><div class = cue-text><img class = center src=""/static/experiments/stop_signal_with_flanker/images/H.png""></img>",,go,,267473,0.0,test_trial,145,stop-signal,
146,,,,,,,,500.0,,,,,,,stop_signal_with_flanker,,,,,,,,0.0-3.0-30.0,-1.0,none,,-1,500.0,<div class = centerbox><div class = fixation>+</div></div>,,,,267976,0.0,test_fixation,146,poldrack-single-stim,
147,250.0,300.0,250.0,500.0,"<div class = bigbox><div class = centerbox><div class = starbox><img class = star src=""/static/experiments/stop_signal_with_flanker/images/stopSignal.png""></img></div></div></div>",go,,2000.0,F,,70.0,1.0,0.0,15.0,stop_signal_with_flanker,,,,,,F_congruent,F,0.0-3.0-31.0,70.0,"[70, 72]",,442,1000.0,"<div class = bigbox><div class = centerbox><div class = flankerLeft_2><div class = cue-text><img class = center src=""/static/experiments/stop_signal_with_flanker/images/F.png""></img></div></div><div class = flankerLeft_1><div class = cue-text><img class = center src=""/static/experiments/stop_signal_with_flanker/images/F.png""></img></div></div><div class = flankerMiddle><div class = cue-text><img class = center src=""/static/experiments/stop_signal_with_flanker/images/F.png""></img></div></div><div class = flankerRight_1><div class = cue-text><img class = center src=""/static/experiments/stop_signal_with_flanker/images/F.png""></img></div></div><div class = flankerRight_2><div class = cue-text><img class = center src=""/static/experiments/stop_signal_with_flanker/images/F.png""></img>",,go,,269979,0.0,test_trial,147,stop-signal,
148,,,,,,,,500.0,,,,,,,stop_signal_with_flanker,,,,,,,,0.0-3.0-32.0,-1.0,none,,-1,500.0,<div class = centerbox><div class = fixation>+</div></div>,,,,270481,0.0,test_fixation,148,poldrack-single-stim,
149,250.0,300.0,250.0,500.0,"<div class = bigbox><div class = centerbox><div class = starbox><img class = star src=""/static/experiments/stop_signal_with_flanker/images/stopSignal.png""></img></div></div></div>",go,,2000.0,H,,72.0,1.0,0.0,16.0,stop_signal_with_flanker,,,,,,H_congruent,H,0.0-3.0-33.0,72.0,"[70, 72]",,521,1000.0,"<div class = bigbox><div class = centerbox><div class = flankerLeft_2><div class = cue-text><img class = center src=""/static/experiments/stop_signal_with_flanker/images/H.png""></img></div></div><div class = flankerLeft_1><div class = cue-text><img class = center src=""/static/experiments/stop_signal_with_flanker/images/H.png""></img></div></div><div class = flankerMiddle><div class = cue-text><img class = center src=""/static/experiments/stop_signal_with_flanker/images/H.png""></img></div></div><div class = flankerRight_1><div class = cue-text><img class = center src=""/static/experiments/stop_signal_with_flanker/images/H.png""></img></div></div><div class = flankerRight_2><div class = cue-text><img class = center src=""/static/experiments/stop_signal_with_flanker/images/H.png""></img>",,go,,272484,0.0,test_trial,149,stop-signal,
150,,,,,,,,500.0,,,,,,,stop_signal_with_flanker,,,,,,,,0.0-3.0-34.0,-1.0,none,,-1,500.0,<div class = centerbox><div class = fixation>+</div></div>,,,,272985,0.0,test_fixation,150,poldrack-single-stim,
151,250.0,300.0,250.0,500.0,"<div class = bigbox><div class = centerbox><div class = starbox><img class = star src=""/static/experiments/stop_signal_with_flanker/images/stopSignal.png""></img></div></div></div>",go,,2000.0,F,,70.0,1.0,0.0,17.0,stop_signal_with_flanker,,,,,,F_congruent,F,0.0-3.0-35.0,70.0,"[70, 72]",,521,1000.0,"<div class = bigbox><div class = centerbox><div class = flankerLeft_2><div class = cue-text><img class = center src=""/static/experiments/stop_signal_with_flanker/images/F.png""></img></div></div><div class = flankerLeft_1><div class = cue-text><img class = center src=""/static/experiments/stop_signal_with_flanker/images/F.png""></img></div></div><div class = flankerMiddle><div class = cue-text><img class = center src=""/static/experiments/stop_signal_with_flanker/images/F.png""></img></div></div><div class = flankerRight_1><div class = cue-text><img class = center src=""/static/experiments/stop_signal_with_flanker/images/F.png""></img></div></div><div class = flankerRight_2><div class = cue-text><img class = center src=""/static/experiments/stop_signal_with_flanker/images/F.png""></img>",,go,,274989,0.0,test_trial,151,stop-signal,
152,,,,,,,,500.0,,,,,,,stop_signal_with_flanker,,,,,,,,0.0-3.0-36.0,-1.0,none,,-1,500.0,<div class = centerbox><div class = fixation>+</div></div>,,,,275492,0.0,test_fixation,152,poldrack-single-stim,
153,250.0,300.0,250.0,500.0,"<div class = bigbox><div class = centerbox><div class = starbox><img class = star src=""/static/experiments/stop_signal_with_flanker/images/stopSignal.png""></img></div></div></div>",go,,2000.0,H,,72.0,1.0,0.0,18.0,stop_signal_with_flanker,,,,,,H_congruent,H,0.0-3.0-37.0,72.0,"[70, 72]",,423,1000.0,"<div class = bigbox><div class = centerbox><div class = flankerLeft_2><div class = cue-text><img class = center src=""/static/experiments/stop_signal_with_flanker/images/H.png""></img></div></div><div class = flankerLeft_1><div class = cue-text><img class = center src=""/static/experiments/stop_signal_with_flanker/images/H.png""></img></div></div><div class = flankerMiddle><div class = cue-text><img class = center src=""/static/experiments/stop_signal_with_flanker/images/H.png""></img></div></div><div class = flankerRight_1><div class = cue-text><img class = center src=""/static/experiments/stop_signal_with_flanker/images/H.png""></img></div></div><div class = flankerRight_2><div class = cue-text><img class = center src=""/static/experiments/stop_signal_with_flanker/images/H.png""></img>",,go,,277495,0.0,test_trial,153,stop-signal,
154,,,,,,,,500.0,,,,,,,stop_signal_with_flanker,,,,,,,,0.0-3.0-38.0,-1.0,none,,-1,500.0,<div class = centerbox><div class = fixation>+</div></div>,,,,277998,0.0,test_fixation,154,poldrack-single-stim,
155,250.0,300.0,300.0,500.0,"<div class = bigbox><div class = centerbox><div class = starbox><img class = star src=""/static/experiments/stop_signal_with_flanker/images/stopSignal.png""></img></div></div></div>",go,,2000.0,F,,70.0,1.0,0.0,19.0,stop_signal_with_flanker,,,,,,F_incongruent,H,0.0-3.0-39.0,70.0,"[70, 72]",,493,1000.0,"<div class = bigbox><div class = centerbox><div class = flankerLeft_2><div class = cue-text><img class = center src=""/static/experiments/stop_signal_with_flanker/images/H.png""></img></div></div><div class = flankerLeft_1><div class = cue-text><img class = center src=""/static/experiments/stop_signal_with_flanker/images/H.png""></img></div></div><div class = flankerMiddle><div class = cue-text><img class = center src=""/static/experiments/stop_signal_with_flanker/images/F.png""></img></div></div><div class = flankerRight_1><div class = cue-text><img class = center src=""/static/experiments/stop_signal_with_flanker/images/H.png""></img></div></div><div class = flankerRight_2><div class = cue-text><img class = center src=""/static/experiments/stop_signal_with_flanker/images/H.png""></img>",,go,,280000,0.0,test_trial,155,stop-signal,
156,,,,,,,,500.0,,,,,,,stop_signal_with_flanker,,,,,,,,0.0-3.0-40.0,-1.0,none,,-1,500.0,<div class = centerbox><div class = fixation>+</div></div>,,,,280503,0.0,test_fixation,156,poldrack-single-stim,
157,250.0,300.0,250.0,500.0,"<div class = bigbox><div class = centerbox><div class = starbox><img class = star src=""/static/experiments/stop_signal_with_flanker/images/stopSignal.png""></img></div></div></div>",go,,2000.0,H,,72.0,1.0,0.0,20.0,stop_signal_with_flanker,,,,,,H_congruent,H,0.0-3.0-41.0,72.0,"[70, 72]",,435,1000.0,"<div class = bigbox><div class = centerbox><div class = flankerLeft_2><div class = cue-text><img class = center src=""/static/experiments/stop_signal_with_flanker/images/H.png""></img></div></div><div class = flankerLeft_1><div class = cue-text><img class = center src=""/static/experiments/stop_signal_with_flanker/images/H.png""></img></div></div><div class = flankerMiddle><div class = cue-text><img class = center src=""/static/experiments/stop_signal_with_flanker/images/H.png""></img></div></div><div class = flankerRight_1><div class = cue-text><img class = center src=""/static/experiments/stop_signal_with_flanker/images/H.png""></img></div></div><div class = flankerRight_2><div class = cue-text><img class = center src=""/static/experiments/stop_signal_with_flanker/images/H.png""></img>",,go,,282507,0.0,test_trial,157,stop-signal,
158,,,,,,,,500.0,,,,,,,stop_signal_with_flanker,,,,,,,,0.0-3.0-42.0,-1.0,none,,-1,500.0,<div class = centerbox><div class = fixation>+</div></div>,,,,283009,0.0,test_fixation,158,poldrack-single-stim,
