,SSD_congruent,SSD_incongruent,SS_delay,SS_duration,SS_stimulus,SS_trial_type,att_check_percent,block_duration,center_letter,correct,correct_response,correct_trial,current_block,current_trial,exp_id,final_accuracy,final_avg_rt,final_credit_var,final_missed_percent,final_responses_ok,flanker_condition,flanker_letter,internal_node_id,key_press,possible_responses,responses,rt,stim_duration,stimulus,stop_acc,stop_signal_condition,text,time_elapsed,timing_post_trial,trial_id,trial_index,trial_type,view_history
0,,,,,,,,2343.0,,,,,,,stop_signal_with_flanker,,,,,,,,0.0-0.0-0.0,13.0,[13],,2343,2343.0,<div class = bigbox><div class = picture_box><p class = block-text>Welcome to the experiment. This experiment will take around 10 minutes. Press <i>enter</i> to begin.</p></div></div>,,,,2353,0.0,feedback_block,0,poldrack-single-stim,
1,,,,,,,,,,,,,,,stop_signal_with_flanker,,,,,,,,0.0-0.0-1.0,,,,20564,,,,,,22917,,instruction,1,poldrack-instructions,"[{""page_index"":0,""viewing_time"":13110},{""page_index"":1,""viewing_time"":5521},{""page_index"":2,""viewing_time"":1933}]"
2,,,,,,,,500.0,,,,,,,stop_signal_with_flanker,,,,,,,,0.0-0.0-2.0,-1.0,none,,-1,500.0,<div class = centerbox><div class = fixation>+</div></div>,,,,24527,0.0,practice_fixation,2,poldrack-single-stim,
3,350.0,350.0,350.0,500.0,"<div class = bigbox><div class = centerbox><div class = starbox><img class = star src=""/static/experiments/stop_signal_with_flanker/images/stopSignal.png""></img></div></div></div>",go,,2000.0,F,,70.0,1.0,0.0,1.0,stop_signal_with_flanker,,,,,,F_incongruent,H,0.0-0.0-3.0,70.0,"[70, 72]",,899,1000.0,"<div class = bigbox><div class = centerbox><div class = flankerLeft_2><div class = cue-text><img class = center src=""/static/experiments/stop_signal_with_flanker/images/H.png""></img></div></div><div class = flankerLeft_1><div class = cue-text><img class = center src=""/static/experiments/stop_signal_with_flanker/images/H.png""></img></div></div><div class = flankerMiddle><div class = cue-text><img class = center src=""/static/experiments/stop_signal_with_flanker/images/F.png""></img></div></div><div class = flankerRight_1><div class = cue-text><img class = center src=""/static/experiments/stop_signal_with_flanker/images/H.png""></img></div></div><div class = flankerRight_2><div class = cue-text><img class = center src=""/static/experiments/stop_signal_with_flanker/images/H.png""></img>",,go,,26653,0.0,practice_trial,3,stop-signal,
4,,,,,,,,500.0,,,,,,,stop_signal_with_flanker,,,,,,,,0.0-0.0-4.0,-1.0,none,,-1,500.0,"<div class = fb_box><div class = center-text><font size = 20>Correct!</font></div></div><ul style = ""text-align:left;""><font color=white><li>Indicate the identity of the middle letter</li><li>Do not respond if you see a star around the letters!</li><li>Do not slow down your responses to the letter to wait for the star.</li></font></ul>",,,,27157,0.0,practice-stop-feedback,4,poldrack-single-stim,
5,,,,,,,,500.0,,,,,,,stop_signal_with_flanker,,,,,,,,0.0-0.0-5.0,-1.0,none,,-1,500.0,<div class = centerbox><div class = fixation>+</div></div>,,,,27667,0.0,practice_fixation,5,poldrack-single-stim,
6,350.0,350.0,350.0,500.0,"<div class = bigbox><div class = centerbox><div class = starbox><img class = star src=""/static/experiments/stop_signal_with_flanker/images/stopSignal.png""></img></div></div></div>",stop,,2000.0,F,,-1.0,0.0,0.0,2.0,stop_signal_with_flanker,,,,,,F_congruent,F,0.0-0.0-6.0,70.0,"[70, 72]",,494,1000.0,"<div class = bigbox><div class = centerbox><div class = flankerLeft_2><div class = cue-text><img class = center src=""/static/experiments/stop_signal_with_flanker/images/F.png""></img></div></div><div class = flankerLeft_1><div class = cue-text><img class = center src=""/static/experiments/stop_signal_with_flanker/images/F.png""></img></div></div><div class = flankerMiddle><div class = cue-text><img class = center src=""/static/experiments/stop_signal_with_flanker/images/F.png""></img></div></div><div class = flankerRight_1><div class = cue-text><img class = center src=""/static/experiments/stop_signal_with_flanker/images/F.png""></img></div></div><div class = flankerRight_2><div class = cue-text><img class = center src=""/static/experiments/stop_signal_with_flanker/images/F.png""></img>",0.0,stop,,29680,0.0,practice_trial,6,stop-signal,
7,,,,,,,,500.0,,,,,,,stop_signal_with_flanker,,,,,,,,0.0-0.0-7.0,-1.0,none,,-1,500.0,"<div class = fb_box><div class = center-text><font size = 20>There was a star.</font></div></div><ul style = ""text-align:left;""><font color=white><li>Indicate the identity of the middle letter</li><li>Do not respond if you see a star around the letters!</li><li>Do not slow down your responses to the letter to wait for the star.</li></font></ul>",,,,30184,0.0,practice-stop-feedback,7,poldrack-single-stim,
8,,,,,,,,500.0,,,,,,,stop_signal_with_flanker,,,,,,,,0.0-0.0-8.0,-1.0,none,,-1,500.0,<div class = centerbox><div class = fixation>+</div></div>,,,,30694,0.0,practice_fixation,8,poldrack-single-stim,
9,300.0,350.0,350.0,500.0,"<div class = bigbox><div class = centerbox><div class = starbox><img class = star src=""/static/experiments/stop_signal_with_flanker/images/stopSignal.png""></img></div></div></div>",stop,,2000.0,H,,-1.0,0.0,0.0,3.0,stop_signal_with_flanker,,,,,,H_incongruent,F,0.0-0.0-9.0,72.0,"[70, 72]",,513,1000.0,"<div class = bigbox><div class = centerbox><div class = flankerLeft_2><div class = cue-text><img class = center src=""/static/experiments/stop_signal_with_flanker/images/F.png""></img></div></div><div class = flankerLeft_1><div class = cue-text><img class = center src=""/static/experiments/stop_signal_with_flanker/images/F.png""></img></div></div><div class = flankerMiddle><div class = cue-text><img class = center src=""/static/experiments/stop_signal_with_flanker/images/H.png""></img></div></div><div class = flankerRight_1><div class = cue-text><img class = center src=""/static/experiments/stop_signal_with_flanker/images/F.png""></img></div></div><div class = flankerRight_2><div class = cue-text><img class = center src=""/static/experiments/stop_signal_with_flanker/images/F.png""></img>",0.0,stop,,32699,0.0,practice_trial,9,stop-signal,
10,,,,,,,,500.0,,,,,,,stop_signal_with_flanker,,,,,,,,0.0-0.0-10.0,-1.0,none,,-1,500.0,"<div class = fb_box><div class = center-text><font size = 20>There was a star.</font></div></div><ul style = ""text-align:left;""><font color=white><li>Indicate the identity of the middle letter</li><li>Do not respond if you see a star around the letters!</li><li>Do not slow down your responses to the letter to wait for the star.</li></font></ul>",,,,33203,0.0,practice-stop-feedback,10,poldrack-single-stim,
11,,,,,,,,500.0,,,,,,,stop_signal_with_flanker,,,,,,,,0.0-0.0-11.0,-1.0,none,,-1,500.0,<div class = centerbox><div class = fixation>+</div></div>,,,,33713,0.0,practice_fixation,11,poldrack-single-stim,
12,300.0,300.0,300.0,500.0,"<div class = bigbox><div class = centerbox><div class = starbox><img class = star src=""/static/experiments/stop_signal_with_flanker/images/stopSignal.png""></img></div></div></div>",stop,,2000.0,F,,-1.0,0.0,0.0,4.0,stop_signal_with_flanker,,,,,,F_incongruent,H,0.0-0.0-12.0,70.0,"[70, 72]",,832,1000.0,"<div class = bigbox><div class = centerbox><div class = flankerLeft_2><div class = cue-text><img class = center src=""/static/experiments/stop_signal_with_flanker/images/H.png""></img></div></div><div class = flankerLeft_1><div class = cue-text><img class = center src=""/static/experiments/stop_signal_with_flanker/images/H.png""></img></div></div><div class = flankerMiddle><div class = cue-text><img class = center src=""/static/experiments/stop_signal_with_flanker/images/F.png""></img></div></div><div class = flankerRight_1><div class = cue-text><img class = center src=""/static/experiments/stop_signal_with_flanker/images/H.png""></img></div></div><div class = flankerRight_2><div class = cue-text><img class = center src=""/static/experiments/stop_signal_with_flanker/images/H.png""></img>",0.0,stop,,35724,0.0,practice_trial,12,stop-signal,
13,,,,,,,,500.0,,,,,,,stop_signal_with_flanker,,,,,,,,0.0-0.0-13.0,-1.0,none,,-1,500.0,"<div class = fb_box><div class = center-text><font size = 20>There was a star.</font></div></div><ul style = ""text-align:left;""><font color=white><li>Indicate the identity of the middle letter</li><li>Do not respond if you see a star around the letters!</li><li>Do not slow down your responses to the letter to wait for the star.</li></font></ul>",,,,36232,0.0,practice-stop-feedback,13,poldrack-single-stim,
14,,,,,,,,500.0,,,,,,,stop_signal_with_flanker,,,,,,,,0.0-0.0-14.0,-1.0,none,,-1,500.0,<div class = centerbox><div class = fixation>+</div></div>,,,,36741,0.0,practice_fixation,14,poldrack-single-stim,
15,300.0,250.0,300.0,500.0,"<div class = bigbox><div class = centerbox><div class = starbox><img class = star src=""/static/experiments/stop_signal_with_flanker/images/stopSignal.png""></img></div></div></div>",go,,2000.0,F,,70.0,1.0,0.0,5.0,stop_signal_with_flanker,,,,,,F_congruent,F,0.0-0.0-15.0,70.0,"[70, 72]",,681,1000.0,"<div class = bigbox><div class = centerbox><div class = flankerLeft_2><div class = cue-text><img class = center src=""/static/experiments/stop_signal_with_flanker/images/F.png""></img></div></div><div class = flankerLeft_1><div class = cue-text><img class = center src=""/static/experiments/stop_signal_with_flanker/images/F.png""></img></div></div><div class = flankerMiddle><div class = cue-text><img class = center src=""/static/experiments/stop_signal_with_flanker/images/F.png""></img></div></div><div class = flankerRight_1><div class = cue-text><img class = center src=""/static/experiments/stop_signal_with_flanker/images/F.png""></img></div></div><div class = flankerRight_2><div class = cue-text><img class = center src=""/static/experiments/stop_signal_with_flanker/images/F.png""></img>",,go,,38843,0.0,practice_trial,15,stop-signal,
16,,,,,,,,500.0,,,,,,,stop_signal_with_flanker,,,,,,,,0.0-0.0-16.0,-1.0,none,,-1,500.0,"<div class = fb_box><div class = center-text><font size = 20>Correct!</font></div></div><ul style = ""text-align:left;""><font color=white><li>Indicate the identity of the middle letter</li><li>Do not respond if you see a star around the letters!</li><li>Do not slow down your responses to the letter to wait for the star.</li></font></ul>",,,,39353,0.0,practice-stop-feedback,16,poldrack-single-stim,
17,,,,,,,,500.0,,,,,,,stop_signal_with_flanker,,,,,,,,0.0-0.0-17.0,-1.0,none,,-1,500.0,<div class = centerbox><div class = fixation>+</div></div>,,,,39862,0.0,practice_fixation,17,poldrack-single-stim,
18,300.0,250.0,300.0,500.0,"<div class = bigbox><div class = centerbox><div class = starbox><img class = star src=""/static/experiments/stop_signal_with_flanker/images/stopSignal.png""></img></div></div></div>",go,,2000.0,F,,70.0,1.0,0.0,6.0,stop_signal_with_flanker,,,,,,F_congruent,F,0.0-0.0-18.0,70.0,"[70, 72]",,789,1000.0,"<div class = bigbox><div class = centerbox><div class = flankerLeft_2><div class = cue-text><img class = center src=""/static/experiments/stop_signal_with_flanker/images/F.png""></img></div></div><div class = flankerLeft_1><div class = cue-text><img class = center src=""/static/experiments/stop_signal_with_flanker/images/F.png""></img></div></div><div class = flankerMiddle><div class = cue-text><img class = center src=""/static/experiments/stop_signal_with_flanker/images/F.png""></img></div></div><div class = flankerRight_1><div class = cue-text><img class = center src=""/static/experiments/stop_signal_with_flanker/images/F.png""></img></div></div><div class = flankerRight_2><div class = cue-text><img class = center src=""/static/experiments/stop_signal_with_flanker/images/F.png""></img>",,go,,42019,0.0,practice_trial,18,stop-signal,
19,,,,,,,,500.0,,,,,,,stop_signal_with_flanker,,,,,,,,0.0-0.0-19.0,-1.0,none,,-1,500.0,"<div class = fb_box><div class = center-text><font size = 20>Correct!</font></div></div><ul style = ""text-align:left;""><font color=white><li>Indicate the identity of the middle letter</li><li>Do not respond if you see a star around the letters!</li><li>Do not slow down your responses to the letter to wait for the star.</li></font></ul>",,,,42524,0.0,practice-stop-feedback,19,poldrack-single-stim,
20,,,,,,,,500.0,,,,,,,stop_signal_with_flanker,,,,,,,,0.0-0.0-20.0,-1.0,none,,-1,500.0,<div class = centerbox><div class = fixation>+</div></div>,,,,43033,0.0,practice_fixation,20,poldrack-single-stim,
21,300.0,250.0,300.0,500.0,"<div class = bigbox><div class = centerbox><div class = starbox><img class = star src=""/static/experiments/stop_signal_with_flanker/images/stopSignal.png""></img></div></div></div>",go,,2000.0,H,,72.0,1.0,0.0,7.0,stop_signal_with_flanker,,,,,,H_congruent,H,0.0-0.0-21.0,72.0,"[70, 72]",,756,1000.0,"<div class = bigbox><div class = centerbox><div class = flankerLeft_2><div class = cue-text><img class = center src=""/static/experiments/stop_signal_with_flanker/images/H.png""></img></div></div><div class = flankerLeft_1><div class = cue-text><img class = center src=""/static/experiments/stop_signal_with_flanker/images/H.png""></img></div></div><div class = flankerMiddle><div class = cue-text><img class = center src=""/static/experiments/stop_signal_with_flanker/images/H.png""></img></div></div><div class = flankerRight_1><div class = cue-text><img class = center src=""/static/experiments/stop_signal_with_flanker/images/H.png""></img></div></div><div class = flankerRight_2><div class = cue-text><img class = center src=""/static/experiments/stop_signal_with_flanker/images/H.png""></img>",,go,,45044,0.0,practice_trial,21,stop-signal,
22,,,,,,,,500.0,,,,,,,stop_signal_with_flanker,,,,,,,,0.0-0.0-22.0,-1.0,none,,-1,500.0,"<div class = fb_box><div class = center-text><font size = 20>Correct!</font></div></div><ul style = ""text-align:left;""><font color=white><li>Indicate the identity of the middle letter</li><li>Do not respond if you see a star around the letters!</li><li>Do not slow down your responses to the letter to wait for the star.</li></font></ul>",,,,45548,0.0,practice-stop-feedback,22,poldrack-single-stim,
23,,,,,,,,500.0,,,,,,,stop_signal_with_flanker,,,,,,,,0.0-0.0-23.0,-1.0,none,,-1,500.0,<div class = centerbox><div class = fixation>+</div></div>,,,,46056,0.0,practice_fixation,23,poldrack-single-stim,
24,300.0,250.0,250.0,500.0,"<div class = bigbox><div class = centerbox><div class = starbox><img class = star src=""/static/experiments/stop_signal_with_flanker/images/stopSignal.png""></img></div></div></div>",go,,2000.0,H,,72.0,1.0,0.0,8.0,stop_signal_with_flanker,,,,,,H_incongruent,F,0.0-0.0-24.0,72.0,"[70, 72]",,687,1000.0,"<div class = bigbox><div class = centerbox><div class = flankerLeft_2><div class = cue-text><img class = center src=""/static/experiments/stop_signal_with_flanker/images/F.png""></img></div></div><div class = flankerLeft_1><div class = cue-text><img class = center src=""/static/experiments/stop_signal_with_flanker/images/F.png""></img></div></div><div class = flankerMiddle><div class = cue-text><img class = center src=""/static/experiments/stop_signal_with_flanker/images/H.png""></img></div></div><div class = flankerRight_1><div class = cue-text><img class = center src=""/static/experiments/stop_signal_with_flanker/images/F.png""></img></div></div><div class = flankerRight_2><div class = cue-text><img class = center src=""/static/experiments/stop_signal_with_flanker/images/F.png""></img>",,go,,48068,0.0,practice_trial,24,stop-signal,
25,,,,,,,,500.0,,,,,,,stop_signal_with_flanker,,,,,,,,0.0-0.0-25.0,-1.0,none,,-1,500.0,"<div class = fb_box><div class = center-text><font size = 20>Correct!</font></div></div><ul style = ""text-align:left;""><font color=white><li>Indicate the identity of the middle letter</li><li>Do not respond if you see a star around the letters!</li><li>Do not slow down your responses to the letter to wait for the star.</li></font></ul>",,,,48571,0.0,practice-stop-feedback,25,poldrack-single-stim,
26,,,,,,,,500.0,,,,,,,stop_signal_with_flanker,,,,,,,,0.0-0.0-26.0,-1.0,none,,-1,500.0,<div class = centerbox><div class = fixation>+</div></div>,,,,49080,0.0,practice_fixation,26,poldrack-single-stim,
27,300.0,250.0,250.0,500.0,"<div class = bigbox><div class = centerbox><div class = starbox><img class = star src=""/static/experiments/stop_signal_with_flanker/images/stopSignal.png""></img></div></div></div>",go,,2000.0,F,,70.0,1.0,0.0,9.0,stop_signal_with_flanker,,,,,,F_incongruent,H,0.0-0.0-27.0,70.0,"[70, 72]",,730,1000.0,"<div class = bigbox><div class = centerbox><div class = flankerLeft_2><div class = cue-text><img class = center src=""/static/experiments/stop_signal_with_flanker/images/H.png""></img></div></div><div class = flankerLeft_1><div class = cue-text><img class = center src=""/static/experiments/stop_signal_with_flanker/images/H.png""></img></div></div><div class = flankerMiddle><div class = cue-text><img class = center src=""/static/experiments/stop_signal_with_flanker/images/F.png""></img></div></div><div class = flankerRight_1><div class = cue-text><img class = center src=""/static/experiments/stop_signal_with_flanker/images/H.png""></img></div></div><div class = flankerRight_2><div class = cue-text><img class = center src=""/static/experiments/stop_signal_with_flanker/images/H.png""></img>",,go,,51091,0.0,practice_trial,27,stop-signal,
28,,,,,,,,500.0,,,,,,,stop_signal_with_flanker,,,,,,,,0.0-0.0-28.0,-1.0,none,,-1,500.0,"<div class = fb_box><div class = center-text><font size = 20>Correct!</font></div></div><ul style = ""text-align:left;""><font color=white><li>Indicate the identity of the middle letter</li><li>Do not respond if you see a star around the letters!</li><li>Do not slow down your responses to the letter to wait for the star.</li></font></ul>",,,,51603,0.0,practice-stop-feedback,28,poldrack-single-stim,
29,,,,,,,,500.0,,,,,,,stop_signal_with_flanker,,,,,,,,0.0-0.0-29.0,-1.0,none,,-1,500.0,<div class = centerbox><div class = fixation>+</div></div>,,,,52113,0.0,practice_fixation,29,poldrack-single-stim,
30,300.0,250.0,300.0,500.0,"<div class = bigbox><div class = centerbox><div class = starbox><img class = star src=""/static/experiments/stop_signal_with_flanker/images/stopSignal.png""></img></div></div></div>",stop,,2000.0,H,,-1.0,1.0,0.0,10.0,stop_signal_with_flanker,,,,,,H_congruent,H,0.0-0.0-30.0,-1.0,"[70, 72]",,-1,1000.0,"<div class = bigbox><div class = centerbox><div class = flankerLeft_2><div class = cue-text><img class = center src=""/static/experiments/stop_signal_with_flanker/images/H.png""></img></div></div><div class = flankerLeft_1><div class = cue-text><img class = center src=""/static/experiments/stop_signal_with_flanker/images/H.png""></img></div></div><div class = flankerMiddle><div class = cue-text><img class = center src=""/static/experiments/stop_signal_with_flanker/images/H.png""></img></div></div><div class = flankerRight_1><div class = cue-text><img class = center src=""/static/experiments/stop_signal_with_flanker/images/H.png""></img></div></div><div class = flankerRight_2><div class = cue-text><img class = center src=""/static/experiments/stop_signal_with_flanker/images/H.png""></img>",1.0,stop,,54124,0.0,practice_trial,30,stop-signal,
31,,,,,,,,500.0,,,,,,,stop_signal_with_flanker,,,,,,,,0.0-0.0-31.0,-1.0,none,,-1,500.0,"<div class = fb_box><div class = center-text><font size = 20>Correct!</font></div></div><ul style = ""text-align:left;""><font color=white><li>Indicate the identity of the middle letter</li><li>Do not respond if you see a star around the letters!</li><li>Do not slow down your responses to the letter to wait for the star.</li></font></ul>",,,,54629,0.0,practice-stop-feedback,31,poldrack-single-stim,
32,,,,,,,,500.0,,,,,,,stop_signal_with_flanker,,,,,,,,0.0-0.0-32.0,-1.0,none,,-1,500.0,<div class = centerbox><div class = fixation>+</div></div>,,,,55138,0.0,practice_fixation,32,poldrack-single-stim,
33,350.0,250.0,350.0,500.0,"<div class = bigbox><div class = centerbox><div class = starbox><img class = star src=""/static/experiments/stop_signal_with_flanker/images/stopSignal.png""></img></div></div></div>",go,,2000.0,H,,72.0,1.0,0.0,11.0,stop_signal_with_flanker,,,,,,H_congruent,H,0.0-0.0-33.0,72.0,"[70, 72]",,735,1000.0,"<div class = bigbox><div class = centerbox><div class = flankerLeft_2><div class = cue-text><img class = center src=""/static/experiments/stop_signal_with_flanker/images/H.png""></img></div></div><div class = flankerLeft_1><div class = cue-text><img class = center src=""/static/experiments/stop_signal_with_flanker/images/H.png""></img></div></div><div class = flankerMiddle><div class = cue-text><img class = center src=""/static/experiments/stop_signal_with_flanker/images/H.png""></img></div></div><div class = flankerRight_1><div class = cue-text><img class = center src=""/static/experiments/stop_signal_with_flanker/images/H.png""></img></div></div><div class = flankerRight_2><div class = cue-text><img class = center src=""/static/experiments/stop_signal_with_flanker/images/H.png""></img>",,go,,57150,0.0,practice_trial,33,stop-signal,
34,,,,,,,,500.0,,,,,,,stop_signal_with_flanker,,,,,,,,0.0-0.0-34.0,-1.0,none,,-1,500.0,"<div class = fb_box><div class = center-text><font size = 20>Correct!</font></div></div><ul style = ""text-align:left;""><font color=white><li>Indicate the identity of the middle letter</li><li>Do not respond if you see a star around the letters!</li><li>Do not slow down your responses to the letter to wait for the star.</li></font></ul>",,,,57654,0.0,practice-stop-feedback,34,poldrack-single-stim,
35,,,,,,,,500.0,,,,,,,stop_signal_with_flanker,,,,,,,,0.0-0.0-35.0,-1.0,none,,-1,500.0,<div class = centerbox><div class = fixation>+</div></div>,,,,58162,0.0,practice_fixation,35,poldrack-single-stim,
36,350.0,250.0,250.0,500.0,"<div class = bigbox><div class = centerbox><div class = starbox><img class = star src=""/static/experiments/stop_signal_with_flanker/images/stopSignal.png""></img></div></div></div>",go,,2000.0,H,,72.0,1.0,0.0,12.0,stop_signal_with_flanker,,,,,,H_incongruent,F,0.0-0.0-36.0,72.0,"[70, 72]",,853,1000.0,"<div class = bigbox><div class = centerbox><div class = flankerLeft_2><div class = cue-text><img class = center src=""/static/experiments/stop_signal_with_flanker/images/F.png""></img></div></div><div class = flankerLeft_1><div class = cue-text><img class = center src=""/static/experiments/stop_signal_with_flanker/images/F.png""></img></div></div><div class = flankerMiddle><div class = cue-text><img class = center src=""/static/experiments/stop_signal_with_flanker/images/H.png""></img></div></div><div class = flankerRight_1><div class = cue-text><img class = center src=""/static/experiments/stop_signal_with_flanker/images/F.png""></img></div></div><div class = flankerRight_2><div class = cue-text><img class = center src=""/static/experiments/stop_signal_with_flanker/images/F.png""></img>",,go,,60167,0.0,practice_trial,36,stop-signal,
37,,,,,,,,500.0,,,,,,,stop_signal_with_flanker,,,,,,,,0.0-0.0-37.0,-1.0,none,,-1,500.0,"<div class = fb_box><div class = center-text><font size = 20>Correct!</font></div></div><ul style = ""text-align:left;""><font color=white><li>Indicate the identity of the middle letter</li><li>Do not respond if you see a star around the letters!</li><li>Do not slow down your responses to the letter to wait for the star.</li></font></ul>",,,,60677,0.0,practice-stop-feedback,37,poldrack-single-stim,
38,,,,,,,,8862.0,,,,,,,stop_signal_with_flanker,,,,,,,,0.0-1.0,13.0,[13],,8862,8862.0,<div class = bigbox><div class = picture_box><p class = block-text><br>Please take this time to read your feedback and to take a short break! Press enter to continue.</p><p class = block-text>Done with this practice. Press Enter to continue.</p></div></div>,,,,69552,0.0,feedback_block,38,poldrack-single-stim,
39,,,,,,,,2323.0,,,,,,,stop_signal_with_flanker,,,,,,,,0.0-2.0,13.0,,,2323,,,,,"<div class = centerbox><p class = block-text>We will now start the test portion. In this experiment you will see a row of letters. If the middle letter is H, please press the H Key.  If the middle letter is F, press the F Key. Respond as quickly and accurately as possible. Ignore the letters not in the middle!</p> <p class = block-text>On some trials, you will see a star appear with or shortly after the letters. Do not respond if you see a star.  Do not slow down your responses to the letter in order to wait for the star.</p><p class = block-text>Press Enter to continue.</p></div>",71879,1000.0,instruction,39,poldrack-text,
40,,,,,,,,1462.0,,,,,,,stop_signal_with_flanker,,,,,,,,0.0-3.0-0.0,13.0,[13],,1462,1462.0,<div class = bigbox><div class = picture_box><p class = block-text>We will now start the test portion. Press enter to begin.</p></div></div>,,,,74345,0.0,feedback_block,40,poldrack-single-stim,
41,,,,,,,,6534.0,,True,86.0,,,,stop_signal_with_flanker,,,,,,,,0.0-3.0-1.0-0.0,86.0,[],,6534,6534.0,"<p>Please read the following paragraph:</p><p>“I never believed in Santa Claus. None of us kids did. Mom and Dad refused to let us. They couldn’t afford expensive presents and they didn’t want us to think we weren’t as good as other kids who, on Christmas morning, found all sorts of fancy toys under the tree that were supposedly left by Santa Claus. Dad had lost his job at the gypsum, and when Christmas came that year, we had no money at all. On Christmas Eve, Dad took each one of us kids out into the desert night one by one.</p><p>""If you are reading this paragraph, press the letter V,"" Dad Said.</p><p>“I like that one!” I said.</p><p>Dad grinned, “that’s Venus”, he said. He explained to me that planets glowed because reflected light was constant and stars twinkled because their light pulsed. </p><p>“I like it anyway” I said.</p><p>“What the heck,” Dad said. “It’s Christmas. You can have a planet if you want.”</p><p>And he gave me Venus. -- The Glass Castle (Jeannette Walls)</p><p>Press the ""L"" key. </p>",,,,80884,200.0,attention_check,41,attention-check,
42,,,,,,,,500.0,,,,,,,stop_signal_with_flanker,,,,,,,,0.0-3.0-2.0,-1.0,none,,-1,500.0,<div class = centerbox><div class = fixation>+</div></div>,,,,81588,0.0,test_fixation,42,poldrack-single-stim,
43,350.0,250.0,250.0,500.0,"<div class = bigbox><div class = centerbox><div class = starbox><img class = star src=""/static/experiments/stop_signal_with_flanker/images/stopSignal.png""></img></div></div></div>",go,,2000.0,H,,72.0,1.0,0.0,1.0,stop_signal_with_flanker,,,,,,H_incongruent,F,0.0-3.0-3.0,72.0,"[70, 72]",,1134,1000.0,"<div class = bigbox><div class = centerbox><div class = flankerLeft_2><div class = cue-text><img class = center src=""/static/experiments/stop_signal_with_flanker/images/F.png""></img></div></div><div class = flankerLeft_1><div class = cue-text><img class = center src=""/static/experiments/stop_signal_with_flanker/images/F.png""></img></div></div><div class = flankerMiddle><div class = cue-text><img class = center src=""/static/experiments/stop_signal_with_flanker/images/H.png""></img></div></div><div class = flankerRight_1><div class = cue-text><img class = center src=""/static/experiments/stop_signal_with_flanker/images/F.png""></img></div></div><div class = flankerRight_2><div class = cue-text><img class = center src=""/static/experiments/stop_signal_with_flanker/images/F.png""></img>",,go,,83593,0.0,test_trial,43,stop-signal,
44,,,,,,,,500.0,,,,,,,stop_signal_with_flanker,,,,,,,,0.0-3.0-4.0,-1.0,none,,-1,500.0,<div class = centerbox><div class = fixation>+</div></div>,,,,84101,0.0,test_fixation,44,poldrack-single-stim,
45,350.0,250.0,250.0,500.0,"<div class = bigbox><div class = centerbox><div class = starbox><img class = star src=""/static/experiments/stop_signal_with_flanker/images/stopSignal.png""></img></div></div></div>",go,,2000.0,F,,70.0,1.0,0.0,2.0,stop_signal_with_flanker,,,,,,F_incongruent,H,0.0-3.0-5.0,70.0,"[70, 72]",,684,1000.0,"<div class = bigbox><div class = centerbox><div class = flankerLeft_2><div class = cue-text><img class = center src=""/static/experiments/stop_signal_with_flanker/images/H.png""></img></div></div><div class = flankerLeft_1><div class = cue-text><img class = center src=""/static/experiments/stop_signal_with_flanker/images/H.png""></img></div></div><div class = flankerMiddle><div class = cue-text><img class = center src=""/static/experiments/stop_signal_with_flanker/images/F.png""></img></div></div><div class = flankerRight_1><div class = cue-text><img class = center src=""/static/experiments/stop_signal_with_flanker/images/H.png""></img></div></div><div class = flankerRight_2><div class = cue-text><img class = center src=""/static/experiments/stop_signal_with_flanker/images/H.png""></img>",,go,,86111,0.0,test_trial,45,stop-signal,
46,,,,,,,,500.0,,,,,,,stop_signal_with_flanker,,,,,,,,0.0-3.0-6.0,-1.0,none,,-1,500.0,<div class = centerbox><div class = fixation>+</div></div>,,,,86615,0.0,test_fixation,46,poldrack-single-stim,
47,350.0,250.0,350.0,500.0,"<div class = bigbox><div class = centerbox><div class = starbox><img class = star src=""/static/experiments/stop_signal_with_flanker/images/stopSignal.png""></img></div></div></div>",stop,,2000.0,F,,-1.0,1.0,0.0,3.0,stop_signal_with_flanker,,,,,,F_congruent,F,0.0-3.0-7.0,-1.0,"[70, 72]",,-1,1000.0,"<div class = bigbox><div class = centerbox><div class = flankerLeft_2><div class = cue-text><img class = center src=""/static/experiments/stop_signal_with_flanker/images/F.png""></img></div></div><div class = flankerLeft_1><div class = cue-text><img class = center src=""/static/experiments/stop_signal_with_flanker/images/F.png""></img></div></div><div class = flankerMiddle><div class = cue-text><img class = center src=""/static/experiments/stop_signal_with_flanker/images/F.png""></img></div></div><div class = flankerRight_1><div class = cue-text><img class = center src=""/static/experiments/stop_signal_with_flanker/images/F.png""></img></div></div><div class = flankerRight_2><div class = cue-text><img class = center src=""/static/experiments/stop_signal_with_flanker/images/F.png""></img>",1.0,stop,,88625,0.0,test_trial,47,stop-signal,
48,,,,,,,,500.0,,,,,,,stop_signal_with_flanker,,,,,,,,0.0-3.0-8.0,-1.0,none,,-1,500.0,<div class = centerbox><div class = fixation>+</div></div>,,,,89127,0.0,test_fixation,48,poldrack-single-stim,
49,400.0,250.0,400.0,500.0,"<div class = bigbox><div class = centerbox><div class = starbox><img class = star src=""/static/experiments/stop_signal_with_flanker/images/stopSignal.png""></img></div></div></div>",stop,,2000.0,H,,-1.0,0.0,0.0,4.0,stop_signal_with_flanker,,,,,,H_congruent,H,0.0-3.0-9.0,72.0,"[70, 72]",,637,1000.0,"<div class = bigbox><div class = centerbox><div class = flankerLeft_2><div class = cue-text><img class = center src=""/static/experiments/stop_signal_with_flanker/images/H.png""></img></div></div><div class = flankerLeft_1><div class = cue-text><img class = center src=""/static/experiments/stop_signal_with_flanker/images/H.png""></img></div></div><div class = flankerMiddle><div class = cue-text><img class = center src=""/static/experiments/stop_signal_with_flanker/images/H.png""></img></div></div><div class = flankerRight_1><div class = cue-text><img class = center src=""/static/experiments/stop_signal_with_flanker/images/H.png""></img></div></div><div class = flankerRight_2><div class = cue-text><img class = center src=""/static/experiments/stop_signal_with_flanker/images/H.png""></img>",0.0,stop,,91138,0.0,test_trial,49,stop-signal,
50,,,,,,,,500.0,,,,,,,stop_signal_with_flanker,,,,,,,,0.0-3.0-10.0,-1.0,none,,-1,500.0,<div class = centerbox><div class = fixation>+</div></div>,,,,91643,0.0,test_fixation,50,poldrack-single-stim,
51,350.0,250.0,350.0,500.0,"<div class = bigbox><div class = centerbox><div class = starbox><img class = star src=""/static/experiments/stop_signal_with_flanker/images/stopSignal.png""></img></div></div></div>",go,,2000.0,F,,70.0,1.0,0.0,5.0,stop_signal_with_flanker,,,,,,F_congruent,F,0.0-3.0-11.0,70.0,"[70, 72]",,607,1000.0,"<div class = bigbox><div class = centerbox><div class = flankerLeft_2><div class = cue-text><img class = center src=""/static/experiments/stop_signal_with_flanker/images/F.png""></img></div></div><div class = flankerLeft_1><div class = cue-text><img class = center src=""/static/experiments/stop_signal_with_flanker/images/F.png""></img></div></div><div class = flankerMiddle><div class = cue-text><img class = center src=""/static/experiments/stop_signal_with_flanker/images/F.png""></img></div></div><div class = flankerRight_1><div class = cue-text><img class = center src=""/static/experiments/stop_signal_with_flanker/images/F.png""></img></div></div><div class = flankerRight_2><div class = cue-text><img class = center src=""/static/experiments/stop_signal_with_flanker/images/F.png""></img>",,go,,93653,0.0,test_trial,51,stop-signal,
52,,,,,,,,500.0,,,,,,,stop_signal_with_flanker,,,,,,,,0.0-3.0-12.0,-1.0,none,,-1,500.0,<div class = centerbox><div class = fixation>+</div></div>,,,,94156,0.0,test_fixation,52,poldrack-single-stim,
53,350.0,250.0,350.0,500.0,"<div class = bigbox><div class = centerbox><div class = starbox><img class = star src=""/static/experiments/stop_signal_with_flanker/images/stopSignal.png""></img></div></div></div>",go,,2000.0,H,,72.0,1.0,0.0,6.0,stop_signal_with_flanker,,,,,,H_congruent,H,0.0-3.0-13.0,72.0,"[70, 72]",,588,1000.0,"<div class = bigbox><div class = centerbox><div class = flankerLeft_2><div class = cue-text><img class = center src=""/static/experiments/stop_signal_with_flanker/images/H.png""></img></div></div><div class = flankerLeft_1><div class = cue-text><img class = center src=""/static/experiments/stop_signal_with_flanker/images/H.png""></img></div></div><div class = flankerMiddle><div class = cue-text><img class = center src=""/static/experiments/stop_signal_with_flanker/images/H.png""></img></div></div><div class = flankerRight_1><div class = cue-text><img class = center src=""/static/experiments/stop_signal_with_flanker/images/H.png""></img></div></div><div class = flankerRight_2><div class = cue-text><img class = center src=""/static/experiments/stop_signal_with_flanker/images/H.png""></img>",,go,,96165,0.0,test_trial,53,stop-signal,
54,,,,,,,,500.0,,,,,,,stop_signal_with_flanker,,,,,,,,0.0-3.0-14.0,-1.0,none,,-1,500.0,<div class = centerbox><div class = fixation>+</div></div>,,,,96668,0.0,test_fixation,54,poldrack-single-stim,
55,350.0,250.0,350.0,500.0,"<div class = bigbox><div class = centerbox><div class = starbox><img class = star src=""/static/experiments/stop_signal_with_flanker/images/stopSignal.png""></img></div></div></div>",go,,2000.0,H,,72.0,1.0,0.0,7.0,stop_signal_with_flanker,,,,,,H_congruent,H,0.0-3.0-15.0,72.0,"[70, 72]",,601,1000.0,"<div class = bigbox><div class = centerbox><div class = flankerLeft_2><div class = cue-text><img class = center src=""/static/experiments/stop_signal_with_flanker/images/H.png""></img></div></div><div class = flankerLeft_1><div class = cue-text><img class = center src=""/static/experiments/stop_signal_with_flanker/images/H.png""></img></div></div><div class = flankerMiddle><div class = cue-text><img class = center src=""/static/experiments/stop_signal_with_flanker/images/H.png""></img></div></div><div class = flankerRight_1><div class = cue-text><img class = center src=""/static/experiments/stop_signal_with_flanker/images/H.png""></img></div></div><div class = flankerRight_2><div class = cue-text><img class = center src=""/static/experiments/stop_signal_with_flanker/images/H.png""></img>",,go,,98678,0.0,test_trial,55,stop-signal,
56,,,,,,,,500.0,,,,,,,stop_signal_with_flanker,,,,,,,,0.0-3.0-16.0,-1.0,none,,-1,500.0,<div class = centerbox><div class = fixation>+</div></div>,,,,99182,0.0,test_fixation,56,poldrack-single-stim,
57,350.0,250.0,250.0,500.0,"<div class = bigbox><div class = centerbox><div class = starbox><img class = star src=""/static/experiments/stop_signal_with_flanker/images/stopSignal.png""></img></div></div></div>",stop,,2000.0,H,,-1.0,1.0,0.0,8.0,stop_signal_with_flanker,,,,,,H_incongruent,F,0.0-3.0-17.0,-1.0,"[70, 72]",,-1,1000.0,"<div class = bigbox><div class = centerbox><div class = flankerLeft_2><div class = cue-text><img class = center src=""/static/experiments/stop_signal_with_flanker/images/F.png""></img></div></div><div class = flankerLeft_1><div class = cue-text><img class = center src=""/static/experiments/stop_signal_with_flanker/images/F.png""></img></div></div><div class = flankerMiddle><div class = cue-text><img class = center src=""/static/experiments/stop_signal_with_flanker/images/H.png""></img></div></div><div class = flankerRight_1><div class = cue-text><img class = center src=""/static/experiments/stop_signal_with_flanker/images/F.png""></img></div></div><div class = flankerRight_2><div class = cue-text><img class = center src=""/static/experiments/stop_signal_with_flanker/images/F.png""></img>",1.0,stop,,101193,0.0,test_trial,57,stop-signal,
58,,,,,,,,500.0,,,,,,,stop_signal_with_flanker,,,,,,,,0.0-3.0-18.0,-1.0,none,,-1,500.0,<div class = centerbox><div class = fixation>+</div></div>,,,,101695,0.0,test_fixation,58,poldrack-single-stim,
59,350.0,300.0,300.0,500.0,"<div class = bigbox><div class = centerbox><div class = starbox><img class = star src=""/static/experiments/stop_signal_with_flanker/images/stopSignal.png""></img></div></div></div>",go,,2000.0,H,,72.0,1.0,0.0,9.0,stop_signal_with_flanker,,,,,,H_incongruent,F,0.0-3.0-19.0,72.0,"[70, 72]",,584,1000.0,"<div class = bigbox><div class = centerbox><div class = flankerLeft_2><div class = cue-text><img class = center src=""/static/experiments/stop_signal_with_flanker/images/F.png""></img></div></div><div class = flankerLeft_1><div class = cue-text><img class = center src=""/static/experiments/stop_signal_with_flanker/images/F.png""></img></div></div><div class = flankerMiddle><div class = cue-text><img class = center src=""/static/experiments/stop_signal_with_flanker/images/H.png""></img></div></div><div class = flankerRight_1><div class = cue-text><img class = center src=""/static/experiments/stop_signal_with_flanker/images/F.png""></img></div></div><div class = flankerRight_2><div class = cue-text><img class = center src=""/static/experiments/stop_signal_with_flanker/images/F.png""></img>",,go,,103705,0.0,test_trial,59,stop-signal,
60,,,,,,,,500.0,,,,,,,stop_signal_with_flanker,,,,,,,,0.0-3.0-20.0,-1.0,none,,-1,500.0,<div class = centerbox><div class = fixation>+</div></div>,,,,104207,0.0,test_fixation,60,poldrack-single-stim,
61,350.0,300.0,350.0,500.0,"<div class = bigbox><div class = centerbox><div class = starbox><img class = star src=""/static/experiments/stop_signal_with_flanker/images/stopSignal.png""></img></div></div></div>",go,,2000.0,F,,70.0,1.0,0.0,10.0,stop_signal_with_flanker,,,,,,F_congruent,F,0.0-3.0-21.0,70.0,"[70, 72]",,635,1000.0,"<div class = bigbox><div class = centerbox><div class = flankerLeft_2><div class = cue-text><img class = center src=""/static/experiments/stop_signal_with_flanker/images/F.png""></img></div></div><div class = flankerLeft_1><div class = cue-text><img class = center src=""/static/experiments/stop_signal_with_flanker/images/F.png""></img></div></div><div class = flankerMiddle><div class = cue-text><img class = center src=""/static/experiments/stop_signal_with_flanker/images/F.png""></img></div></div><div class = flankerRight_1><div class = cue-text><img class = center src=""/static/experiments/stop_signal_with_flanker/images/F.png""></img></div></div><div class = flankerRight_2><div class = cue-text><img class = center src=""/static/experiments/stop_signal_with_flanker/images/F.png""></img>",,go,,106217,0.0,test_trial,61,stop-signal,
62,,,,,,,,500.0,,,,,,,stop_signal_with_flanker,,,,,,,,0.0-3.0-22.0,-1.0,none,,-1,500.0,<div class = centerbox><div class = fixation>+</div></div>,,,,106720,0.0,test_fixation,62,poldrack-single-stim,
63,350.0,300.0,350.0,500.0,"<div class = bigbox><div class = centerbox><div class = starbox><img class = star src=""/static/experiments/stop_signal_with_flanker/images/stopSignal.png""></img></div></div></div>",go,,2000.0,F,,70.0,1.0,0.0,11.0,stop_signal_with_flanker,,,,,,F_congruent,F,0.0-3.0-23.0,70.0,"[70, 72]",,668,1000.0,"<div class = bigbox><div class = centerbox><div class = flankerLeft_2><div class = cue-text><img class = center src=""/static/experiments/stop_signal_with_flanker/images/F.png""></img></div></div><div class = flankerLeft_1><div class = cue-text><img class = center src=""/static/experiments/stop_signal_with_flanker/images/F.png""></img></div></div><div class = flankerMiddle><div class = cue-text><img class = center src=""/static/experiments/stop_signal_with_flanker/images/F.png""></img></div></div><div class = flankerRight_1><div class = cue-text><img class = center src=""/static/experiments/stop_signal_with_flanker/images/F.png""></img></div></div><div class = flankerRight_2><div class = cue-text><img class = center src=""/static/experiments/stop_signal_with_flanker/images/F.png""></img>",,go,,108730,0.0,test_trial,63,stop-signal,
64,,,,,,,,500.0,,,,,,,stop_signal_with_flanker,,,,,,,,0.0-3.0-24.0,-1.0,none,,-1,500.0,<div class = centerbox><div class = fixation>+</div></div>,,,,109238,0.0,test_fixation,64,poldrack-single-stim,
65,350.0,300.0,350.0,500.0,"<div class = bigbox><div class = centerbox><div class = starbox><img class = star src=""/static/experiments/stop_signal_with_flanker/images/stopSignal.png""></img></div></div></div>",go,,2000.0,H,,72.0,1.0,0.0,12.0,stop_signal_with_flanker,,,,,,H_congruent,H,0.0-3.0-25.0,72.0,"[70, 72]",,582,1000.0,"<div class = bigbox><div class = centerbox><div class = flankerLeft_2><div class = cue-text><img class = center src=""/static/experiments/stop_signal_with_flanker/images/H.png""></img></div></div><div class = flankerLeft_1><div class = cue-text><img class = center src=""/static/experiments/stop_signal_with_flanker/images/H.png""></img></div></div><div class = flankerMiddle><div class = cue-text><img class = center src=""/static/experiments/stop_signal_with_flanker/images/H.png""></img></div></div><div class = flankerRight_1><div class = cue-text><img class = center src=""/static/experiments/stop_signal_with_flanker/images/H.png""></img></div></div><div class = flankerRight_2><div class = cue-text><img class = center src=""/static/experiments/stop_signal_with_flanker/images/H.png""></img>",,go,,111253,0.0,test_trial,65,stop-signal,
66,,,,,,,,500.0,,,,,,,stop_signal_with_flanker,,,,,,,,0.0-3.0-26.0,-1.0,none,,-1,500.0,<div class = centerbox><div class = fixation>+</div></div>,,,,111760,0.0,test_fixation,66,poldrack-single-stim,
67,350.0,300.0,350.0,500.0,"<div class = bigbox><div class = centerbox><div class = starbox><img class = star src=""/static/experiments/stop_signal_with_flanker/images/stopSignal.png""></img></div></div></div>",go,,2000.0,F,,70.0,1.0,0.0,13.0,stop_signal_with_flanker,,,,,,F_congruent,F,0.0-3.0-27.0,70.0,"[70, 72]",,667,1000.0,"<div class = bigbox><div class = centerbox><div class = flankerLeft_2><div class = cue-text><img class = center src=""/static/experiments/stop_signal_with_flanker/images/F.png""></img></div></div><div class = flankerLeft_1><div class = cue-text><img class = center src=""/static/experiments/stop_signal_with_flanker/images/F.png""></img></div></div><div class = flankerMiddle><div class = cue-text><img class = center src=""/static/experiments/stop_signal_with_flanker/images/F.png""></img></div></div><div class = flankerRight_1><div class = cue-text><img class = center src=""/static/experiments/stop_signal_with_flanker/images/F.png""></img></div></div><div class = flankerRight_2><div class = cue-text><img class = center src=""/static/experiments/stop_signal_with_flanker/images/F.png""></img>",,go,,113857,0.0,test_trial,67,stop-signal,
68,,,,,,,,500.0,,,,,,,stop_signal_with_flanker,,,,,,,,0.0-3.0-28.0,-1.0,none,,-1,500.0,<div class = centerbox><div class = fixation>+</div></div>,,,,114360,0.0,test_fixation,68,poldrack-single-stim,
69,350.0,300.0,350.0,500.0,"<div class = bigbox><div class = centerbox><div class = starbox><img class = star src=""/static/experiments/stop_signal_with_flanker/images/stopSignal.png""></img></div></div></div>",go,,2000.0,F,,70.0,1.0,0.0,14.0,stop_signal_with_flanker,,,,,,F_congruent,F,0.0-3.0-29.0,70.0,"[70, 72]",,643,1000.0,"<div class = bigbox><div class = centerbox><div class = flankerLeft_2><div class = cue-text><img class = center src=""/static/experiments/stop_signal_with_flanker/images/F.png""></img></div></div><div class = flankerLeft_1><div class = cue-text><img class = center src=""/static/experiments/stop_signal_with_flanker/images/F.png""></img></div></div><div class = flankerMiddle><div class = cue-text><img class = center src=""/static/experiments/stop_signal_with_flanker/images/F.png""></img></div></div><div class = flankerRight_1><div class = cue-text><img class = center src=""/static/experiments/stop_signal_with_flanker/images/F.png""></img></div></div><div class = flankerRight_2><div class = cue-text><img class = center src=""/static/experiments/stop_signal_with_flanker/images/F.png""></img>",,go,,116370,0.0,test_trial,69,stop-signal,
70,,,,,,,,500.0,,,,,,,stop_signal_with_flanker,,,,,,,,0.0-3.0-30.0,-1.0,none,,-1,500.0,<div class = centerbox><div class = fixation>+</div></div>,,,,116872,0.0,test_fixation,70,poldrack-single-stim,
71,350.0,300.0,300.0,500.0,"<div class = bigbox><div class = centerbox><div class = starbox><img class = star src=""/static/experiments/stop_signal_with_flanker/images/stopSignal.png""></img></div></div></div>",stop,,2000.0,F,,-1.0,1.0,0.0,15.0,stop_signal_with_flanker,,,,,,F_incongruent,H,0.0-3.0-31.0,-1.0,"[70, 72]",,-1,1000.0,"<div class = bigbox><div class = centerbox><div class = flankerLeft_2><div class = cue-text><img class = center src=""/static/experiments/stop_signal_with_flanker/images/H.png""></img></div></div><div class = flankerLeft_1><div class = cue-text><img class = center src=""/static/experiments/stop_signal_with_flanker/images/H.png""></img></div></div><div class = flankerMiddle><div class = cue-text><img class = center src=""/static/experiments/stop_signal_with_flanker/images/F.png""></img></div></div><div class = flankerRight_1><div class = cue-text><img class = center src=""/static/experiments/stop_signal_with_flanker/images/H.png""></img></div></div><div class = flankerRight_2><div class = cue-text><img class = center src=""/static/experiments/stop_signal_with_flanker/images/H.png""></img>",1.0,stop,,118883,0.0,test_trial,71,stop-signal,
72,,,,,,,,500.0,,,,,,,stop_signal_with_flanker,,,,,,,,0.0-3.0-32.0,-1.0,none,,-1,500.0,<div class = centerbox><div class = fixation>+</div></div>,,,,119415,0.0,test_fixation,72,poldrack-single-stim,
73,350.0,350.0,350.0,500.0,"<div class = bigbox><div class = centerbox><div class = starbox><img class = star src=""/static/experiments/stop_signal_with_flanker/images/stopSignal.png""></img></div></div></div>",stop,,2000.0,F,,-1.0,1.0,0.0,16.0,stop_signal_with_flanker,,,,,,F_congruent,F,0.0-3.0-33.0,-1.0,"[70, 72]",,-1,1000.0,"<div class = bigbox><div class = centerbox><div class = flankerLeft_2><div class = cue-text><img class = center src=""/static/experiments/stop_signal_with_flanker/images/F.png""></img></div></div><div class = flankerLeft_1><div class = cue-text><img class = center src=""/static/experiments/stop_signal_with_flanker/images/F.png""></img></div></div><div class = flankerMiddle><div class = cue-text><img class = center src=""/static/experiments/stop_signal_with_flanker/images/F.png""></img></div></div><div class = flankerRight_1><div class = cue-text><img class = center src=""/static/experiments/stop_signal_with_flanker/images/F.png""></img></div></div><div class = flankerRight_2><div class = cue-text><img class = center src=""/static/experiments/stop_signal_with_flanker/images/F.png""></img>",1.0,stop,,121425,0.0,test_trial,73,stop-signal,
74,,,,,,,,500.0,,,,,,,stop_signal_with_flanker,,,,,,,,0.0-3.0-34.0,-1.0,none,,-1,500.0,<div class = centerbox><div class = fixation>+</div></div>,,,,121928,0.0,test_fixation,74,poldrack-single-stim,
75,400.0,350.0,350.0,500.0,"<div class = bigbox><div class = centerbox><div class = starbox><img class = star src=""/static/experiments/stop_signal_with_flanker/images/stopSignal.png""></img></div></div></div>",go,,2000.0,H,,72.0,1.0,0.0,17.0,stop_signal_with_flanker,,,,,,H_incongruent,F,0.0-3.0-35.0,72.0,"[70, 72]",,558,1000.0,"<div class = bigbox><div class = centerbox><div class = flankerLeft_2><div class = cue-text><img class = center src=""/static/experiments/stop_signal_with_flanker/images/F.png""></img></div></div><div class = flankerLeft_1><div class = cue-text><img class = center src=""/static/experiments/stop_signal_with_flanker/images/F.png""></img></div></div><div class = flankerMiddle><div class = cue-text><img class = center src=""/static/experiments/stop_signal_with_flanker/images/H.png""></img></div></div><div class = flankerRight_1><div class = cue-text><img class = center src=""/static/experiments/stop_signal_with_flanker/images/F.png""></img></div></div><div class = flankerRight_2><div class = cue-text><img class = center src=""/static/experiments/stop_signal_with_flanker/images/F.png""></img>",,go,,123937,0.0,test_trial,75,stop-signal,
76,,,,,,,,500.0,,,,,,,stop_signal_with_flanker,,,,,,,,0.0-3.0-36.0,-1.0,none,,-1,500.0,<div class = centerbox><div class = fixation>+</div></div>,,,,124441,0.0,test_fixation,76,poldrack-single-stim,
77,400.0,350.0,400.0,500.0,"<div class = bigbox><div class = centerbox><div class = starbox><img class = star src=""/static/experiments/stop_signal_with_flanker/images/stopSignal.png""></img></div></div></div>",stop,,2000.0,F,,-1.0,1.0,0.0,18.0,stop_signal_with_flanker,,,,,,F_congruent,F,0.0-3.0-37.0,-1.0,"[70, 72]",,-1,1000.0,"<div class = bigbox><div class = centerbox><div class = flankerLeft_2><div class = cue-text><img class = center src=""/static/experiments/stop_signal_with_flanker/images/F.png""></img></div></div><div class = flankerLeft_1><div class = cue-text><img class = center src=""/static/experiments/stop_signal_with_flanker/images/F.png""></img></div></div><div class = flankerMiddle><div class = cue-text><img class = center src=""/static/experiments/stop_signal_with_flanker/images/F.png""></img></div></div><div class = flankerRight_1><div class = cue-text><img class = center src=""/static/experiments/stop_signal_with_flanker/images/F.png""></img></div></div><div class = flankerRight_2><div class = cue-text><img class = center src=""/static/experiments/stop_signal_with_flanker/images/F.png""></img>",1.0,stop,,126452,0.0,test_trial,77,stop-signal,
78,,,,,,,,500.0,,,,,,,stop_signal_with_flanker,,,,,,,,0.0-3.0-38.0,-1.0,none,,-1,500.0,<div class = centerbox><div class = fixation>+</div></div>,,,,126954,0.0,test_fixation,78,poldrack-single-stim,
79,450.0,350.0,450.0,500.0,"<div class = bigbox><div class = centerbox><div class = starbox><img class = star src=""/static/experiments/stop_signal_with_flanker/images/stopSignal.png""></img></div></div></div>",stop,,2000.0,H,,-1.0,0.0,0.0,19.0,stop_signal_with_flanker,,,,,,H_congruent,H,0.0-3.0-39.0,72.0,"[70, 72]",,655,1000.0,"<div class = bigbox><div class = centerbox><div class = flankerLeft_2><div class = cue-text><img class = center src=""/static/experiments/stop_signal_with_flanker/images/H.png""></img></div></div><div class = flankerLeft_1><div class = cue-text><img class = center src=""/static/experiments/stop_signal_with_flanker/images/H.png""></img></div></div><div class = flankerMiddle><div class = cue-text><img class = center src=""/static/experiments/stop_signal_with_flanker/images/H.png""></img></div></div><div class = flankerRight_1><div class = cue-text><img class = center src=""/static/experiments/stop_signal_with_flanker/images/H.png""></img></div></div><div class = flankerRight_2><div class = cue-text><img class = center src=""/static/experiments/stop_signal_with_flanker/images/H.png""></img>",0.0,stop,,128965,0.0,test_trial,79,stop-signal,
80,,,,,,,,500.0,,,,,,,stop_signal_with_flanker,,,,,,,,0.0-3.0-40.0,-1.0,none,,-1,500.0,<div class = centerbox><div class = fixation>+</div></div>,,,,129469,0.0,test_fixation,80,poldrack-single-stim,
81,400.0,350.0,400.0,500.0,"<div class = bigbox><div class = centerbox><div class = starbox><img class = star src=""/static/experiments/stop_signal_with_flanker/images/stopSignal.png""></img></div></div></div>",go,,2000.0,F,,70.0,1.0,0.0,20.0,stop_signal_with_flanker,,,,,,F_congruent,F,0.0-3.0-41.0,70.0,"[70, 72]",,647,1000.0,"<div class = bigbox><div class = centerbox><div class = flankerLeft_2><div class = cue-text><img class = center src=""/static/experiments/stop_signal_with_flanker/images/F.png""></img></div></div><div class = flankerLeft_1><div class = cue-text><img class = center src=""/static/experiments/stop_signal_with_flanker/images/F.png""></img></div></div><div class = flankerMiddle><div class = cue-text><img class = center src=""/static/experiments/stop_signal_with_flanker/images/F.png""></img></div></div><div class = flankerRight_1><div class = cue-text><img class = center src=""/static/experiments/stop_signal_with_flanker/images/F.png""></img></div></div><div class = flankerRight_2><div class = cue-text><img class = center src=""/static/experiments/stop_signal_with_flanker/images/F.png""></img>",,go,,131479,0.0,test_trial,81,stop-signal,
82,,,,,,,,500.0,,,,,,,stop_signal_with_flanker,,,,,,,,0.0-3.0-42.0,-1.0,none,,-1,500.0,<div class = centerbox><div class = fixation>+</div></div>,,,,131981,0.0,test_fixation,82,poldrack-single-stim,
83,400.0,350.0,350.0,500.0,"<div class = bigbox><div class = centerbox><div class = starbox><img class = star src=""/static/experiments/stop_signal_with_flanker/images/stopSignal.png""></img></div></div></div>",go,,2000.0,F,,70.0,1.0,0.0,21.0,stop_signal_with_flanker,,,,,,F_incongruent,H,0.0-3.0-43.0,70.0,"[70, 72]",,670,1000.0,"<div class = bigbox><div class = centerbox><div class = flankerLeft_2><div class = cue-text><img class = center src=""/static/experiments/stop_signal_with_flanker/images/H.png""></img></div></div><div class = flankerLeft_1><div class = cue-text><img class = center src=""/static/experiments/stop_signal_with_flanker/images/H.png""></img></div></div><div class = flankerMiddle><div class = cue-text><img class = center src=""/static/experiments/stop_signal_with_flanker/images/F.png""></img></div></div><div class = flankerRight_1><div class = cue-text><img class = center src=""/static/experiments/stop_signal_with_flanker/images/H.png""></img></div></div><div class = flankerRight_2><div class = cue-text><img class = center src=""/static/experiments/stop_signal_with_flanker/images/H.png""></img>",,go,,133991,0.0,test_trial,83,stop-signal,
84,,,,,,,,500.0,,,,,,,stop_signal_with_flanker,,,,,,,,0.0-3.0-44.0,-1.0,none,,-1,500.0,<div class = centerbox><div class = fixation>+</div></div>,,,,134495,0.0,test_fixation,84,poldrack-single-stim,
85,400.0,350.0,350.0,500.0,"<div class = bigbox><div class = centerbox><div class = starbox><img class = star src=""/static/experiments/stop_signal_with_flanker/images/stopSignal.png""></img></div></div></div>",go,,2000.0,F,,70.0,1.0,0.0,22.0,stop_signal_with_flanker,,,,,,F_incongruent,H,0.0-3.0-45.0,70.0,"[70, 72]",,656,1000.0,"<div class = bigbox><div class = centerbox><div class = flankerLeft_2><div class = cue-text><img class = center src=""/static/experiments/stop_signal_with_flanker/images/H.png""></img></div></div><div class = flankerLeft_1><div class = cue-text><img class = center src=""/static/experiments/stop_signal_with_flanker/images/H.png""></img></div></div><div class = flankerMiddle><div class = cue-text><img class = center src=""/static/experiments/stop_signal_with_flanker/images/F.png""></img></div></div><div class = flankerRight_1><div class = cue-text><img class = center src=""/static/experiments/stop_signal_with_flanker/images/H.png""></img></div></div><div class = flankerRight_2><div class = cue-text><img class = center src=""/static/experiments/stop_signal_with_flanker/images/H.png""></img>",,go,,136502,0.0,test_trial,85,stop-signal,
86,,,,,,,,500.0,,,,,,,stop_signal_with_flanker,,,,,,,,0.0-3.0-46.0,-1.0,none,,-1,500.0,<div class = centerbox><div class = fixation>+</div></div>,,,,137004,0.0,test_fixation,86,poldrack-single-stim,
87,400.0,350.0,350.0,500.0,"<div class = bigbox><div class = centerbox><div class = starbox><img class = star src=""/static/experiments/stop_signal_with_flanker/images/stopSignal.png""></img></div></div></div>",go,,2000.0,F,,70.0,1.0,0.0,23.0,stop_signal_with_flanker,,,,,,F_incongruent,H,0.0-3.0-47.0,70.0,"[70, 72]",,598,1000.0,"<div class = bigbox><div class = centerbox><div class = flankerLeft_2><div class = cue-text><img class = center src=""/static/experiments/stop_signal_with_flanker/images/H.png""></img></div></div><div class = flankerLeft_1><div class = cue-text><img class = center src=""/static/experiments/stop_signal_with_flanker/images/H.png""></img></div></div><div class = flankerMiddle><div class = cue-text><img class = center src=""/static/experiments/stop_signal_with_flanker/images/F.png""></img></div></div><div class = flankerRight_1><div class = cue-text><img class = center src=""/static/experiments/stop_signal_with_flanker/images/H.png""></img></div></div><div class = flankerRight_2><div class = cue-text><img class = center src=""/static/experiments/stop_signal_with_flanker/images/H.png""></img>",,go,,139009,0.0,test_trial,87,stop-signal,
88,,,,,,,,500.0,,,,,,,stop_signal_with_flanker,,,,,,,,0.0-3.0-48.0,-1.0,none,,-1,500.0,<div class = centerbox><div class = fixation>+</div></div>,,,,139512,0.0,test_fixation,88,poldrack-single-stim,
89,400.0,350.0,350.0,500.0,"<div class = bigbox><div class = centerbox><div class = starbox><img class = star src=""/static/experiments/stop_signal_with_flanker/images/stopSignal.png""></img></div></div></div>",go,,2000.0,H,,72.0,1.0,0.0,24.0,stop_signal_with_flanker,,,,,,H_incongruent,F,0.0-3.0-49.0,72.0,"[70, 72]",,784,1000.0,"<div class = bigbox><div class = centerbox><div class = flankerLeft_2><div class = cue-text><img class = center src=""/static/experiments/stop_signal_with_flanker/images/F.png""></img></div></div><div class = flankerLeft_1><div class = cue-text><img class = center src=""/static/experiments/stop_signal_with_flanker/images/F.png""></img></div></div><div class = flankerMiddle><div class = cue-text><img class = center src=""/static/experiments/stop_signal_with_flanker/images/H.png""></img></div></div><div class = flankerRight_1><div class = cue-text><img class = center src=""/static/experiments/stop_signal_with_flanker/images/F.png""></img></div></div><div class = flankerRight_2><div class = cue-text><img class = center src=""/static/experiments/stop_signal_with_flanker/images/F.png""></img>",,go,,141523,0.0,test_trial,89,stop-signal,
90,,,,,,,,500.0,,,,,,,stop_signal_with_flanker,,,,,,,,0.0-3.0-50.0,-1.0,none,,-1,500.0,<div class = centerbox><div class = fixation>+</div></div>,,,,142025,0.0,test_fixation,90,poldrack-single-stim,
91,400.0,350.0,350.0,500.0,"<div class = bigbox><div class = centerbox><div class = starbox><img class = star src=""/static/experiments/stop_signal_with_flanker/images/stopSignal.png""></img></div></div></div>",go,,2000.0,H,,72.0,1.0,0.0,25.0,stop_signal_with_flanker,,,,,,H_incongruent,F,0.0-3.0-51.0,72.0,"[70, 72]",,552,1000.0,"<div class = bigbox><div class = centerbox><div class = flankerLeft_2><div class = cue-text><img class = center src=""/static/experiments/stop_signal_with_flanker/images/F.png""></img></div></div><div class = flankerLeft_1><div class = cue-text><img class = center src=""/static/experiments/stop_signal_with_flanker/images/F.png""></img></div></div><div class = flankerMiddle><div class = cue-text><img class = center src=""/static/experiments/stop_signal_with_flanker/images/H.png""></img></div></div><div class = flankerRight_1><div class = cue-text><img class = center src=""/static/experiments/stop_signal_with_flanker/images/F.png""></img></div></div><div class = flankerRight_2><div class = cue-text><img class = center src=""/static/experiments/stop_signal_with_flanker/images/F.png""></img>",,go,,144035,0.0,test_trial,91,stop-signal,
92,,,,,,,,500.0,,,,,,,stop_signal_with_flanker,,,,,,,,0.0-3.0-52.0,-1.0,none,,-1,500.0,<div class = centerbox><div class = fixation>+</div></div>,,,,144539,0.0,test_fixation,92,poldrack-single-stim,
93,400.0,350.0,400.0,500.0,"<div class = bigbox><div class = centerbox><div class = starbox><img class = star src=""/static/experiments/stop_signal_with_flanker/images/stopSignal.png""></img></div></div></div>",stop,,2000.0,H,,-1.0,0.0,0.0,26.0,stop_signal_with_flanker,,,,,,H_congruent,H,0.0-3.0-53.0,72.0,"[70, 72]",,595,1000.0,"<div class = bigbox><div class = centerbox><div class = flankerLeft_2><div class = cue-text><img class = center src=""/static/experiments/stop_signal_with_flanker/images/H.png""></img></div></div><div class = flankerLeft_1><div class = cue-text><img class = center src=""/static/experiments/stop_signal_with_flanker/images/H.png""></img></div></div><div class = flankerMiddle><div class = cue-text><img class = center src=""/static/experiments/stop_signal_with_flanker/images/H.png""></img></div></div><div class = flankerRight_1><div class = cue-text><img class = center src=""/static/experiments/stop_signal_with_flanker/images/H.png""></img></div></div><div class = flankerRight_2><div class = cue-text><img class = center src=""/static/experiments/stop_signal_with_flanker/images/H.png""></img>",0.0,stop,,146550,0.0,test_trial,93,stop-signal,
94,,,,,,,,500.0,,,,,,,stop_signal_with_flanker,,,,,,,,0.0-3.0-54.0,-1.0,none,,-1,500.0,<div class = centerbox><div class = fixation>+</div></div>,,,,147054,0.0,test_fixation,94,poldrack-single-stim,
95,350.0,350.0,350.0,500.0,"<div class = bigbox><div class = centerbox><div class = starbox><img class = star src=""/static/experiments/stop_signal_with_flanker/images/stopSignal.png""></img></div></div></div>",go,,2000.0,H,,72.0,1.0,0.0,27.0,stop_signal_with_flanker,,,,,,H_congruent,H,0.0-3.0-55.0,72.0,"[70, 72]",,560,1000.0,"<div class = bigbox><div class = centerbox><div class = flankerLeft_2><div class = cue-text><img class = center src=""/static/experiments/stop_signal_with_flanker/images/H.png""></img></div></div><div class = flankerLeft_1><div class = cue-text><img class = center src=""/static/experiments/stop_signal_with_flanker/images/H.png""></img></div></div><div class = flankerMiddle><div class = cue-text><img class = center src=""/static/experiments/stop_signal_with_flanker/images/H.png""></img></div></div><div class = flankerRight_1><div class = cue-text><img class = center src=""/static/experiments/stop_signal_with_flanker/images/H.png""></img></div></div><div class = flankerRight_2><div class = cue-text><img class = center src=""/static/experiments/stop_signal_with_flanker/images/H.png""></img>",,go,,149064,0.0,test_trial,95,stop-signal,
96,,,,,,,,500.0,,,,,,,stop_signal_with_flanker,,,,,,,,0.0-3.0-56.0,-1.0,none,,-1,500.0,<div class = centerbox><div class = fixation>+</div></div>,,,,149568,0.0,test_fixation,96,poldrack-single-stim,
97,350.0,350.0,350.0,500.0,"<div class = bigbox><div class = centerbox><div class = starbox><img class = star src=""/static/experiments/stop_signal_with_flanker/images/stopSignal.png""></img></div></div></div>",stop,,2000.0,F,,-1.0,1.0,0.0,28.0,stop_signal_with_flanker,,,,,,F_incongruent,H,0.0-3.0-57.0,-1.0,"[70, 72]",,-1,1000.0,"<div class = bigbox><div class = centerbox><div class = flankerLeft_2><div class = cue-text><img class = center src=""/static/experiments/stop_signal_with_flanker/images/H.png""></img></div></div><div class = flankerLeft_1><div class = cue-text><img class = center src=""/static/experiments/stop_signal_with_flanker/images/H.png""></img></div></div><div class = flankerMiddle><div class = cue-text><img class = center src=""/static/experiments/stop_signal_with_flanker/images/F.png""></img></div></div><div class = flankerRight_1><div class = cue-text><img class = center src=""/static/experiments/stop_signal_with_flanker/images/H.png""></img></div></div><div class = flankerRight_2><div class = cue-text><img class = center src=""/static/experiments/stop_signal_with_flanker/images/H.png""></img>",1.0,stop,,151579,0.0,test_trial,97,stop-signal,
98,,,,,,,,500.0,,,,,,,stop_signal_with_flanker,,,,,,,,0.0-3.0-58.0,-1.0,none,,-1,500.0,<div class = centerbox><div class = fixation>+</div></div>,,,,152088,0.0,test_fixation,98,poldrack-single-stim,
99,350.0,400.0,350.0,500.0,"<div class = bigbox><div class = centerbox><div class = starbox><img class = star src=""/static/experiments/stop_signal_with_flanker/images/stopSignal.png""></img></div></div></div>",go,,2000.0,H,,72.0,1.0,0.0,29.0,stop_signal_with_flanker,,,,,,H_congruent,H,0.0-3.0-59.0,72.0,"[70, 72]",,504,1000.0,"<div class = bigbox><div class = centerbox><div class = flankerLeft_2><div class = cue-text><img class = center src=""/static/experiments/stop_signal_with_flanker/images/H.png""></img></div></div><div class = flankerLeft_1><div class = cue-text><img class = center src=""/static/experiments/stop_signal_with_flanker/images/H.png""></img></div></div><div class = flankerMiddle><div class = cue-text><img class = center src=""/static/experiments/stop_signal_with_flanker/images/H.png""></img></div></div><div class = flankerRight_1><div class = cue-text><img class = center src=""/static/experiments/stop_signal_with_flanker/images/H.png""></img></div></div><div class = flankerRight_2><div class = cue-text><img class = center src=""/static/experiments/stop_signal_with_flanker/images/H.png""></img>",,go,,154098,0.0,test_trial,99,stop-signal,
100,,,,,,,,500.0,,,,,,,stop_signal_with_flanker,,,,,,,,0.0-3.0-60.0,-1.0,none,,-1,500.0,<div class = centerbox><div class = fixation>+</div></div>,,,,154602,0.0,test_fixation,100,poldrack-single-stim,
101,350.0,400.0,400.0,500.0,"<div class = bigbox><div class = centerbox><div class = starbox><img class = star src=""/static/experiments/stop_signal_with_flanker/images/stopSignal.png""></img></div></div></div>",go,,2000.0,H,,72.0,1.0,0.0,30.0,stop_signal_with_flanker,,,,,,H_incongruent,F,0.0-3.0-61.0,72.0,"[70, 72]",,579,1000.0,"<div class = bigbox><div class = centerbox><div class = flankerLeft_2><div class = cue-text><img class = center src=""/static/experiments/stop_signal_with_flanker/images/F.png""></img></div></div><div class = flankerLeft_1><div class = cue-text><img class = center src=""/static/experiments/stop_signal_with_flanker/images/F.png""></img></div></div><div class = flankerMiddle><div class = cue-text><img class = center src=""/static/experiments/stop_signal_with_flanker/images/H.png""></img></div></div><div class = flankerRight_1><div class = cue-text><img class = center src=""/static/experiments/stop_signal_with_flanker/images/F.png""></img></div></div><div class = flankerRight_2><div class = cue-text><img class = center src=""/static/experiments/stop_signal_with_flanker/images/F.png""></img>",,go,,156613,0.0,test_trial,101,stop-signal,
102,,,,,,,,500.0,,,,,,,stop_signal_with_flanker,,,,,,,,0.0-3.0-62.0,-1.0,none,,-1,500.0,<div class = centerbox><div class = fixation>+</div></div>,,,,157115,0.0,test_fixation,102,poldrack-single-stim,
103,350.0,400.0,350.0,500.0,"<div class = bigbox><div class = centerbox><div class = starbox><img class = star src=""/static/experiments/stop_signal_with_flanker/images/stopSignal.png""></img></div></div></div>",go,,2000.0,H,,72.0,1.0,0.0,31.0,stop_signal_with_flanker,,,,,,H_congruent,H,0.0-3.0-63.0,72.0,"[70, 72]",,675,1000.0,"<div class = bigbox><div class = centerbox><div class = flankerLeft_2><div class = cue-text><img class = center src=""/static/experiments/stop_signal_with_flanker/images/H.png""></img></div></div><div class = flankerLeft_1><div class = cue-text><img class = center src=""/static/experiments/stop_signal_with_flanker/images/H.png""></img></div></div><div class = flankerMiddle><div class = cue-text><img class = center src=""/static/experiments/stop_signal_with_flanker/images/H.png""></img></div></div><div class = flankerRight_1><div class = cue-text><img class = center src=""/static/experiments/stop_signal_with_flanker/images/H.png""></img></div></div><div class = flankerRight_2><div class = cue-text><img class = center src=""/static/experiments/stop_signal_with_flanker/images/H.png""></img>",,go,,159125,0.0,test_trial,103,stop-signal,
104,,,,,,,,500.0,,,,,,,stop_signal_with_flanker,,,,,,,,0.0-3.0-64.0,-1.0,none,,-1,500.0,<div class = centerbox><div class = fixation>+</div></div>,,,,159629,0.0,test_fixation,104,poldrack-single-stim,
105,350.0,400.0,400.0,500.0,"<div class = bigbox><div class = centerbox><div class = starbox><img class = star src=""/static/experiments/stop_signal_with_flanker/images/stopSignal.png""></img></div></div></div>",stop,,2000.0,H,,-1.0,1.0,0.0,32.0,stop_signal_with_flanker,,,,,,H_incongruent,F,0.0-3.0-65.0,-1.0,"[70, 72]",,-1,1000.0,"<div class = bigbox><div class = centerbox><div class = flankerLeft_2><div class = cue-text><img class = center src=""/static/experiments/stop_signal_with_flanker/images/F.png""></img></div></div><div class = flankerLeft_1><div class = cue-text><img class = center src=""/static/experiments/stop_signal_with_flanker/images/F.png""></img></div></div><div class = flankerMiddle><div class = cue-text><img class = center src=""/static/experiments/stop_signal_with_flanker/images/H.png""></img></div></div><div class = flankerRight_1><div class = cue-text><img class = center src=""/static/experiments/stop_signal_with_flanker/images/F.png""></img></div></div><div class = flankerRight_2><div class = cue-text><img class = center src=""/static/experiments/stop_signal_with_flanker/images/F.png""></img>",1.0,stop,,161639,0.0,test_trial,105,stop-signal,
106,,,,,,,,500.0,,,,,,,stop_signal_with_flanker,,,,,,,,0.0-3.0-66.0,-1.0,none,,-1,500.0,<div class = centerbox><div class = fixation>+</div></div>,,,,162142,0.0,test_fixation,106,poldrack-single-stim,
107,350.0,450.0,450.0,500.0,"<div class = bigbox><div class = centerbox><div class = starbox><img class = star src=""/static/experiments/stop_signal_with_flanker/images/stopSignal.png""></img></div></div></div>",go,,2000.0,F,,70.0,1.0,0.0,33.0,stop_signal_with_flanker,,,,,,F_incongruent,H,0.0-3.0-67.0,70.0,"[70, 72]",,606,1000.0,"<div class = bigbox><div class = centerbox><div class = flankerLeft_2><div class = cue-text><img class = center src=""/static/experiments/stop_signal_with_flanker/images/H.png""></img></div></div><div class = flankerLeft_1><div class = cue-text><img class = center src=""/static/experiments/stop_signal_with_flanker/images/H.png""></img></div></div><div class = flankerMiddle><div class = cue-text><img class = center src=""/static/experiments/stop_signal_with_flanker/images/F.png""></img></div></div><div class = flankerRight_1><div class = cue-text><img class = center src=""/static/experiments/stop_signal_with_flanker/images/H.png""></img></div></div><div class = flankerRight_2><div class = cue-text><img class = center src=""/static/experiments/stop_signal_with_flanker/images/H.png""></img>",,go,,164156,0.0,test_trial,107,stop-signal,
108,,,,,,,,500.0,,,,,,,stop_signal_with_flanker,,,,,,,,0.0-3.0-68.0,-1.0,none,,-1,500.0,<div class = centerbox><div class = fixation>+</div></div>,,,,164659,0.0,test_fixation,108,poldrack-single-stim,
109,350.0,450.0,350.0,500.0,"<div class = bigbox><div class = centerbox><div class = starbox><img class = star src=""/static/experiments/stop_signal_with_flanker/images/stopSignal.png""></img></div></div></div>",stop,,2000.0,F,,-1.0,1.0,0.0,34.0,stop_signal_with_flanker,,,,,,F_congruent,F,0.0-3.0-69.0,-1.0,"[70, 72]",,-1,1000.0,"<div class = bigbox><div class = centerbox><div class = flankerLeft_2><div class = cue-text><img class = center src=""/static/experiments/stop_signal_with_flanker/images/F.png""></img></div></div><div class = flankerLeft_1><div class = cue-text><img class = center src=""/static/experiments/stop_signal_with_flanker/images/F.png""></img></div></div><div class = flankerMiddle><div class = cue-text><img class = center src=""/static/experiments/stop_signal_with_flanker/images/F.png""></img></div></div><div class = flankerRight_1><div class = cue-text><img class = center src=""/static/experiments/stop_signal_with_flanker/images/F.png""></img></div></div><div class = flankerRight_2><div class = cue-text><img class = center src=""/static/experiments/stop_signal_with_flanker/images/F.png""></img>",1.0,stop,,166669,0.0,test_trial,109,stop-signal,
110,,,,,,,,500.0,,,,,,,stop_signal_with_flanker,,,,,,,,0.0-3.0-70.0,-1.0,none,,-1,500.0,<div class = centerbox><div class = fixation>+</div></div>,,,,167209,0.0,test_fixation,110,poldrack-single-stim,
111,400.0,450.0,400.0,500.0,"<div class = bigbox><div class = centerbox><div class = starbox><img class = star src=""/static/experiments/stop_signal_with_flanker/images/stopSignal.png""></img></div></div></div>",go,,2000.0,F,,70.0,1.0,0.0,35.0,stop_signal_with_flanker,,,,,,F_congruent,F,0.0-3.0-71.0,70.0,"[70, 72]",,563,1000.0,"<div class = bigbox><div class = centerbox><div class = flankerLeft_2><div class = cue-text><img class = center src=""/static/experiments/stop_signal_with_flanker/images/F.png""></img></div></div><div class = flankerLeft_1><div class = cue-text><img class = center src=""/static/experiments/stop_signal_with_flanker/images/F.png""></img></div></div><div class = flankerMiddle><div class = cue-text><img class = center src=""/static/experiments/stop_signal_with_flanker/images/F.png""></img></div></div><div class = flankerRight_1><div class = cue-text><img class = center src=""/static/experiments/stop_signal_with_flanker/images/F.png""></img></div></div><div class = flankerRight_2><div class = cue-text><img class = center src=""/static/experiments/stop_signal_with_flanker/images/F.png""></img>",,go,,169219,0.0,test_trial,111,stop-signal,
112,,,,,,,,500.0,,,,,,,stop_signal_with_flanker,,,,,,,,0.0-3.0-72.0,-1.0,none,,-1,500.0,<div class = centerbox><div class = fixation>+</div></div>,,,,169722,0.0,test_fixation,112,poldrack-single-stim,
113,400.0,450.0,400.0,500.0,"<div class = bigbox><div class = centerbox><div class = starbox><img class = star src=""/static/experiments/stop_signal_with_flanker/images/stopSignal.png""></img></div></div></div>",go,,2000.0,F,,70.0,1.0,0.0,36.0,stop_signal_with_flanker,,,,,,F_congruent,F,0.0-3.0-73.0,70.0,"[70, 72]",,667,1000.0,"<div class = bigbox><div class = centerbox><div class = flankerLeft_2><div class = cue-text><img class = center src=""/static/experiments/stop_signal_with_flanker/images/F.png""></img></div></div><div class = flankerLeft_1><div class = cue-text><img class = center src=""/static/experiments/stop_signal_with_flanker/images/F.png""></img></div></div><div class = flankerMiddle><div class = cue-text><img class = center src=""/static/experiments/stop_signal_with_flanker/images/F.png""></img></div></div><div class = flankerRight_1><div class = cue-text><img class = center src=""/static/experiments/stop_signal_with_flanker/images/F.png""></img></div></div><div class = flankerRight_2><div class = cue-text><img class = center src=""/static/experiments/stop_signal_with_flanker/images/F.png""></img>",,go,,171732,0.0,test_trial,113,stop-signal,
114,,,,,,,,500.0,,,,,,,stop_signal_with_flanker,,,,,,,,0.0-3.0-74.0,-1.0,none,,-1,500.0,<div class = centerbox><div class = fixation>+</div></div>,,,,172235,0.0,test_fixation,114,poldrack-single-stim,
115,400.0,450.0,450.0,500.0,"<div class = bigbox><div class = centerbox><div class = starbox><img class = star src=""/static/experiments/stop_signal_with_flanker/images/stopSignal.png""></img></div></div></div>",stop,,2000.0,H,,-1.0,0.0,0.0,37.0,stop_signal_with_flanker,,,,,,H_incongruent,F,0.0-3.0-75.0,72.0,"[70, 72]",,687,1000.0,"<div class = bigbox><div class = centerbox><div class = flankerLeft_2><div class = cue-text><img class = center src=""/static/experiments/stop_signal_with_flanker/images/F.png""></img></div></div><div class = flankerLeft_1><div class = cue-text><img class = center src=""/static/experiments/stop_signal_with_flanker/images/F.png""></img></div></div><div class = flankerMiddle><div class = cue-text><img class = center src=""/static/experiments/stop_signal_with_flanker/images/H.png""></img></div></div><div class = flankerRight_1><div class = cue-text><img class = center src=""/static/experiments/stop_signal_with_flanker/images/F.png""></img></div></div><div class = flankerRight_2><div class = cue-text><img class = center src=""/static/experiments/stop_signal_with_flanker/images/F.png""></img>",0.0,stop,,174246,0.0,test_trial,115,stop-signal,
116,,,,,,,,500.0,,,,,,,stop_signal_with_flanker,,,,,,,,0.0-3.0-76.0,-1.0,none,,-1,500.0,<div class = centerbox><div class = fixation>+</div></div>,,,,174748,0.0,test_fixation,116,poldrack-single-stim,
117,400.0,400.0,400.0,500.0,"<div class = bigbox><div class = centerbox><div class = starbox><img class = star src=""/static/experiments/stop_signal_with_flanker/images/stopSignal.png""></img></div></div></div>",go,,2000.0,H,,72.0,1.0,0.0,38.0,stop_signal_with_flanker,,,,,,H_incongruent,F,0.0-3.0-77.0,72.0,"[70, 72]",,515,1000.0,"<div class = bigbox><div class = centerbox><div class = flankerLeft_2><div class = cue-text><img class = center src=""/static/experiments/stop_signal_with_flanker/images/F.png""></img></div></div><div class = flankerLeft_1><div class = cue-text><img class = center src=""/static/experiments/stop_signal_with_flanker/images/F.png""></img></div></div><div class = flankerMiddle><div class = cue-text><img class = center src=""/static/experiments/stop_signal_with_flanker/images/H.png""></img></div></div><div class = flankerRight_1><div class = cue-text><img class = center src=""/static/experiments/stop_signal_with_flanker/images/F.png""></img></div></div><div class = flankerRight_2><div class = cue-text><img class = center src=""/static/experiments/stop_signal_with_flanker/images/F.png""></img>",,go,,176759,0.0,test_trial,117,stop-signal,
118,,,,,,,,500.0,,,,,,,stop_signal_with_flanker,,,,,,,,0.0-3.0-78.0,-1.0,none,,-1,500.0,<div class = centerbox><div class = fixation>+</div></div>,,,,177262,0.0,test_fixation,118,poldrack-single-stim,
119,400.0,400.0,400.0,500.0,"<div class = bigbox><div class = centerbox><div class = starbox><img class = star src=""/static/experiments/stop_signal_with_flanker/images/stopSignal.png""></img></div></div></div>",go,,2000.0,H,,72.0,1.0,0.0,39.0,stop_signal_with_flanker,,,,,,H_congruent,H,0.0-3.0-79.0,72.0,"[70, 72]",,584,1000.0,"<div class = bigbox><div class = centerbox><div class = flankerLeft_2><div class = cue-text><img class = center src=""/static/experiments/stop_signal_with_flanker/images/H.png""></img></div></div><div class = flankerLeft_1><div class = cue-text><img class = center src=""/static/experiments/stop_signal_with_flanker/images/H.png""></img></div></div><div class = flankerMiddle><div class = cue-text><img class = center src=""/static/experiments/stop_signal_with_flanker/images/H.png""></img></div></div><div class = flankerRight_1><div class = cue-text><img class = center src=""/static/experiments/stop_signal_with_flanker/images/H.png""></img></div></div><div class = flankerRight_2><div class = cue-text><img class = center src=""/static/experiments/stop_signal_with_flanker/images/H.png""></img>",,go,,179273,0.0,test_trial,119,stop-signal,
120,,,,,,,,500.0,,,,,,,stop_signal_with_flanker,,,,,,,,0.0-3.0-80.0,-1.0,none,,-1,500.0,<div class = centerbox><div class = fixation>+</div></div>,,,,179775,0.0,test_fixation,120,poldrack-single-stim,
121,400.0,400.0,400.0,500.0,"<div class = bigbox><div class = centerbox><div class = starbox><img class = star src=""/static/experiments/stop_signal_with_flanker/images/stopSignal.png""></img></div></div></div>",stop,,2000.0,F,,-1.0,1.0,0.0,40.0,stop_signal_with_flanker,,,,,,F_incongruent,H,0.0-3.0-81.0,-1.0,"[70, 72]",,-1,1000.0,"<div class = bigbox><div class = centerbox><div class = flankerLeft_2><div class = cue-text><img class = center src=""/static/experiments/stop_signal_with_flanker/images/H.png""></img></div></div><div class = flankerLeft_1><div class = cue-text><img class = center src=""/static/experiments/stop_signal_with_flanker/images/H.png""></img></div></div><div class = flankerMiddle><div class = cue-text><img class = center src=""/static/experiments/stop_signal_with_flanker/images/F.png""></img></div></div><div class = flankerRight_1><div class = cue-text><img class = center src=""/static/experiments/stop_signal_with_flanker/images/H.png""></img></div></div><div class = flankerRight_2><div class = cue-text><img class = center src=""/static/experiments/stop_signal_with_flanker/images/H.png""></img>",1.0,stop,,181787,0.0,test_trial,121,stop-signal,
122,,,,,,,,500.0,,,,,,,stop_signal_with_flanker,,,,,,,,0.0-3.0-82.0,-1.0,none,,-1,500.0,<div class = centerbox><div class = fixation>+</div></div>,,,,182289,0.0,test_fixation,122,poldrack-single-stim,
123,400.0,450.0,450.0,500.0,"<div class = bigbox><div class = centerbox><div class = starbox><img class = star src=""/static/experiments/stop_signal_with_flanker/images/stopSignal.png""></img></div></div></div>",go,,2000.0,F,,70.0,1.0,0.0,41.0,stop_signal_with_flanker,,,,,,F_incongruent,H,0.0-3.0-83.0,70.0,"[70, 72]",,513,1000.0,"<div class = bigbox><div class = centerbox><div class = flankerLeft_2><div class = cue-text><img class = center src=""/static/experiments/stop_signal_with_flanker/images/H.png""></img></div></div><div class = flankerLeft_1><div class = cue-text><img class = center src=""/static/experiments/stop_signal_with_flanker/images/H.png""></img></div></div><div class = flankerMiddle><div class = cue-text><img class = center src=""/static/experiments/stop_signal_with_flanker/images/F.png""></img></div></div><div class = flankerRight_1><div class = cue-text><img class = center src=""/static/experiments/stop_signal_with_flanker/images/H.png""></img></div></div><div class = flankerRight_2><div class = cue-text><img class = center src=""/static/experiments/stop_signal_with_flanker/images/H.png""></img>",,go,,184303,0.0,test_trial,123,stop-signal,
124,,,,,,,,500.0,,,,,,,stop_signal_with_flanker,,,,,,,,0.0-3.0-84.0,-1.0,none,,-1,500.0,<div class = centerbox><div class = fixation>+</div></div>,,,,184806,0.0,test_fixation,124,poldrack-single-stim,
125,400.0,450.0,450.0,500.0,"<div class = bigbox><div class = centerbox><div class = starbox><img class = star src=""/static/experiments/stop_signal_with_flanker/images/stopSignal.png""></img></div></div></div>",go,,2000.0,F,,70.0,1.0,0.0,42.0,stop_signal_with_flanker,,,,,,F_incongruent,H,0.0-3.0-85.0,70.0,"[70, 72]",,637,1000.0,"<div class = bigbox><div class = centerbox><div class = flankerLeft_2><div class = cue-text><img class = center src=""/static/experiments/stop_signal_with_flanker/images/H.png""></img></div></div><div class = flankerLeft_1><div class = cue-text><img class = center src=""/static/experiments/stop_signal_with_flanker/images/H.png""></img></div></div><div class = flankerMiddle><div class = cue-text><img class = center src=""/static/experiments/stop_signal_with_flanker/images/F.png""></img></div></div><div class = flankerRight_1><div class = cue-text><img class = center src=""/static/experiments/stop_signal_with_flanker/images/H.png""></img></div></div><div class = flankerRight_2><div class = cue-text><img class = center src=""/static/experiments/stop_signal_with_flanker/images/H.png""></img>",,go,,186817,0.0,test_trial,125,stop-signal,
126,,,,,,,,500.0,,,,,,,stop_signal_with_flanker,,,,,,,,0.0-3.0-86.0,-1.0,none,,-1,500.0,<div class = centerbox><div class = fixation>+</div></div>,,,,187334,0.0,test_fixation,126,poldrack-single-stim,
127,400.0,450.0,450.0,500.0,"<div class = bigbox><div class = centerbox><div class = starbox><img class = star src=""/static/experiments/stop_signal_with_flanker/images/stopSignal.png""></img></div></div></div>",go,,2000.0,H,,72.0,1.0,0.0,43.0,stop_signal_with_flanker,,,,,,H_incongruent,F,0.0-3.0-87.0,72.0,"[70, 72]",,715,1000.0,"<div class = bigbox><div class = centerbox><div class = flankerLeft_2><div class = cue-text><img class = center src=""/static/experiments/stop_signal_with_flanker/images/F.png""></img></div></div><div class = flankerLeft_1><div class = cue-text><img class = center src=""/static/experiments/stop_signal_with_flanker/images/F.png""></img></div></div><div class = flankerMiddle><div class = cue-text><img class = center src=""/static/experiments/stop_signal_with_flanker/images/H.png""></img></div></div><div class = flankerRight_1><div class = cue-text><img class = center src=""/static/experiments/stop_signal_with_flanker/images/F.png""></img></div></div><div class = flankerRight_2><div class = cue-text><img class = center src=""/static/experiments/stop_signal_with_flanker/images/F.png""></img>",,go,,189345,0.0,test_trial,127,stop-signal,
128,,,,,,,,500.0,,,,,,,stop_signal_with_flanker,,,,,,,,0.0-3.0-88.0,-1.0,none,,-1,500.0,<div class = centerbox><div class = fixation>+</div></div>,,,,189847,0.0,test_fixation,128,poldrack-single-stim,
129,400.0,450.0,450.0,500.0,"<div class = bigbox><div class = centerbox><div class = starbox><img class = star src=""/static/experiments/stop_signal_with_flanker/images/stopSignal.png""></img></div></div></div>",stop,,2000.0,H,,-1.0,0.0,0.0,44.0,stop_signal_with_flanker,,,,,,H_incongruent,F,0.0-3.0-89.0,72.0,"[70, 72]",,599,1000.0,"<div class = bigbox><div class = centerbox><div class = flankerLeft_2><div class = cue-text><img class = center src=""/static/experiments/stop_signal_with_flanker/images/F.png""></img></div></div><div class = flankerLeft_1><div class = cue-text><img class = center src=""/static/experiments/stop_signal_with_flanker/images/F.png""></img></div></div><div class = flankerMiddle><div class = cue-text><img class = center src=""/static/experiments/stop_signal_with_flanker/images/H.png""></img></div></div><div class = flankerRight_1><div class = cue-text><img class = center src=""/static/experiments/stop_signal_with_flanker/images/F.png""></img></div></div><div class = flankerRight_2><div class = cue-text><img class = center src=""/static/experiments/stop_signal_with_flanker/images/F.png""></img>",0.0,stop,,191858,0.0,test_trial,129,stop-signal,
130,,,,,,,,500.0,,,,,,,stop_signal_with_flanker,,,,,,,,0.0-3.0-90.0,-1.0,none,,-1,500.0,<div class = centerbox><div class = fixation>+</div></div>,,,,192361,0.0,test_fixation,130,poldrack-single-stim,
131,400.0,400.0,400.0,500.0,"<div class = bigbox><div class = centerbox><div class = starbox><img class = star src=""/static/experiments/stop_signal_with_flanker/images/stopSignal.png""></img></div></div></div>",stop,,2000.0,H,,-1.0,0.0,0.0,45.0,stop_signal_with_flanker,,,,,,H_congruent,H,0.0-3.0-91.0,72.0,"[70, 72]",,597,1000.0,"<div class = bigbox><div class = centerbox><div class = flankerLeft_2><div class = cue-text><img class = center src=""/static/experiments/stop_signal_with_flanker/images/H.png""></img></div></div><div class = flankerLeft_1><div class = cue-text><img class = center src=""/static/experiments/stop_signal_with_flanker/images/H.png""></img></div></div><div class = flankerMiddle><div class = cue-text><img class = center src=""/static/experiments/stop_signal_with_flanker/images/H.png""></img></div></div><div class = flankerRight_1><div class = cue-text><img class = center src=""/static/experiments/stop_signal_with_flanker/images/H.png""></img></div></div><div class = flankerRight_2><div class = cue-text><img class = center src=""/static/experiments/stop_signal_with_flanker/images/H.png""></img>",0.0,stop,,194371,0.0,test_trial,131,stop-signal,
132,,,,,,,,500.0,,,,,,,stop_signal_with_flanker,,,,,,,,0.0-3.0-92.0,-1.0,none,,-1,500.0,<div class = centerbox><div class = fixation>+</div></div>,,,,194873,0.0,test_fixation,132,poldrack-single-stim,
133,350.0,400.0,350.0,500.0,"<div class = bigbox><div class = centerbox><div class = starbox><img class = star src=""/static/experiments/stop_signal_with_flanker/images/stopSignal.png""></img></div></div></div>",go,,2000.0,H,,72.0,1.0,0.0,46.0,stop_signal_with_flanker,,,,,,H_congruent,H,0.0-3.0-93.0,72.0,"[70, 72]",,654,1000.0,"<div class = bigbox><div class = centerbox><div class = flankerLeft_2><div class = cue-text><img class = center src=""/static/experiments/stop_signal_with_flanker/images/H.png""></img></div></div><div class = flankerLeft_1><div class = cue-text><img class = center src=""/static/experiments/stop_signal_with_flanker/images/H.png""></img></div></div><div class = flankerMiddle><div class = cue-text><img class = center src=""/static/experiments/stop_signal_with_flanker/images/H.png""></img></div></div><div class = flankerRight_1><div class = cue-text><img class = center src=""/static/experiments/stop_signal_with_flanker/images/H.png""></img></div></div><div class = flankerRight_2><div class = cue-text><img class = center src=""/static/experiments/stop_signal_with_flanker/images/H.png""></img>",,go,,196883,0.0,test_trial,133,stop-signal,
134,,,,,,,,500.0,,,,,,,stop_signal_with_flanker,,,,,,,,0.0-3.0-94.0,-1.0,none,,-1,500.0,<div class = centerbox><div class = fixation>+</div></div>,,,,197387,0.0,test_fixation,134,poldrack-single-stim,
135,350.0,400.0,400.0,500.0,"<div class = bigbox><div class = centerbox><div class = starbox><img class = star src=""/static/experiments/stop_signal_with_flanker/images/stopSignal.png""></img></div></div></div>",stop,,2000.0,F,,-1.0,1.0,0.0,47.0,stop_signal_with_flanker,,,,,,F_incongruent,H,0.0-3.0-95.0,-1.0,"[70, 72]",,-1,1000.0,"<div class = bigbox><div class = centerbox><div class = flankerLeft_2><div class = cue-text><img class = center src=""/static/experiments/stop_signal_with_flanker/images/H.png""></img></div></div><div class = flankerLeft_1><div class = cue-text><img class = center src=""/static/experiments/stop_signal_with_flanker/images/H.png""></img></div></div><div class = flankerMiddle><div class = cue-text><img class = center src=""/static/experiments/stop_signal_with_flanker/images/F.png""></img></div></div><div class = flankerRight_1><div class = cue-text><img class = center src=""/static/experiments/stop_signal_with_flanker/images/H.png""></img></div></div><div class = flankerRight_2><div class = cue-text><img class = center src=""/static/experiments/stop_signal_with_flanker/images/H.png""></img>",1.0,stop,,199398,0.0,test_trial,135,stop-signal,
136,,,,,,,,500.0,,,,,,,stop_signal_with_flanker,,,,,,,,0.0-3.0-96.0,-1.0,none,,-1,500.0,<div class = centerbox><div class = fixation>+</div></div>,,,,199900,0.0,test_fixation,136,poldrack-single-stim,
137,350.0,450.0,450.0,500.0,"<div class = bigbox><div class = centerbox><div class = starbox><img class = star src=""/static/experiments/stop_signal_with_flanker/images/stopSignal.png""></img></div></div></div>",go,,2000.0,F,,70.0,1.0,0.0,48.0,stop_signal_with_flanker,,,,,,F_incongruent,H,0.0-3.0-97.0,70.0,"[70, 72]",,686,1000.0,"<div class = bigbox><div class = centerbox><div class = flankerLeft_2><div class = cue-text><img class = center src=""/static/experiments/stop_signal_with_flanker/images/H.png""></img></div></div><div class = flankerLeft_1><div class = cue-text><img class = center src=""/static/experiments/stop_signal_with_flanker/images/H.png""></img></div></div><div class = flankerMiddle><div class = cue-text><img class = center src=""/static/experiments/stop_signal_with_flanker/images/F.png""></img></div></div><div class = flankerRight_1><div class = cue-text><img class = center src=""/static/experiments/stop_signal_with_flanker/images/H.png""></img></div></div><div class = flankerRight_2><div class = cue-text><img class = center src=""/static/experiments/stop_signal_with_flanker/images/H.png""></img>",,go,,201909,0.0,test_trial,137,stop-signal,
138,,,,,,,,45232.0,,,,,,,stop_signal_with_flanker,,,,,,,,0.0-3.1-0.1,13.0,[13],,45232,45232.0,<div class = bigbox><div class = picture_box><p class = block-text><br>Please take this time to read your feedback and to take a short break! Press enter to continue</p><p class = block-text>You have completed: 1 out of 5 blocks of trials.</p></div></div>,,,,247152,0.0,feedback_block,138,poldrack-single-stim,
139,,,,,,,,5772.0,,True,72.0,,,,stop_signal_with_flanker,,,,,,,,0.0-3.1-1.1-0.1,72.0,[],,5772,5772.0,"<p>Please read the following paragraph:</p><p>As Gregor Samsa awoke one morning from uneasy dreams he found himself transformed in his bed into a gigantic insect. Are you reading this paragraph? If so, press the key the letter that starts the next sentence. He was lying on his hard, as it were armor-plated, back and when he lifted his head a little he could see his dome-like brown belly divided into stiff arched segments on top of which the bed quilt could hardly keep in position and was about to slide off completely. His numerous legs, which were pitifully thin compared to the rest of his bulk, waved helplessly before his eyes. --Metamorphosis (Franz Kafka)</p><p>Press the ""A"" key.",,,,252929,200.0,attention_check,139,attention-check,
140,,,,,,,,500.0,,,,,,,stop_signal_with_flanker,,,,,,,,0.0-3.1-2.1,-1.0,none,,-1,500.0,<div class = centerbox><div class = fixation>+</div></div>,,,,253632,0.0,test_fixation,140,poldrack-single-stim,
141,350.0,450.0,350.0,500.0,"<div class = bigbox><div class = centerbox><div class = starbox><img class = star src=""/static/experiments/stop_signal_with_flanker/images/stopSignal.png""></img></div></div></div>",stop,,2000.0,F,,-1.0,1.0,1.0,1.0,stop_signal_with_flanker,,,,,,F_congruent,F,0.0-3.1-3.1,-1.0,"[70, 72]",,-1,1000.0,"<div class = bigbox><div class = centerbox><div class = flankerLeft_2><div class = cue-text><img class = center src=""/static/experiments/stop_signal_with_flanker/images/F.png""></img></div></div><div class = flankerLeft_1><div class = cue-text><img class = center src=""/static/experiments/stop_signal_with_flanker/images/F.png""></img></div></div><div class = flankerMiddle><div class = cue-text><img class = center src=""/static/experiments/stop_signal_with_flanker/images/F.png""></img></div></div><div class = flankerRight_1><div class = cue-text><img class = center src=""/static/experiments/stop_signal_with_flanker/images/F.png""></img></div></div><div class = flankerRight_2><div class = cue-text><img class = center src=""/static/experiments/stop_signal_with_flanker/images/F.png""></img>",1.0,stop,,255637,0.0,test_trial,141,stop-signal,
142,,,,,,,,500.0,,,,,,,stop_signal_with_flanker,,,,,,,,0.0-3.1-4.1,-1.0,none,,-1,500.0,<div class = centerbox><div class = fixation>+</div></div>,,,,256139,0.0,test_fixation,142,poldrack-single-stim,
143,400.0,450.0,450.0,500.0,"<div class = bigbox><div class = centerbox><div class = starbox><img class = star src=""/static/experiments/stop_signal_with_flanker/images/stopSignal.png""></img></div></div></div>",go,,2000.0,F,,70.0,1.0,1.0,2.0,stop_signal_with_flanker,,,,,,F_incongruent,H,0.0-3.1-5.1,70.0,"[70, 72]",,544,1000.0,"<div class = bigbox><div class = centerbox><div class = flankerLeft_2><div class = cue-text><img class = center src=""/static/experiments/stop_signal_with_flanker/images/H.png""></img></div></div><div class = flankerLeft_1><div class = cue-text><img class = center src=""/static/experiments/stop_signal_with_flanker/images/H.png""></img></div></div><div class = flankerMiddle><div class = cue-text><img class = center src=""/static/experiments/stop_signal_with_flanker/images/F.png""></img></div></div><div class = flankerRight_1><div class = cue-text><img class = center src=""/static/experiments/stop_signal_with_flanker/images/H.png""></img></div></div><div class = flankerRight_2><div class = cue-text><img class = center src=""/static/experiments/stop_signal_with_flanker/images/H.png""></img>",,go,,258149,0.0,test_trial,143,stop-signal,
144,,,,,,,,500.0,,,,,,,stop_signal_with_flanker,,,,,,,,0.0-3.1-6.1,-1.0,none,,-1,500.0,<div class = centerbox><div class = fixation>+</div></div>,,,,258654,0.0,test_fixation,144,poldrack-single-stim,
145,400.0,450.0,450.0,500.0,"<div class = bigbox><div class = centerbox><div class = starbox><img class = star src=""/static/experiments/stop_signal_with_flanker/images/stopSignal.png""></img></div></div></div>",go,,2000.0,H,,72.0,1.0,1.0,3.0,stop_signal_with_flanker,,,,,,H_incongruent,F,0.0-3.1-7.1,72.0,"[70, 72]",,623,1000.0,"<div class = bigbox><div class = centerbox><div class = flankerLeft_2><div class = cue-text><img class = center src=""/static/experiments/stop_signal_with_flanker/images/F.png""></img></div></div><div class = flankerLeft_1><div class = cue-text><img class = center src=""/static/experiments/stop_signal_with_flanker/images/F.png""></img></div></div><div class = flankerMiddle><div class = cue-text><img class = center src=""/static/experiments/stop_signal_with_flanker/images/H.png""></img></div></div><div class = flankerRight_1><div class = cue-text><img class = center src=""/static/experiments/stop_signal_with_flanker/images/F.png""></img></div></div><div class = flankerRight_2><div class = cue-text><img class = center src=""/static/experiments/stop_signal_with_flanker/images/F.png""></img>",,go,,260664,0.0,test_trial,145,stop-signal,
146,,,,,,,,500.0,,,,,,,stop_signal_with_flanker,,,,,,,,0.0-3.1-8.1,-1.0,none,,-1,500.0,<div class = centerbox><div class = fixation>+</div></div>,,,,261166,0.0,test_fixation,146,poldrack-single-stim,
147,400.0,450.0,400.0,500.0,"<div class = bigbox><div class = centerbox><div class = starbox><img class = star src=""/static/experiments/stop_signal_with_flanker/images/stopSignal.png""></img></div></div></div>",go,,2000.0,H,,72.0,1.0,1.0,4.0,stop_signal_with_flanker,,,,,,H_congruent,H,0.0-3.1-9.1,72.0,"[70, 72]",,555,1000.0,"<div class = bigbox><div class = centerbox><div class = flankerLeft_2><div class = cue-text><img class = center src=""/static/experiments/stop_signal_with_flanker/images/H.png""></img></div></div><div class = flankerLeft_1><div class = cue-text><img class = center src=""/static/experiments/stop_signal_with_flanker/images/H.png""></img></div></div><div class = flankerMiddle><div class = cue-text><img class = center src=""/static/experiments/stop_signal_with_flanker/images/H.png""></img></div></div><div class = flankerRight_1><div class = cue-text><img class = center src=""/static/experiments/stop_signal_with_flanker/images/H.png""></img></div></div><div class = flankerRight_2><div class = cue-text><img class = center src=""/static/experiments/stop_signal_with_flanker/images/H.png""></img>",,go,,263177,0.0,test_trial,147,stop-signal,
148,,,,,,,,500.0,,,,,,,stop_signal_with_flanker,,,,,,,,0.0-3.1-10.1,-1.0,none,,-1,500.0,<div class = centerbox><div class = fixation>+</div></div>,,,,263681,0.0,test_fixation,148,poldrack-single-stim,
