,SSD_diff,SSD_neutral,SSD_same,SS_delay,SS_duration,SS_stimulus,SS_trial_type,att_check_percent,block_duration,correct,correct_response,correct_trial,current_block,current_trial,distractor,exp_id,final_accuracy,final_avg_rt,final_credit_var,final_missed_percent,final_responses_ok,internal_node_id,key_press,possible_responses,probe,responses,rt,shape_matching_condition,stim_duration,stimulus,stop_acc,stop_signal_condition,target,text,time_elapsed,timing_post_trial,trial_id,trial_index,trial_type,view_history
0,,,,,,,,,180000.0,,,,,,,stop_signal_with_shape_matching,,,,,,0.0-0.0-0.0,-1.0,[13],,,-1,,180000.0,<div class = bigbox><div class = picture_box><p class = block-text>Welcome to the experiment. This experiment will take about 20 minutes. Press <i>enter</i> to begin.</p></div></div>,,,,,180015,0.0,feedback_block,0,poldrack-single-stim,
1,,,,,,,,,,,,,,,,stop_signal_with_shape_matching,,,,,,0.0-0.0-1.0,,,,,4769589,,,,,,,,4949615,,instruction,1,poldrack-instructions,"[{""page_index"":0,""viewing_time"":4765965},{""page_index"":1,""viewing_time"":2621},{""page_index"":2,""viewing_time"":1000}]"
2,,,,,,,,,500.0,,,,,,,stop_signal_with_shape_matching,,,,,,0.0-0.0-2.0,-1.0,none,,,-1,,500.0,"<div class = bigbox><div class = leftbox><img class = center src=""/static/experiments/stop_signal_with_shape_matching/images/mask.png""></img><div class = centerbox><div class = fixation>+</div></div></div><div class = rightbox><img class = center src=""/static/experiments/stop_signal_with_shape_matching/images/mask.png""></img><div class = centerbox><div class = fixation>+</div></div></div></div>",,,,,4951133,0.0,practice_mask,2,poldrack-single-stim,
3,350.0,350.0,350.0,350.0,500.0,"<div class = starbox><img class = center src=""/static/experiments/stop_signal_with_shape_matching/images/stopSignal.png""></img></div>",go,,2000.0,,90.0,1.0,0.0,1.0,none,stop_signal_with_shape_matching,,,,,,0.0-0.0-3.0,90.0,"[77, 90]",2.0,,978,DNN,1000.0,"<div class = bigbox><div class = leftbox><img class = center src=""/static/experiments/stop_signal_with_shape_matching/images/6_green.png""></img></div><div class = distractorbox></div><div class = rightbox><img class = center src=""/static/experiments/stop_signal_with_shape_matching/images/2_white.png""></img></div></div>",,go,6.0,,4953152,0.0,practice_trial,3,stop-signal,
4,,,,,,,,,500.0,,,,,,,stop_signal_with_shape_matching,,,,,,0.0-0.0-4.0,-1.0,none,,,-1,,500.0,"<div class = fb_box><div class = center-text><font size = 20>Correct!</font></div></div><div class = prompt_box><p class = center-block-text style = ""font-size:16px; line-height:80%;"">Respond if the green and white shapes are the same or different!</p><p class = center-block-text style = ""font-size:16px; line-height:80%;"">Same: M Key</p><p class = center-block-text style = ""font-size:16px; line-height:80%;"">Different: Z Key</p><p class = center-block-text style = ""font-size:16px; line-height:80%;"">Do not respond if you see a star around the white shape</p><p class = center-block-text style = ""font-size:16px; line-height:80%;"">Do not slow down your responses to the shape to wait for the star.</p></div>",,,,,4953667,0.0,practice-stop-feedback,4,poldrack-single-stim,
5,,,,,,,,,500.0,,,,,,,stop_signal_with_shape_matching,,,,,,0.0-0.0-5.0,-1.0,none,,,-1,,500.0,"<div class = bigbox><div class = leftbox><img class = center src=""/static/experiments/stop_signal_with_shape_matching/images/mask.png""></img><div class = centerbox><div class = fixation>+</div></div></div><div class = rightbox><img class = center src=""/static/experiments/stop_signal_with_shape_matching/images/mask.png""></img><div class = centerbox><div class = fixation>+</div></div></div></div>",,,,,4954180,0.0,practice_mask,5,poldrack-single-stim,
6,350.0,350.0,350.0,350.0,500.0,"<div class = starbox><img class = center src=""/static/experiments/stop_signal_with_shape_matching/images/stopSignal.png""></img></div>",go,,2000.0,,90.0,1.0,0.0,2.0,2,stop_signal_with_shape_matching,,,,,,0.0-0.0-6.0,90.0,"[77, 90]",2.0,,1004,DDS,1000.0,"<div class = bigbox><div class = leftbox><img class = center src=""/static/experiments/stop_signal_with_shape_matching/images/10_green.png""></img></div><div class = distractorbox><img class = center src=""/static/experiments/stop_signal_with_shape_matching/images/2_red.png""></img></div><div class = rightbox><img class = center src=""/static/experiments/stop_signal_with_shape_matching/images/2_white.png""></img></div></div>",,go,10.0,,4956192,0.0,practice_trial,6,stop-signal,
7,,,,,,,,,500.0,,,,,,,stop_signal_with_shape_matching,,,,,,0.0-0.0-7.0,-1.0,none,,,-1,,500.0,"<div class = fb_box><div class = center-text><font size = 20>Correct!</font></div></div><div class = prompt_box><p class = center-block-text style = ""font-size:16px; line-height:80%;"">Respond if the green and white shapes are the same or different!</p><p class = center-block-text style = ""font-size:16px; line-height:80%;"">Same: M Key</p><p class = center-block-text style = ""font-size:16px; line-height:80%;"">Different: Z Key</p><p class = center-block-text style = ""font-size:16px; line-height:80%;"">Do not respond if you see a star around the white shape</p><p class = center-block-text style = ""font-size:16px; line-height:80%;"">Do not slow down your responses to the shape to wait for the star.</p></div>",,,,,4956703,0.0,practice-stop-feedback,7,poldrack-single-stim,
8,,,,,,,,,500.0,,,,,,,stop_signal_with_shape_matching,,,,,,0.0-0.0-8.0,-1.0,none,,,-1,,500.0,"<div class = bigbox><div class = leftbox><img class = center src=""/static/experiments/stop_signal_with_shape_matching/images/mask.png""></img><div class = centerbox><div class = fixation>+</div></div></div><div class = rightbox><img class = center src=""/static/experiments/stop_signal_with_shape_matching/images/mask.png""></img><div class = centerbox><div class = fixation>+</div></div></div></div>",,,,,4957220,0.0,practice_mask,8,poldrack-single-stim,
9,350.0,350.0,350.0,350.0,500.0,"<div class = starbox><img class = center src=""/static/experiments/stop_signal_with_shape_matching/images/stopSignal.png""></img></div>",go,,2000.0,,77.0,1.0,0.0,3.0,5,stop_signal_with_shape_matching,,,,,,0.0-0.0-9.0,77.0,"[77, 90]",4.0,,725,SDD,1000.0,"<div class = bigbox><div class = leftbox><img class = center src=""/static/experiments/stop_signal_with_shape_matching/images/4_green.png""></img></div><div class = distractorbox><img class = center src=""/static/experiments/stop_signal_with_shape_matching/images/5_red.png""></img></div><div class = rightbox><img class = center src=""/static/experiments/stop_signal_with_shape_matching/images/4_white.png""></img></div></div>",,go,4.0,,4959233,0.0,practice_trial,9,stop-signal,
10,,,,,,,,,500.0,,,,,,,stop_signal_with_shape_matching,,,,,,0.0-0.0-10.0,-1.0,none,,,-1,,500.0,"<div class = fb_box><div class = center-text><font size = 20>Correct!</font></div></div><div class = prompt_box><p class = center-block-text style = ""font-size:16px; line-height:80%;"">Respond if the green and white shapes are the same or different!</p><p class = center-block-text style = ""font-size:16px; line-height:80%;"">Same: M Key</p><p class = center-block-text style = ""font-size:16px; line-height:80%;"">Different: Z Key</p><p class = center-block-text style = ""font-size:16px; line-height:80%;"">Do not respond if you see a star around the white shape</p><p class = center-block-text style = ""font-size:16px; line-height:80%;"">Do not slow down your responses to the shape to wait for the star.</p></div>",,,,,4959744,0.0,practice-stop-feedback,10,poldrack-single-stim,
11,,,,,,,,,500.0,,,,,,,stop_signal_with_shape_matching,,,,,,0.0-0.0-11.0,-1.0,none,,,-1,,500.0,"<div class = bigbox><div class = leftbox><img class = center src=""/static/experiments/stop_signal_with_shape_matching/images/mask.png""></img><div class = centerbox><div class = fixation>+</div></div></div><div class = rightbox><img class = center src=""/static/experiments/stop_signal_with_shape_matching/images/mask.png""></img><div class = centerbox><div class = fixation>+</div></div></div></div>",,,,,4960255,0.0,practice_mask,11,poldrack-single-stim,
12,350.0,350.0,350.0,350.0,500.0,"<div class = starbox><img class = center src=""/static/experiments/stop_signal_with_shape_matching/images/stopSignal.png""></img></div>",go,,2000.0,,90.0,1.0,0.0,4.0,6,stop_signal_with_shape_matching,,,,,,0.0-0.0-12.0,90.0,"[77, 90]",8.0,,883,DSD,1000.0,"<div class = bigbox><div class = leftbox><img class = center src=""/static/experiments/stop_signal_with_shape_matching/images/6_green.png""></img></div><div class = distractorbox><img class = center src=""/static/experiments/stop_signal_with_shape_matching/images/6_red.png""></img></div><div class = rightbox><img class = center src=""/static/experiments/stop_signal_with_shape_matching/images/8_white.png""></img></div></div>",,go,6.0,,4962265,0.0,practice_trial,12,stop-signal,
13,,,,,,,,,500.0,,,,,,,stop_signal_with_shape_matching,,,,,,0.0-0.0-13.0,-1.0,none,,,-1,,500.0,"<div class = fb_box><div class = center-text><font size = 20>Correct!</font></div></div><div class = prompt_box><p class = center-block-text style = ""font-size:16px; line-height:80%;"">Respond if the green and white shapes are the same or different!</p><p class = center-block-text style = ""font-size:16px; line-height:80%;"">Same: M Key</p><p class = center-block-text style = ""font-size:16px; line-height:80%;"">Different: Z Key</p><p class = center-block-text style = ""font-size:16px; line-height:80%;"">Do not respond if you see a star around the white shape</p><p class = center-block-text style = ""font-size:16px; line-height:80%;"">Do not slow down your responses to the shape to wait for the star.</p></div>",,,,,4962780,0.0,practice-stop-feedback,13,poldrack-single-stim,
14,,,,,,,,,500.0,,,,,,,stop_signal_with_shape_matching,,,,,,0.0-0.0-14.0,-1.0,none,,,-1,,500.0,"<div class = bigbox><div class = leftbox><img class = center src=""/static/experiments/stop_signal_with_shape_matching/images/mask.png""></img><div class = centerbox><div class = fixation>+</div></div></div><div class = rightbox><img class = center src=""/static/experiments/stop_signal_with_shape_matching/images/mask.png""></img><div class = centerbox><div class = fixation>+</div></div></div></div>",,,,,4963295,0.0,practice_mask,14,poldrack-single-stim,
15,350.0,350.0,350.0,350.0,500.0,"<div class = starbox><img class = center src=""/static/experiments/stop_signal_with_shape_matching/images/stopSignal.png""></img></div>",go,,2000.0,,90.0,1.0,0.0,5.0,1,stop_signal_with_shape_matching,,,,,,0.0-0.0-15.0,90.0,"[77, 90]",5.0,,721,DDD,1000.0,"<div class = bigbox><div class = leftbox><img class = center src=""/static/experiments/stop_signal_with_shape_matching/images/10_green.png""></img></div><div class = distractorbox><img class = center src=""/static/experiments/stop_signal_with_shape_matching/images/1_red.png""></img></div><div class = rightbox><img class = center src=""/static/experiments/stop_signal_with_shape_matching/images/5_white.png""></img></div></div>",,go,10.0,,4965309,0.0,practice_trial,15,stop-signal,
16,,,,,,,,,500.0,,,,,,,stop_signal_with_shape_matching,,,,,,0.0-0.0-16.0,-1.0,none,,,-1,,500.0,"<div class = fb_box><div class = center-text><font size = 20>Correct!</font></div></div><div class = prompt_box><p class = center-block-text style = ""font-size:16px; line-height:80%;"">Respond if the green and white shapes are the same or different!</p><p class = center-block-text style = ""font-size:16px; line-height:80%;"">Same: M Key</p><p class = center-block-text style = ""font-size:16px; line-height:80%;"">Different: Z Key</p><p class = center-block-text style = ""font-size:16px; line-height:80%;"">Do not respond if you see a star around the white shape</p><p class = center-block-text style = ""font-size:16px; line-height:80%;"">Do not slow down your responses to the shape to wait for the star.</p></div>",,,,,4965819,0.0,practice-stop-feedback,16,poldrack-single-stim,
17,,,,,,,,,500.0,,,,,,,stop_signal_with_shape_matching,,,,,,0.0-0.0-17.0,-1.0,none,,,-1,,500.0,"<div class = bigbox><div class = leftbox><img class = center src=""/static/experiments/stop_signal_with_shape_matching/images/mask.png""></img><div class = centerbox><div class = fixation>+</div></div></div><div class = rightbox><img class = center src=""/static/experiments/stop_signal_with_shape_matching/images/mask.png""></img><div class = centerbox><div class = fixation>+</div></div></div></div>",,,,,4966334,0.0,practice_mask,17,poldrack-single-stim,
18,350.0,350.0,350.0,350.0,500.0,"<div class = starbox><img class = center src=""/static/experiments/stop_signal_with_shape_matching/images/stopSignal.png""></img></div>",go,,2000.0,,90.0,1.0,0.0,6.0,2,stop_signal_with_shape_matching,,,,,,0.0-0.0-18.0,90.0,"[77, 90]",1.0,,840,DSD,1000.0,"<div class = bigbox><div class = leftbox><img class = center src=""/static/experiments/stop_signal_with_shape_matching/images/2_green.png""></img></div><div class = distractorbox><img class = center src=""/static/experiments/stop_signal_with_shape_matching/images/2_red.png""></img></div><div class = rightbox><img class = center src=""/static/experiments/stop_signal_with_shape_matching/images/1_white.png""></img></div></div>",,go,2.0,,4968348,0.0,practice_trial,18,stop-signal,
19,,,,,,,,,500.0,,,,,,,stop_signal_with_shape_matching,,,,,,0.0-0.0-19.0,-1.0,none,,,-1,,500.0,"<div class = fb_box><div class = center-text><font size = 20>Correct!</font></div></div><div class = prompt_box><p class = center-block-text style = ""font-size:16px; line-height:80%;"">Respond if the green and white shapes are the same or different!</p><p class = center-block-text style = ""font-size:16px; line-height:80%;"">Same: M Key</p><p class = center-block-text style = ""font-size:16px; line-height:80%;"">Different: Z Key</p><p class = center-block-text style = ""font-size:16px; line-height:80%;"">Do not respond if you see a star around the white shape</p><p class = center-block-text style = ""font-size:16px; line-height:80%;"">Do not slow down your responses to the shape to wait for the star.</p></div>",,,,,4968856,0.0,practice-stop-feedback,19,poldrack-single-stim,
20,,,,,,,,,500.0,,,,,,,stop_signal_with_shape_matching,,,,,,0.0-0.0-20.0,-1.0,none,,,-1,,500.0,"<div class = bigbox><div class = leftbox><img class = center src=""/static/experiments/stop_signal_with_shape_matching/images/mask.png""></img><div class = centerbox><div class = fixation>+</div></div></div><div class = rightbox><img class = center src=""/static/experiments/stop_signal_with_shape_matching/images/mask.png""></img><div class = centerbox><div class = fixation>+</div></div></div></div>",,,,,4969369,0.0,practice_mask,20,poldrack-single-stim,
21,350.0,350.0,350.0,350.0,500.0,"<div class = starbox><img class = center src=""/static/experiments/stop_signal_with_shape_matching/images/stopSignal.png""></img></div>",stop,,2000.0,,-1.0,0.0,0.0,7.0,none,stop_signal_with_shape_matching,,,,,,0.0-0.0-21.0,90.0,"[77, 90]",5.0,,585,DNN,1000.0,"<div class = bigbox><div class = leftbox><img class = center src=""/static/experiments/stop_signal_with_shape_matching/images/10_green.png""></img></div><div class = distractorbox></div><div class = rightbox><img class = center src=""/static/experiments/stop_signal_with_shape_matching/images/5_white.png""></img></div></div>",0.0,stop,10.0,,4971396,0.0,practice_trial,21,stop-signal,
22,,,,,,,,,500.0,,,,,,,stop_signal_with_shape_matching,,,,,,0.0-0.0-22.0,-1.0,none,,,-1,,500.0,"<div class = fb_box><div class = center-text><font size = 20>There was a star.</font></div></div><div class = prompt_box><p class = center-block-text style = ""font-size:16px; line-height:80%;"">Respond if the green and white shapes are the same or different!</p><p class = center-block-text style = ""font-size:16px; line-height:80%;"">Same: M Key</p><p class = center-block-text style = ""font-size:16px; line-height:80%;"">Different: Z Key</p><p class = center-block-text style = ""font-size:16px; line-height:80%;"">Do not respond if you see a star around the white shape</p><p class = center-block-text style = ""font-size:16px; line-height:80%;"">Do not slow down your responses to the shape to wait for the star.</p></div>",,,,,4971906,0.0,practice-stop-feedback,22,poldrack-single-stim,
23,,,,,,,,,500.0,,,,,,,stop_signal_with_shape_matching,,,,,,0.0-0.0-23.0,-1.0,none,,,-1,,500.0,"<div class = bigbox><div class = leftbox><img class = center src=""/static/experiments/stop_signal_with_shape_matching/images/mask.png""></img><div class = centerbox><div class = fixation>+</div></div></div><div class = rightbox><img class = center src=""/static/experiments/stop_signal_with_shape_matching/images/mask.png""></img><div class = centerbox><div class = fixation>+</div></div></div></div>",,,,,4972430,0.0,practice_mask,23,poldrack-single-stim,
24,350.0,300.0,350.0,350.0,500.0,"<div class = starbox><img class = center src=""/static/experiments/stop_signal_with_shape_matching/images/stopSignal.png""></img></div>",stop,,2000.0,,-1.0,0.0,0.0,8.0,10,stop_signal_with_shape_matching,,,,,,0.0-0.0-24.0,90.0,"[77, 90]",7.0,,574,DSD,1000.0,"<div class = bigbox><div class = leftbox><img class = center src=""/static/experiments/stop_signal_with_shape_matching/images/10_green.png""></img></div><div class = distractorbox><img class = center src=""/static/experiments/stop_signal_with_shape_matching/images/10_red.png""></img></div><div class = rightbox><img class = center src=""/static/experiments/stop_signal_with_shape_matching/images/7_white.png""></img></div></div>",0.0,stop,10.0,,4974441,0.0,practice_trial,24,stop-signal,
25,,,,,,,,,500.0,,,,,,,stop_signal_with_shape_matching,,,,,,0.0-0.0-25.0,-1.0,none,,,-1,,500.0,"<div class = fb_box><div class = center-text><font size = 20>There was a star.</font></div></div><div class = prompt_box><p class = center-block-text style = ""font-size:16px; line-height:80%;"">Respond if the green and white shapes are the same or different!</p><p class = center-block-text style = ""font-size:16px; line-height:80%;"">Same: M Key</p><p class = center-block-text style = ""font-size:16px; line-height:80%;"">Different: Z Key</p><p class = center-block-text style = ""font-size:16px; line-height:80%;"">Do not respond if you see a star around the white shape</p><p class = center-block-text style = ""font-size:16px; line-height:80%;"">Do not slow down your responses to the shape to wait for the star.</p></div>",,,,,4974949,0.0,practice-stop-feedback,25,poldrack-single-stim,
26,,,,,,,,,500.0,,,,,,,stop_signal_with_shape_matching,,,,,,0.0-0.0-26.0,-1.0,none,,,-1,,500.0,"<div class = bigbox><div class = leftbox><img class = center src=""/static/experiments/stop_signal_with_shape_matching/images/mask.png""></img><div class = centerbox><div class = fixation>+</div></div></div><div class = rightbox><img class = center src=""/static/experiments/stop_signal_with_shape_matching/images/mask.png""></img><div class = centerbox><div class = fixation>+</div></div></div></div>",,,,,4975465,0.0,practice_mask,26,poldrack-single-stim,
27,350.0,300.0,300.0,300.0,500.0,"<div class = starbox><img class = center src=""/static/experiments/stop_signal_with_shape_matching/images/stopSignal.png""></img></div>",go,,2000.0,,77.0,0.0,0.0,9.0,3,stop_signal_with_shape_matching,,,,,,0.0-0.0-27.0,90.0,"[77, 90]",3.0,,525,SSS,1000.0,"<div class = bigbox><div class = leftbox><img class = center src=""/static/experiments/stop_signal_with_shape_matching/images/3_green.png""></img></div><div class = distractorbox><img class = center src=""/static/experiments/stop_signal_with_shape_matching/images/3_red.png""></img></div><div class = rightbox><img class = center src=""/static/experiments/stop_signal_with_shape_matching/images/3_white.png""></img></div></div>",,go,3.0,,4977478,0.0,practice_trial,27,stop-signal,
28,,,,,,,,,500.0,,,,,,,stop_signal_with_shape_matching,,,,,,0.0-0.0-28.0,-1.0,none,,,-1,,500.0,"<div class = fb_box><div class = center-text><font size = 20>Incorrect</font></div></div><div class = prompt_box><p class = center-block-text style = ""font-size:16px; line-height:80%;"">Respond if the green and white shapes are the same or different!</p><p class = center-block-text style = ""font-size:16px; line-height:80%;"">Same: M Key</p><p class = center-block-text style = ""font-size:16px; line-height:80%;"">Different: Z Key</p><p class = center-block-text style = ""font-size:16px; line-height:80%;"">Do not respond if you see a star around the white shape</p><p class = center-block-text style = ""font-size:16px; line-height:80%;"">Do not slow down your responses to the shape to wait for the star.</p></div>",,,,,4977988,0.0,practice-stop-feedback,28,poldrack-single-stim,
29,,,,,,,,,500.0,,,,,,,stop_signal_with_shape_matching,,,,,,0.0-0.0-29.0,-1.0,none,,,-1,,500.0,"<div class = bigbox><div class = leftbox><img class = center src=""/static/experiments/stop_signal_with_shape_matching/images/mask.png""></img><div class = centerbox><div class = fixation>+</div></div></div><div class = rightbox><img class = center src=""/static/experiments/stop_signal_with_shape_matching/images/mask.png""></img><div class = centerbox><div class = fixation>+</div></div></div></div>",,,,,4978513,0.0,practice_mask,29,poldrack-single-stim,
30,350.0,300.0,300.0,350.0,500.0,"<div class = starbox><img class = center src=""/static/experiments/stop_signal_with_shape_matching/images/stopSignal.png""></img></div>",go,,2000.0,,77.0,1.0,0.0,10.0,7,stop_signal_with_shape_matching,,,,,,0.0-0.0-30.0,77.0,"[77, 90]",8.0,,644,SDD,1000.0,"<div class = bigbox><div class = leftbox><img class = center src=""/static/experiments/stop_signal_with_shape_matching/images/8_green.png""></img></div><div class = distractorbox><img class = center src=""/static/experiments/stop_signal_with_shape_matching/images/7_red.png""></img></div><div class = rightbox><img class = center src=""/static/experiments/stop_signal_with_shape_matching/images/8_white.png""></img></div></div>",,go,8.0,,4980540,0.0,practice_trial,30,stop-signal,
31,,,,,,,,,500.0,,,,,,,stop_signal_with_shape_matching,,,,,,0.0-0.0-31.0,-1.0,none,,,-1,,500.0,"<div class = fb_box><div class = center-text><font size = 20>Correct!</font></div></div><div class = prompt_box><p class = center-block-text style = ""font-size:16px; line-height:80%;"">Respond if the green and white shapes are the same or different!</p><p class = center-block-text style = ""font-size:16px; line-height:80%;"">Same: M Key</p><p class = center-block-text style = ""font-size:16px; line-height:80%;"">Different: Z Key</p><p class = center-block-text style = ""font-size:16px; line-height:80%;"">Do not respond if you see a star around the white shape</p><p class = center-block-text style = ""font-size:16px; line-height:80%;"">Do not slow down your responses to the shape to wait for the star.</p></div>",,,,,4981066,0.0,practice-stop-feedback,31,poldrack-single-stim,
32,,,,,,,,,500.0,,,,,,,stop_signal_with_shape_matching,,,,,,0.0-0.0-32.0,-1.0,none,,,-1,,500.0,"<div class = bigbox><div class = leftbox><img class = center src=""/static/experiments/stop_signal_with_shape_matching/images/mask.png""></img><div class = centerbox><div class = fixation>+</div></div></div><div class = rightbox><img class = center src=""/static/experiments/stop_signal_with_shape_matching/images/mask.png""></img><div class = centerbox><div class = fixation>+</div></div></div></div>",,,,,4981594,0.0,practice_mask,32,poldrack-single-stim,
33,350.0,300.0,300.0,300.0,500.0,"<div class = starbox><img class = center src=""/static/experiments/stop_signal_with_shape_matching/images/stopSignal.png""></img></div>",stop,,2000.0,,-1.0,0.0,0.0,11.0,none,stop_signal_with_shape_matching,,,,,,0.0-0.0-33.0,77.0,"[77, 90]",3.0,,645,SNN,1000.0,"<div class = bigbox><div class = leftbox><img class = center src=""/static/experiments/stop_signal_with_shape_matching/images/3_green.png""></img></div><div class = distractorbox></div><div class = rightbox><img class = center src=""/static/experiments/stop_signal_with_shape_matching/images/3_white.png""></img></div></div>",0.0,stop,3.0,,4983613,0.0,practice_trial,33,stop-signal,
34,,,,,,,,,500.0,,,,,,,stop_signal_with_shape_matching,,,,,,0.0-0.0-34.0,-1.0,none,,,-1,,500.0,"<div class = fb_box><div class = center-text><font size = 20>There was a star.</font></div></div><div class = prompt_box><p class = center-block-text style = ""font-size:16px; line-height:80%;"">Respond if the green and white shapes are the same or different!</p><p class = center-block-text style = ""font-size:16px; line-height:80%;"">Same: M Key</p><p class = center-block-text style = ""font-size:16px; line-height:80%;"">Different: Z Key</p><p class = center-block-text style = ""font-size:16px; line-height:80%;"">Do not respond if you see a star around the white shape</p><p class = center-block-text style = ""font-size:16px; line-height:80%;"">Do not slow down your responses to the shape to wait for the star.</p></div>",,,,,4984124,0.0,practice-stop-feedback,34,poldrack-single-stim,
35,,,,,,,,,500.0,,,,,,,stop_signal_with_shape_matching,,,,,,0.0-0.0-35.0,-1.0,none,,,-1,,500.0,"<div class = bigbox><div class = leftbox><img class = center src=""/static/experiments/stop_signal_with_shape_matching/images/mask.png""></img><div class = centerbox><div class = fixation>+</div></div></div><div class = rightbox><img class = center src=""/static/experiments/stop_signal_with_shape_matching/images/mask.png""></img><div class = centerbox><div class = fixation>+</div></div></div></div>",,,,,4984637,0.0,practice_mask,35,poldrack-single-stim,
36,350.0,250.0,300.0,350.0,500.0,"<div class = starbox><img class = center src=""/static/experiments/stop_signal_with_shape_matching/images/stopSignal.png""></img></div>",stop,,2000.0,,-1.0,0.0,0.0,12.0,5,stop_signal_with_shape_matching,,,,,,0.0-0.0-36.0,77.0,"[77, 90]",9.0,,642,SDD,1000.0,"<div class = bigbox><div class = leftbox><img class = center src=""/static/experiments/stop_signal_with_shape_matching/images/9_green.png""></img></div><div class = distractorbox><img class = center src=""/static/experiments/stop_signal_with_shape_matching/images/5_red.png""></img></div><div class = rightbox><img class = center src=""/static/experiments/stop_signal_with_shape_matching/images/9_white.png""></img></div></div>",0.0,stop,9.0,,4986650,0.0,practice_trial,36,stop-signal,
37,,,,,,,,,500.0,,,,,,,stop_signal_with_shape_matching,,,,,,0.0-0.0-37.0,-1.0,none,,,-1,,500.0,"<div class = fb_box><div class = center-text><font size = 20>There was a star.</font></div></div><div class = prompt_box><p class = center-block-text style = ""font-size:16px; line-height:80%;"">Respond if the green and white shapes are the same or different!</p><p class = center-block-text style = ""font-size:16px; line-height:80%;"">Same: M Key</p><p class = center-block-text style = ""font-size:16px; line-height:80%;"">Different: Z Key</p><p class = center-block-text style = ""font-size:16px; line-height:80%;"">Do not respond if you see a star around the white shape</p><p class = center-block-text style = ""font-size:16px; line-height:80%;"">Do not slow down your responses to the shape to wait for the star.</p></div>",,,,,4987177,0.0,practice-stop-feedback,37,poldrack-single-stim,
38,,,,,,,,,500.0,,,,,,,stop_signal_with_shape_matching,,,,,,0.0-0.0-38.0,-1.0,none,,,-1,,500.0,"<div class = bigbox><div class = leftbox><img class = center src=""/static/experiments/stop_signal_with_shape_matching/images/mask.png""></img><div class = centerbox><div class = fixation>+</div></div></div><div class = rightbox><img class = center src=""/static/experiments/stop_signal_with_shape_matching/images/mask.png""></img><div class = centerbox><div class = fixation>+</div></div></div></div>",,,,,4987689,0.0,practice_mask,38,poldrack-single-stim,
39,300.0,250.0,300.0,300.0,500.0,"<div class = starbox><img class = center src=""/static/experiments/stop_signal_with_shape_matching/images/stopSignal.png""></img></div>",stop,,2000.0,,-1.0,0.0,0.0,13.0,4,stop_signal_with_shape_matching,,,,,,0.0-0.0-39.0,90.0,"[77, 90]",4.0,,747,DDS,1000.0,"<div class = bigbox><div class = leftbox><img class = center src=""/static/experiments/stop_signal_with_shape_matching/images/9_green.png""></img></div><div class = distractorbox><img class = center src=""/static/experiments/stop_signal_with_shape_matching/images/4_red.png""></img></div><div class = rightbox><img class = center src=""/static/experiments/stop_signal_with_shape_matching/images/4_white.png""></img></div></div>",0.0,stop,9.0,,4989704,0.0,practice_trial,39,stop-signal,
40,,,,,,,,,500.0,,,,,,,stop_signal_with_shape_matching,,,,,,0.0-0.0-40.0,-1.0,none,,,-1,,500.0,"<div class = fb_box><div class = center-text><font size = 20>There was a star.</font></div></div><div class = prompt_box><p class = center-block-text style = ""font-size:16px; line-height:80%;"">Respond if the green and white shapes are the same or different!</p><p class = center-block-text style = ""font-size:16px; line-height:80%;"">Same: M Key</p><p class = center-block-text style = ""font-size:16px; line-height:80%;"">Different: Z Key</p><p class = center-block-text style = ""font-size:16px; line-height:80%;"">Do not respond if you see a star around the white shape</p><p class = center-block-text style = ""font-size:16px; line-height:80%;"">Do not slow down your responses to the shape to wait for the star.</p></div>",,,,,4990216,0.0,practice-stop-feedback,40,poldrack-single-stim,
41,,,,,,,,,500.0,,,,,,,stop_signal_with_shape_matching,,,,,,0.0-0.0-41.0,-1.0,none,,,-1,,500.0,"<div class = bigbox><div class = leftbox><img class = center src=""/static/experiments/stop_signal_with_shape_matching/images/mask.png""></img><div class = centerbox><div class = fixation>+</div></div></div><div class = rightbox><img class = center src=""/static/experiments/stop_signal_with_shape_matching/images/mask.png""></img><div class = centerbox><div class = fixation>+</div></div></div></div>",,,,,4990730,0.0,practice_mask,41,poldrack-single-stim,
42,250.0,250.0,300.0,250.0,500.0,"<div class = starbox><img class = center src=""/static/experiments/stop_signal_with_shape_matching/images/stopSignal.png""></img></div>",stop,,2000.0,,-1.0,1.0,0.0,14.0,3,stop_signal_with_shape_matching,,,,,,0.0-0.0-42.0,-1.0,"[77, 90]",9.0,,-1,DDD,1000.0,"<div class = bigbox><div class = leftbox><img class = center src=""/static/experiments/stop_signal_with_shape_matching/images/4_green.png""></img></div><div class = distractorbox><img class = center src=""/static/experiments/stop_signal_with_shape_matching/images/3_red.png""></img></div><div class = rightbox><img class = center src=""/static/experiments/stop_signal_with_shape_matching/images/9_white.png""></img></div></div>",1.0,stop,4.0,,4992746,0.0,practice_trial,42,stop-signal,
43,,,,,,,,,500.0,,,,,,,stop_signal_with_shape_matching,,,,,,0.0-0.0-43.0,-1.0,none,,,-1,,500.0,"<div class = fb_box><div class = center-text><font size = 20>Correct!</font></div></div><div class = prompt_box><p class = center-block-text style = ""font-size:16px; line-height:80%;"">Respond if the green and white shapes are the same or different!</p><p class = center-block-text style = ""font-size:16px; line-height:80%;"">Same: M Key</p><p class = center-block-text style = ""font-size:16px; line-height:80%;"">Different: Z Key</p><p class = center-block-text style = ""font-size:16px; line-height:80%;"">Do not respond if you see a star around the white shape</p><p class = center-block-text style = ""font-size:16px; line-height:80%;"">Do not slow down your responses to the shape to wait for the star.</p></div>",,,,,4993255,0.0,practice-stop-feedback,43,poldrack-single-stim,
44,,,,,,,,,500.0,,,,,,,stop_signal_with_shape_matching,,,,,,0.0-0.0-44.0,-1.0,none,,,-1,,500.0,"<div class = bigbox><div class = leftbox><img class = center src=""/static/experiments/stop_signal_with_shape_matching/images/mask.png""></img><div class = centerbox><div class = fixation>+</div></div></div><div class = rightbox><img class = center src=""/static/experiments/stop_signal_with_shape_matching/images/mask.png""></img><div class = centerbox><div class = fixation>+</div></div></div></div>",,,,,4993765,0.0,practice_mask,44,poldrack-single-stim,
45,300.0,250.0,300.0,300.0,500.0,"<div class = starbox><img class = center src=""/static/experiments/stop_signal_with_shape_matching/images/stopSignal.png""></img></div>",go,,2000.0,,77.0,1.0,0.0,15.0,10,stop_signal_with_shape_matching,,,,,,0.0-0.0-45.0,77.0,"[77, 90]",10.0,,674,SSS,1000.0,"<div class = bigbox><div class = leftbox><img class = center src=""/static/experiments/stop_signal_with_shape_matching/images/10_green.png""></img></div><div class = distractorbox><img class = center src=""/static/experiments/stop_signal_with_shape_matching/images/10_red.png""></img></div><div class = rightbox><img class = center src=""/static/experiments/stop_signal_with_shape_matching/images/10_white.png""></img></div></div>",,go,10.0,,4995790,0.0,practice_trial,45,stop-signal,
46,,,,,,,,,500.0,,,,,,,stop_signal_with_shape_matching,,,,,,0.0-0.0-46.0,-1.0,none,,,-1,,500.0,"<div class = fb_box><div class = center-text><font size = 20>Correct!</font></div></div><div class = prompt_box><p class = center-block-text style = ""font-size:16px; line-height:80%;"">Respond if the green and white shapes are the same or different!</p><p class = center-block-text style = ""font-size:16px; line-height:80%;"">Same: M Key</p><p class = center-block-text style = ""font-size:16px; line-height:80%;"">Different: Z Key</p><p class = center-block-text style = ""font-size:16px; line-height:80%;"">Do not respond if you see a star around the white shape</p><p class = center-block-text style = ""font-size:16px; line-height:80%;"">Do not slow down your responses to the shape to wait for the star.</p></div>",,,,,4996300,0.0,practice-stop-feedback,46,poldrack-single-stim,
47,,,,,,,,,500.0,,,,,,,stop_signal_with_shape_matching,,,,,,0.0-0.0-47.0,-1.0,none,,,-1,,500.0,"<div class = bigbox><div class = leftbox><img class = center src=""/static/experiments/stop_signal_with_shape_matching/images/mask.png""></img><div class = centerbox><div class = fixation>+</div></div></div><div class = rightbox><img class = center src=""/static/experiments/stop_signal_with_shape_matching/images/mask.png""></img><div class = centerbox><div class = fixation>+</div></div></div></div>",,,,,4996826,0.0,practice_mask,47,poldrack-single-stim,
48,300.0,250.0,300.0,300.0,500.0,"<div class = starbox><img class = center src=""/static/experiments/stop_signal_with_shape_matching/images/stopSignal.png""></img></div>",go,,2000.0,,90.0,1.0,0.0,16.0,1,stop_signal_with_shape_matching,,,,,,0.0-0.0-48.0,90.0,"[77, 90]",4.0,,746,DDD,1000.0,"<div class = bigbox><div class = leftbox><img class = center src=""/static/experiments/stop_signal_with_shape_matching/images/8_green.png""></img></div><div class = distractorbox><img class = center src=""/static/experiments/stop_signal_with_shape_matching/images/1_red.png""></img></div><div class = rightbox><img class = center src=""/static/experiments/stop_signal_with_shape_matching/images/4_white.png""></img></div></div>",,go,8.0,,4998850,0.0,practice_trial,48,stop-signal,
49,,,,,,,,,500.0,,,,,,,stop_signal_with_shape_matching,,,,,,0.0-0.0-49.0,-1.0,none,,,-1,,500.0,"<div class = fb_box><div class = center-text><font size = 20>Correct!</font></div></div><div class = prompt_box><p class = center-block-text style = ""font-size:16px; line-height:80%;"">Respond if the green and white shapes are the same or different!</p><p class = center-block-text style = ""font-size:16px; line-height:80%;"">Same: M Key</p><p class = center-block-text style = ""font-size:16px; line-height:80%;"">Different: Z Key</p><p class = center-block-text style = ""font-size:16px; line-height:80%;"">Do not respond if you see a star around the white shape</p><p class = center-block-text style = ""font-size:16px; line-height:80%;"">Do not slow down your responses to the shape to wait for the star.</p></div>",,,,,4999361,0.0,practice-stop-feedback,49,poldrack-single-stim,
50,,,,,,,,,500.0,,,,,,,stop_signal_with_shape_matching,,,,,,0.0-0.0-50.0,-1.0,none,,,-1,,500.0,"<div class = bigbox><div class = leftbox><img class = center src=""/static/experiments/stop_signal_with_shape_matching/images/mask.png""></img><div class = centerbox><div class = fixation>+</div></div></div><div class = rightbox><img class = center src=""/static/experiments/stop_signal_with_shape_matching/images/mask.png""></img><div class = centerbox><div class = fixation>+</div></div></div></div>",,,,,4999875,0.0,practice_mask,50,poldrack-single-stim,
51,300.0,250.0,300.0,300.0,500.0,"<div class = starbox><img class = center src=""/static/experiments/stop_signal_with_shape_matching/images/stopSignal.png""></img></div>",stop,,2000.0,,-1.0,1.0,0.0,17.0,2,stop_signal_with_shape_matching,,,,,,0.0-0.0-51.0,-1.0,"[77, 90]",2.0,,-1,SSS,1000.0,"<div class = bigbox><div class = leftbox><img class = center src=""/static/experiments/stop_signal_with_shape_matching/images/2_green.png""></img></div><div class = distractorbox><img class = center src=""/static/experiments/stop_signal_with_shape_matching/images/2_red.png""></img></div><div class = rightbox><img class = center src=""/static/experiments/stop_signal_with_shape_matching/images/2_white.png""></img></div></div>",1.0,stop,2.0,,5001895,0.0,practice_trial,51,stop-signal,
52,,,,,,,,,500.0,,,,,,,stop_signal_with_shape_matching,,,,,,0.0-0.0-52.0,-1.0,none,,,-1,,500.0,"<div class = fb_box><div class = center-text><font size = 20>Correct!</font></div></div><div class = prompt_box><p class = center-block-text style = ""font-size:16px; line-height:80%;"">Respond if the green and white shapes are the same or different!</p><p class = center-block-text style = ""font-size:16px; line-height:80%;"">Same: M Key</p><p class = center-block-text style = ""font-size:16px; line-height:80%;"">Different: Z Key</p><p class = center-block-text style = ""font-size:16px; line-height:80%;"">Do not respond if you see a star around the white shape</p><p class = center-block-text style = ""font-size:16px; line-height:80%;"">Do not slow down your responses to the shape to wait for the star.</p></div>",,,,,5002407,0.0,practice-stop-feedback,52,poldrack-single-stim,
53,,,,,,,,,500.0,,,,,,,stop_signal_with_shape_matching,,,,,,0.0-0.0-53.0,-1.0,none,,,-1,,500.0,"<div class = bigbox><div class = leftbox><img class = center src=""/static/experiments/stop_signal_with_shape_matching/images/mask.png""></img><div class = centerbox><div class = fixation>+</div></div></div><div class = rightbox><img class = center src=""/static/experiments/stop_signal_with_shape_matching/images/mask.png""></img><div class = centerbox><div class = fixation>+</div></div></div></div>",,,,,5002916,0.0,practice_mask,53,poldrack-single-stim,
54,300.0,250.0,350.0,250.0,500.0,"<div class = starbox><img class = center src=""/static/experiments/stop_signal_with_shape_matching/images/stopSignal.png""></img></div>",go,,2000.0,,77.0,1.0,0.0,18.0,none,stop_signal_with_shape_matching,,,,,,0.0-0.0-54.0,77.0,"[77, 90]",2.0,,527,SNN,1000.0,"<div class = bigbox><div class = leftbox><img class = center src=""/static/experiments/stop_signal_with_shape_matching/images/2_green.png""></img></div><div class = distractorbox></div><div class = rightbox><img class = center src=""/static/experiments/stop_signal_with_shape_matching/images/2_white.png""></img></div></div>",,go,2.0,,5004947,0.0,practice_trial,54,stop-signal,
55,,,,,,,,,500.0,,,,,,,stop_signal_with_shape_matching,,,,,,0.0-0.0-55.0,-1.0,none,,,-1,,500.0,"<div class = fb_box><div class = center-text><font size = 20>Correct!</font></div></div><div class = prompt_box><p class = center-block-text style = ""font-size:16px; line-height:80%;"">Respond if the green and white shapes are the same or different!</p><p class = center-block-text style = ""font-size:16px; line-height:80%;"">Same: M Key</p><p class = center-block-text style = ""font-size:16px; line-height:80%;"">Different: Z Key</p><p class = center-block-text style = ""font-size:16px; line-height:80%;"">Do not respond if you see a star around the white shape</p><p class = center-block-text style = ""font-size:16px; line-height:80%;"">Do not slow down your responses to the shape to wait for the star.</p></div>",,,,,5005458,0.0,practice-stop-feedback,55,poldrack-single-stim,
56,,,,,,,,,500.0,,,,,,,stop_signal_with_shape_matching,,,,,,0.0-0.0-56.0,-1.0,none,,,-1,,500.0,"<div class = bigbox><div class = leftbox><img class = center src=""/static/experiments/stop_signal_with_shape_matching/images/mask.png""></img><div class = centerbox><div class = fixation>+</div></div></div><div class = rightbox><img class = center src=""/static/experiments/stop_signal_with_shape_matching/images/mask.png""></img><div class = centerbox><div class = fixation>+</div></div></div></div>",,,,,5005971,0.0,practice_mask,56,poldrack-single-stim,
57,300.0,250.0,350.0,250.0,500.0,"<div class = starbox><img class = center src=""/static/experiments/stop_signal_with_shape_matching/images/stopSignal.png""></img></div>",go,,2000.0,,77.0,1.0,0.0,19.0,none,stop_signal_with_shape_matching,,,,,,0.0-0.0-57.0,77.0,"[77, 90]",1.0,,651,SNN,1000.0,"<div class = bigbox><div class = leftbox><img class = center src=""/static/experiments/stop_signal_with_shape_matching/images/1_green.png""></img></div><div class = distractorbox></div><div class = rightbox><img class = center src=""/static/experiments/stop_signal_with_shape_matching/images/1_white.png""></img></div></div>",,go,1.0,,5007996,0.0,practice_trial,57,stop-signal,
58,,,,,,,,,500.0,,,,,,,stop_signal_with_shape_matching,,,,,,0.0-0.0-58.0,-1.0,none,,,-1,,500.0,"<div class = fb_box><div class = center-text><font size = 20>Correct!</font></div></div><div class = prompt_box><p class = center-block-text style = ""font-size:16px; line-height:80%;"">Respond if the green and white shapes are the same or different!</p><p class = center-block-text style = ""font-size:16px; line-height:80%;"">Same: M Key</p><p class = center-block-text style = ""font-size:16px; line-height:80%;"">Different: Z Key</p><p class = center-block-text style = ""font-size:16px; line-height:80%;"">Do not respond if you see a star around the white shape</p><p class = center-block-text style = ""font-size:16px; line-height:80%;"">Do not slow down your responses to the shape to wait for the star.</p></div>",,,,,5008507,0.0,practice-stop-feedback,58,poldrack-single-stim,
59,,,,,,,,,500.0,,,,,,,stop_signal_with_shape_matching,,,,,,0.0-0.0-59.0,-1.0,none,,,-1,,500.0,"<div class = bigbox><div class = leftbox><img class = center src=""/static/experiments/stop_signal_with_shape_matching/images/mask.png""></img><div class = centerbox><div class = fixation>+</div></div></div><div class = rightbox><img class = center src=""/static/experiments/stop_signal_with_shape_matching/images/mask.png""></img><div class = centerbox><div class = fixation>+</div></div></div></div>",,,,,5009021,0.0,practice_mask,59,poldrack-single-stim,
60,300.0,250.0,350.0,250.0,500.0,"<div class = starbox><img class = center src=""/static/experiments/stop_signal_with_shape_matching/images/stopSignal.png""></img></div>",go,,2000.0,,90.0,1.0,0.0,20.0,none,stop_signal_with_shape_matching,,,,,,0.0-0.0-60.0,90.0,"[77, 90]",3.0,,957,DNN,1000.0,"<div class = bigbox><div class = leftbox><img class = center src=""/static/experiments/stop_signal_with_shape_matching/images/9_green.png""></img></div><div class = distractorbox></div><div class = rightbox><img class = center src=""/static/experiments/stop_signal_with_shape_matching/images/3_white.png""></img></div></div>",,go,9.0,,5011033,0.0,practice_trial,60,stop-signal,
61,,,,,,,,,500.0,,,,,,,stop_signal_with_shape_matching,,,,,,0.0-0.0-61.0,-1.0,none,,,-1,,500.0,"<div class = fb_box><div class = center-text><font size = 20>Correct!</font></div></div><div class = prompt_box><p class = center-block-text style = ""font-size:16px; line-height:80%;"">Respond if the green and white shapes are the same or different!</p><p class = center-block-text style = ""font-size:16px; line-height:80%;"">Same: M Key</p><p class = center-block-text style = ""font-size:16px; line-height:80%;"">Different: Z Key</p><p class = center-block-text style = ""font-size:16px; line-height:80%;"">Do not respond if you see a star around the white shape</p><p class = center-block-text style = ""font-size:16px; line-height:80%;"">Do not slow down your responses to the shape to wait for the star.</p></div>",,,,,5011544,0.0,practice-stop-feedback,61,poldrack-single-stim,
62,,,,,,,,,500.0,,,,,,,stop_signal_with_shape_matching,,,,,,0.0-0.0-62.0,-1.0,none,,,-1,,500.0,"<div class = bigbox><div class = leftbox><img class = center src=""/static/experiments/stop_signal_with_shape_matching/images/mask.png""></img><div class = centerbox><div class = fixation>+</div></div></div><div class = rightbox><img class = center src=""/static/experiments/stop_signal_with_shape_matching/images/mask.png""></img><div class = centerbox><div class = fixation>+</div></div></div></div>",,,,,5012056,0.0,practice_mask,62,poldrack-single-stim,
63,300.0,250.0,350.0,300.0,500.0,"<div class = starbox><img class = center src=""/static/experiments/stop_signal_with_shape_matching/images/stopSignal.png""></img></div>",go,,2000.0,,90.0,1.0,0.0,21.0,3,stop_signal_with_shape_matching,,,,,,0.0-0.0-63.0,90.0,"[77, 90]",3.0,,667,DDS,1000.0,"<div class = bigbox><div class = leftbox><img class = center src=""/static/experiments/stop_signal_with_shape_matching/images/1_green.png""></img></div><div class = distractorbox><img class = center src=""/static/experiments/stop_signal_with_shape_matching/images/3_red.png""></img></div><div class = rightbox><img class = center src=""/static/experiments/stop_signal_with_shape_matching/images/3_white.png""></img></div></div>",,go,1.0,,5014070,0.0,practice_trial,63,stop-signal,
64,,,,,,,,,500.0,,,,,,,stop_signal_with_shape_matching,,,,,,0.0-0.0-64.0,-1.0,none,,,-1,,500.0,"<div class = fb_box><div class = center-text><font size = 20>Correct!</font></div></div><div class = prompt_box><p class = center-block-text style = ""font-size:16px; line-height:80%;"">Respond if the green and white shapes are the same or different!</p><p class = center-block-text style = ""font-size:16px; line-height:80%;"">Same: M Key</p><p class = center-block-text style = ""font-size:16px; line-height:80%;"">Different: Z Key</p><p class = center-block-text style = ""font-size:16px; line-height:80%;"">Do not respond if you see a star around the white shape</p><p class = center-block-text style = ""font-size:16px; line-height:80%;"">Do not slow down your responses to the shape to wait for the star.</p></div>",,,,,5014581,0.0,practice-stop-feedback,64,poldrack-single-stim,
65,,,,,,,,,86516.0,,,,,,,stop_signal_with_shape_matching,,,,,,0.0-1.0,13.0,[13],,,86516,,86516.0,<div class = bigbox><div class = picture_box><p class = block-text><br>Please take this time to read your feedback and to take a short break! Press enter to continue</p><p class = block-text>Done with this practice. Press Enter to continue.</p></div></div>,,,,,5101133,0.0,feedback_block,65,poldrack-single-stim,
66,,,,,,,,,8703.0,,,,,,,stop_signal_with_shape_matching,,,,,,0.0-2.0,13.0,,,,8703,,,,,,,"<div class = centerbox><p class = block-text>We will now start the test portion</p><p class = block-text>In this experiment you will see at least green shape on the left side of the screen, and a white shape on the right.</p> <p class = block-text>You will be asked to judge whether the green shape on the left is the same the white shape on the right.</p><p class = block-text>If the shapes are the same, please press the M Key.  If the shapes are different, press the Z Key.</p><p class = block-text>On some trials, a red shape will overlap the green shape. Ignore this red shape, your job is to match the green shape to the white shape.</p><p class = block-text>On some trials, you will see a star appear at the same time, or shortly after, the shapes appear. Do not respond if you see a star.</p><p class = block-text>If the star appears on a trial, and you try your best to withhold your response, you will find that you will be able to stop sometimes but not always.</p><p class = block-text>Do not slow down your responses to the shapes in order to wait for the star.</p><p class = block-text>You will no longer receive the rule prompt, so remember the instructions before you continue. Press Enter to begin.</p></div>",5109843,1000.0,instruction,66,poldrack-text,
67,,,,,,,,,1398.0,,,,,,,stop_signal_with_shape_matching,,,,,,0.0-3.0-0.0,13.0,[13],,,1398,,1398.0,<div class = bigbox><div class = picture_box><p class = block-text>We will now start the test portion. Press enter to begin.</p></div></div>,,,,,5112251,0.0,feedback_block,67,poldrack-single-stim,
68,,,,,,,,,2162.0,True,39.0,,,,,stop_signal_with_shape_matching,,,,,,0.0-3.0-1.0-0.0,39.0,[],,,2162,,2162.0,<p>Press the Right Arrow</p>,,,,,5114421,200.0,attention_check,68,attention-check,
69,,,,,,,,,500.0,,,,,,,stop_signal_with_shape_matching,,,,,,0.0-3.0-2.0,-1.0,none,,,-1,,500.0,"<div class = bigbox><div class = leftbox><img class = center src=""/static/experiments/stop_signal_with_shape_matching/images/mask.png""></img><div class = centerbox><div class = fixation>+</div></div></div><div class = rightbox><img class = center src=""/static/experiments/stop_signal_with_shape_matching/images/mask.png""></img><div class = centerbox><div class = fixation>+</div></div></div></div>",,,,,5115132,0.0,test_mask,69,poldrack-single-stim,
70,300.0,250.0,350.0,250.0,500.0,"<div class = starbox><img class = center src=""/static/experiments/stop_signal_with_shape_matching/images/stopSignal.png""></img></div>",go,,2000.0,,90.0,1.0,0.0,1.0,none,stop_signal_with_shape_matching,,,,,,0.0-3.0-3.0,90.0,"[77, 90]",9.0,,591,DNN,1000.0,"<div class = bigbox><div class = leftbox><img class = center src=""/static/experiments/stop_signal_with_shape_matching/images/1_green.png""></img></div><div class = distractorbox></div><div class = rightbox><img class = center src=""/static/experiments/stop_signal_with_shape_matching/images/9_white.png""></img></div></div>",,go,1.0,,5117156,0.0,test_trial,70,stop-signal,
71,,,,,,,,,500.0,,,,,,,stop_signal_with_shape_matching,,,,,,0.0-3.0-4.0,-1.0,none,,,-1,,500.0,"<div class = bigbox><div class = leftbox><img class = center src=""/static/experiments/stop_signal_with_shape_matching/images/mask.png""></img><div class = centerbox><div class = fixation>+</div></div></div><div class = rightbox><img class = center src=""/static/experiments/stop_signal_with_shape_matching/images/mask.png""></img><div class = centerbox><div class = fixation>+</div></div></div></div>",,,,,5117668,0.0,test_mask,71,poldrack-single-stim,
72,300.0,250.0,350.0,250.0,500.0,"<div class = starbox><img class = center src=""/static/experiments/stop_signal_with_shape_matching/images/stopSignal.png""></img></div>",stop,,2000.0,,-1.0,0.0,0.0,2.0,none,stop_signal_with_shape_matching,,,,,,0.0-3.0-5.0,77.0,"[77, 90]",2.0,,654,SNN,1000.0,"<div class = bigbox><div class = leftbox><img class = center src=""/static/experiments/stop_signal_with_shape_matching/images/2_green.png""></img></div><div class = distractorbox></div><div class = rightbox><img class = center src=""/static/experiments/stop_signal_with_shape_matching/images/2_white.png""></img></div></div>",0.0,stop,2.0,,5119688,0.0,test_trial,72,stop-signal,
73,,,,,,,,,500.0,,,,,,,stop_signal_with_shape_matching,,,,,,0.0-3.0-6.0,-1.0,none,,,-1,,500.0,"<div class = bigbox><div class = leftbox><img class = center src=""/static/experiments/stop_signal_with_shape_matching/images/mask.png""></img><div class = centerbox><div class = fixation>+</div></div></div><div class = rightbox><img class = center src=""/static/experiments/stop_signal_with_shape_matching/images/mask.png""></img><div class = centerbox><div class = fixation>+</div></div></div></div>",,,,,5120199,0.0,test_mask,73,poldrack-single-stim,
74,300.0,200.0,350.0,300.0,500.0,"<div class = starbox><img class = center src=""/static/experiments/stop_signal_with_shape_matching/images/stopSignal.png""></img></div>",go,,2000.0,,77.0,1.0,0.0,3.0,7,stop_signal_with_shape_matching,,,,,,0.0-3.0-7.0,77.0,"[77, 90]",3.0,,630,SDD,1000.0,"<div class = bigbox><div class = leftbox><img class = center src=""/static/experiments/stop_signal_with_shape_matching/images/3_green.png""></img></div><div class = distractorbox><img class = center src=""/static/experiments/stop_signal_with_shape_matching/images/7_red.png""></img></div><div class = rightbox><img class = center src=""/static/experiments/stop_signal_with_shape_matching/images/3_white.png""></img></div></div>",,go,3.0,,5122225,0.0,test_trial,74,stop-signal,
75,,,,,,,,,500.0,,,,,,,stop_signal_with_shape_matching,,,,,,0.0-3.0-8.0,-1.0,none,,,-1,,500.0,"<div class = bigbox><div class = leftbox><img class = center src=""/static/experiments/stop_signal_with_shape_matching/images/mask.png""></img><div class = centerbox><div class = fixation>+</div></div></div><div class = rightbox><img class = center src=""/static/experiments/stop_signal_with_shape_matching/images/mask.png""></img><div class = centerbox><div class = fixation>+</div></div></div></div>",,,,,5122735,0.0,test_mask,75,poldrack-single-stim,
76,300.0,200.0,350.0,300.0,500.0,"<div class = starbox><img class = center src=""/static/experiments/stop_signal_with_shape_matching/images/stopSignal.png""></img></div>",go,,2000.0,,90.0,1.0,0.0,4.0,9,stop_signal_with_shape_matching,,,,,,0.0-3.0-9.0,90.0,"[77, 90]",2.0,,536,DDD,1000.0,"<div class = bigbox><div class = leftbox><img class = center src=""/static/experiments/stop_signal_with_shape_matching/images/6_green.png""></img></div><div class = distractorbox><img class = center src=""/static/experiments/stop_signal_with_shape_matching/images/9_red.png""></img></div><div class = rightbox><img class = center src=""/static/experiments/stop_signal_with_shape_matching/images/2_white.png""></img></div></div>",,go,6.0,,5124766,0.0,test_trial,76,stop-signal,
77,,,,,,,,,500.0,,,,,,,stop_signal_with_shape_matching,,,,,,0.0-3.0-10.0,-1.0,none,,,-1,,500.0,"<div class = bigbox><div class = leftbox><img class = center src=""/static/experiments/stop_signal_with_shape_matching/images/mask.png""></img><div class = centerbox><div class = fixation>+</div></div></div><div class = rightbox><img class = center src=""/static/experiments/stop_signal_with_shape_matching/images/mask.png""></img><div class = centerbox><div class = fixation>+</div></div></div></div>",,,,,5125289,0.0,test_mask,77,poldrack-single-stim,
78,300.0,200.0,350.0,200.0,500.0,"<div class = starbox><img class = center src=""/static/experiments/stop_signal_with_shape_matching/images/stopSignal.png""></img></div>",go,,2000.0,,90.0,1.0,0.0,5.0,none,stop_signal_with_shape_matching,,,,,,0.0-3.0-11.0,90.0,"[77, 90]",7.0,,516,DNN,1000.0,"<div class = bigbox><div class = leftbox><img class = center src=""/static/experiments/stop_signal_with_shape_matching/images/9_green.png""></img></div><div class = distractorbox></div><div class = rightbox><img class = center src=""/static/experiments/stop_signal_with_shape_matching/images/7_white.png""></img></div></div>",,go,9.0,,5127297,0.0,test_trial,78,stop-signal,
79,,,,,,,,,500.0,,,,,,,stop_signal_with_shape_matching,,,,,,0.0-3.0-12.0,-1.0,none,,,-1,,500.0,"<div class = bigbox><div class = leftbox><img class = center src=""/static/experiments/stop_signal_with_shape_matching/images/mask.png""></img><div class = centerbox><div class = fixation>+</div></div></div><div class = rightbox><img class = center src=""/static/experiments/stop_signal_with_shape_matching/images/mask.png""></img><div class = centerbox><div class = fixation>+</div></div></div></div>",,,,,5127807,0.0,test_mask,79,poldrack-single-stim,
80,300.0,200.0,350.0,300.0,500.0,"<div class = starbox><img class = center src=""/static/experiments/stop_signal_with_shape_matching/images/stopSignal.png""></img></div>",go,,2000.0,,90.0,1.0,0.0,6.0,10,stop_signal_with_shape_matching,,,,,,0.0-3.0-13.0,90.0,"[77, 90]",10.0,,507,DDS,1000.0,"<div class = bigbox><div class = leftbox><img class = center src=""/static/experiments/stop_signal_with_shape_matching/images/1_green.png""></img></div><div class = distractorbox><img class = center src=""/static/experiments/stop_signal_with_shape_matching/images/10_red.png""></img></div><div class = rightbox><img class = center src=""/static/experiments/stop_signal_with_shape_matching/images/10_white.png""></img></div></div>",,go,1.0,,5129832,0.0,test_trial,80,stop-signal,
81,,,,,,,,,500.0,,,,,,,stop_signal_with_shape_matching,,,,,,0.0-3.0-14.0,-1.0,none,,,-1,,500.0,"<div class = bigbox><div class = leftbox><img class = center src=""/static/experiments/stop_signal_with_shape_matching/images/mask.png""></img><div class = centerbox><div class = fixation>+</div></div></div><div class = rightbox><img class = center src=""/static/experiments/stop_signal_with_shape_matching/images/mask.png""></img><div class = centerbox><div class = fixation>+</div></div></div></div>",,,,,5130342,0.0,test_mask,81,poldrack-single-stim,
82,300.0,200.0,350.0,300.0,500.0,"<div class = starbox><img class = center src=""/static/experiments/stop_signal_with_shape_matching/images/stopSignal.png""></img></div>",stop,,2000.0,,-1.0,0.0,0.0,7.0,6,stop_signal_with_shape_matching,,,,,,0.0-3.0-15.0,77.0,"[77, 90]",10.0,,735,SDD,1000.0,"<div class = bigbox><div class = leftbox><img class = center src=""/static/experiments/stop_signal_with_shape_matching/images/10_green.png""></img></div><div class = distractorbox><img class = center src=""/static/experiments/stop_signal_with_shape_matching/images/6_red.png""></img></div><div class = rightbox><img class = center src=""/static/experiments/stop_signal_with_shape_matching/images/10_white.png""></img></div></div>",0.0,stop,10.0,,5132366,0.0,test_trial,82,stop-signal,
83,,,,,,,,,500.0,,,,,,,stop_signal_with_shape_matching,,,,,,0.0-3.0-16.0,-1.0,none,,,-1,,500.0,"<div class = bigbox><div class = leftbox><img class = center src=""/static/experiments/stop_signal_with_shape_matching/images/mask.png""></img><div class = centerbox><div class = fixation>+</div></div></div><div class = rightbox><img class = center src=""/static/experiments/stop_signal_with_shape_matching/images/mask.png""></img><div class = centerbox><div class = fixation>+</div></div></div></div>",,,,,5132877,0.0,test_mask,83,poldrack-single-stim,
84,250.0,200.0,350.0,250.0,500.0,"<div class = starbox><img class = center src=""/static/experiments/stop_signal_with_shape_matching/images/stopSignal.png""></img></div>",stop,,2000.0,,-1.0,0.0,0.0,8.0,7,stop_signal_with_shape_matching,,,,,,0.0-3.0-17.0,90.0,"[77, 90]",7.0,,582,DDS,1000.0,"<div class = bigbox><div class = leftbox><img class = center src=""/static/experiments/stop_signal_with_shape_matching/images/8_green.png""></img></div><div class = distractorbox><img class = center src=""/static/experiments/stop_signal_with_shape_matching/images/7_red.png""></img></div><div class = rightbox><img class = center src=""/static/experiments/stop_signal_with_shape_matching/images/7_white.png""></img></div></div>",0.0,stop,8.0,,5134907,0.0,test_trial,84,stop-signal,
85,,,,,,,,,500.0,,,,,,,stop_signal_with_shape_matching,,,,,,0.0-3.0-18.0,-1.0,none,,,-1,,500.0,"<div class = bigbox><div class = leftbox><img class = center src=""/static/experiments/stop_signal_with_shape_matching/images/mask.png""></img><div class = centerbox><div class = fixation>+</div></div></div><div class = rightbox><img class = center src=""/static/experiments/stop_signal_with_shape_matching/images/mask.png""></img><div class = centerbox><div class = fixation>+</div></div></div></div>",,,,,5135415,0.0,test_mask,85,poldrack-single-stim,
86,200.0,200.0,350.0,350.0,500.0,"<div class = starbox><img class = center src=""/static/experiments/stop_signal_with_shape_matching/images/stopSignal.png""></img></div>",stop,,2000.0,,-1.0,0.0,0.0,9.0,2,stop_signal_with_shape_matching,,,,,,0.0-3.0-19.0,77.0,"[77, 90]",2.0,,739,SSS,1000.0,"<div class = bigbox><div class = leftbox><img class = center src=""/static/experiments/stop_signal_with_shape_matching/images/2_green.png""></img></div><div class = distractorbox><img class = center src=""/static/experiments/stop_signal_with_shape_matching/images/2_red.png""></img></div><div class = rightbox><img class = center src=""/static/experiments/stop_signal_with_shape_matching/images/2_white.png""></img></div></div>",0.0,stop,2.0,,5137425,0.0,test_trial,86,stop-signal,
87,,,,,,,,,500.0,,,,,,,stop_signal_with_shape_matching,,,,,,0.0-3.0-20.0,-1.0,none,,,-1,,500.0,"<div class = bigbox><div class = leftbox><img class = center src=""/static/experiments/stop_signal_with_shape_matching/images/mask.png""></img><div class = centerbox><div class = fixation>+</div></div></div><div class = rightbox><img class = center src=""/static/experiments/stop_signal_with_shape_matching/images/mask.png""></img><div class = centerbox><div class = fixation>+</div></div></div></div>",,,,,5137938,0.0,test_mask,87,poldrack-single-stim,
88,200.0,200.0,300.0,200.0,500.0,"<div class = starbox><img class = center src=""/static/experiments/stop_signal_with_shape_matching/images/stopSignal.png""></img></div>",go,,2000.0,,77.0,1.0,0.0,10.0,none,stop_signal_with_shape_matching,,,,,,0.0-3.0-21.0,77.0,"[77, 90]",8.0,,657,SNN,1000.0,"<div class = bigbox><div class = leftbox><img class = center src=""/static/experiments/stop_signal_with_shape_matching/images/8_green.png""></img></div><div class = distractorbox></div><div class = rightbox><img class = center src=""/static/experiments/stop_signal_with_shape_matching/images/8_white.png""></img></div></div>",,go,8.0,,5139960,0.0,test_trial,88,stop-signal,
89,,,,,,,,,500.0,,,,,,,stop_signal_with_shape_matching,,,,,,0.0-3.0-22.0,-1.0,none,,,-1,,500.0,"<div class = bigbox><div class = leftbox><img class = center src=""/static/experiments/stop_signal_with_shape_matching/images/mask.png""></img><div class = centerbox><div class = fixation>+</div></div></div><div class = rightbox><img class = center src=""/static/experiments/stop_signal_with_shape_matching/images/mask.png""></img><div class = centerbox><div class = fixation>+</div></div></div></div>",,,,,5140472,0.0,test_mask,89,poldrack-single-stim,
90,200.0,200.0,300.0,200.0,500.0,"<div class = starbox><img class = center src=""/static/experiments/stop_signal_with_shape_matching/images/stopSignal.png""></img></div>",go,,2000.0,,90.0,1.0,0.0,11.0,none,stop_signal_with_shape_matching,,,,,,0.0-3.0-23.0,90.0,"[77, 90]",2.0,,633,DNN,1000.0,"<div class = bigbox><div class = leftbox><img class = center src=""/static/experiments/stop_signal_with_shape_matching/images/7_green.png""></img></div><div class = distractorbox></div><div class = rightbox><img class = center src=""/static/experiments/stop_signal_with_shape_matching/images/2_white.png""></img></div></div>",,go,7.0,,5142484,0.0,test_trial,90,stop-signal,
91,,,,,,,,,500.0,,,,,,,stop_signal_with_shape_matching,,,,,,0.0-3.0-24.0,-1.0,none,,,-1,,500.0,"<div class = bigbox><div class = leftbox><img class = center src=""/static/experiments/stop_signal_with_shape_matching/images/mask.png""></img><div class = centerbox><div class = fixation>+</div></div></div><div class = rightbox><img class = center src=""/static/experiments/stop_signal_with_shape_matching/images/mask.png""></img><div class = centerbox><div class = fixation>+</div></div></div></div>",,,,,5142993,0.0,test_mask,91,poldrack-single-stim,
92,200.0,200.0,300.0,200.0,500.0,"<div class = starbox><img class = center src=""/static/experiments/stop_signal_with_shape_matching/images/stopSignal.png""></img></div>",go,,2000.0,,90.0,1.0,0.0,12.0,1,stop_signal_with_shape_matching,,,,,,0.0-3.0-25.0,90.0,"[77, 90]",10.0,,620,DDD,1000.0,"<div class = bigbox><div class = leftbox><img class = center src=""/static/experiments/stop_signal_with_shape_matching/images/5_green.png""></img></div><div class = distractorbox><img class = center src=""/static/experiments/stop_signal_with_shape_matching/images/1_red.png""></img></div><div class = rightbox><img class = center src=""/static/experiments/stop_signal_with_shape_matching/images/10_white.png""></img></div></div>",,go,5.0,,5145022,0.0,test_trial,92,stop-signal,
93,,,,,,,,,500.0,,,,,,,stop_signal_with_shape_matching,,,,,,0.0-3.0-26.0,-1.0,none,,,-1,,500.0,"<div class = bigbox><div class = leftbox><img class = center src=""/static/experiments/stop_signal_with_shape_matching/images/mask.png""></img><div class = centerbox><div class = fixation>+</div></div></div><div class = rightbox><img class = center src=""/static/experiments/stop_signal_with_shape_matching/images/mask.png""></img><div class = centerbox><div class = fixation>+</div></div></div></div>",,,,,5145534,0.0,test_mask,93,poldrack-single-stim,
94,200.0,200.0,300.0,200.0,500.0,"<div class = starbox><img class = center src=""/static/experiments/stop_signal_with_shape_matching/images/stopSignal.png""></img></div>",stop,,2000.0,,-1.0,0.0,0.0,13.0,none,stop_signal_with_shape_matching,,,,,,0.0-3.0-27.0,90.0,"[77, 90]",5.0,,586,DNN,1000.0,"<div class = bigbox><div class = leftbox><img class = center src=""/static/experiments/stop_signal_with_shape_matching/images/3_green.png""></img></div><div class = distractorbox></div><div class = rightbox><img class = center src=""/static/experiments/stop_signal_with_shape_matching/images/5_white.png""></img></div></div>",0.0,stop,3.0,,5147544,0.0,test_trial,94,stop-signal,
95,,,,,,,,,500.0,,,,,,,stop_signal_with_shape_matching,,,,,,0.0-3.0-28.0,-1.0,none,,,-1,,500.0,"<div class = bigbox><div class = leftbox><img class = center src=""/static/experiments/stop_signal_with_shape_matching/images/mask.png""></img><div class = centerbox><div class = fixation>+</div></div></div><div class = rightbox><img class = center src=""/static/experiments/stop_signal_with_shape_matching/images/mask.png""></img><div class = centerbox><div class = fixation>+</div></div></div></div>",,,,,5148056,0.0,test_mask,95,poldrack-single-stim,
96,200.0,150.0,300.0,150.0,500.0,"<div class = starbox><img class = center src=""/static/experiments/stop_signal_with_shape_matching/images/stopSignal.png""></img></div>",go,,2000.0,,77.0,1.0,0.0,14.0,none,stop_signal_with_shape_matching,,,,,,0.0-3.0-29.0,77.0,"[77, 90]",4.0,,633,SNN,1000.0,"<div class = bigbox><div class = leftbox><img class = center src=""/static/experiments/stop_signal_with_shape_matching/images/4_green.png""></img></div><div class = distractorbox></div><div class = rightbox><img class = center src=""/static/experiments/stop_signal_with_shape_matching/images/4_white.png""></img></div></div>",,go,4.0,,5150065,0.0,test_trial,96,stop-signal,
97,,,,,,,,,500.0,,,,,,,stop_signal_with_shape_matching,,,,,,0.0-3.0-30.0,-1.0,none,,,-1,,500.0,"<div class = bigbox><div class = leftbox><img class = center src=""/static/experiments/stop_signal_with_shape_matching/images/mask.png""></img><div class = centerbox><div class = fixation>+</div></div></div><div class = rightbox><img class = center src=""/static/experiments/stop_signal_with_shape_matching/images/mask.png""></img><div class = centerbox><div class = fixation>+</div></div></div></div>",,,,,5150576,0.0,test_mask,97,poldrack-single-stim,
98,200.0,150.0,300.0,300.0,500.0,"<div class = starbox><img class = center src=""/static/experiments/stop_signal_with_shape_matching/images/stopSignal.png""></img></div>",go,,2000.0,,77.0,1.0,0.0,15.0,9,stop_signal_with_shape_matching,,,,,,0.0-3.0-31.0,77.0,"[77, 90]",9.0,,614,SSS,1000.0,"<div class = bigbox><div class = leftbox><img class = center src=""/static/experiments/stop_signal_with_shape_matching/images/9_green.png""></img></div><div class = distractorbox><img class = center src=""/static/experiments/stop_signal_with_shape_matching/images/9_red.png""></img></div><div class = rightbox><img class = center src=""/static/experiments/stop_signal_with_shape_matching/images/9_white.png""></img></div></div>",,go,9.0,,5152599,0.0,test_trial,98,stop-signal,
99,,,,,,,,,500.0,,,,,,,stop_signal_with_shape_matching,,,,,,0.0-3.0-32.0,-1.0,none,,,-1,,500.0,"<div class = bigbox><div class = leftbox><img class = center src=""/static/experiments/stop_signal_with_shape_matching/images/mask.png""></img><div class = centerbox><div class = fixation>+</div></div></div><div class = rightbox><img class = center src=""/static/experiments/stop_signal_with_shape_matching/images/mask.png""></img><div class = centerbox><div class = fixation>+</div></div></div></div>",,,,,5153111,0.0,test_mask,99,poldrack-single-stim,
100,200.0,150.0,300.0,200.0,500.0,"<div class = starbox><img class = center src=""/static/experiments/stop_signal_with_shape_matching/images/stopSignal.png""></img></div>",go,,2000.0,,90.0,1.0,0.0,16.0,3,stop_signal_with_shape_matching,,,,,,0.0-3.0-33.0,90.0,"[77, 90]",9.0,,714,DDD,1000.0,"<div class = bigbox><div class = leftbox><img class = center src=""/static/experiments/stop_signal_with_shape_matching/images/7_green.png""></img></div><div class = distractorbox><img class = center src=""/static/experiments/stop_signal_with_shape_matching/images/3_red.png""></img></div><div class = rightbox><img class = center src=""/static/experiments/stop_signal_with_shape_matching/images/9_white.png""></img></div></div>",,go,7.0,,5155125,0.0,test_trial,100,stop-signal,
101,,,,,,,,,500.0,,,,,,,stop_signal_with_shape_matching,,,,,,0.0-3.0-34.0,-1.0,none,,,-1,,500.0,"<div class = bigbox><div class = leftbox><img class = center src=""/static/experiments/stop_signal_with_shape_matching/images/mask.png""></img><div class = centerbox><div class = fixation>+</div></div></div><div class = rightbox><img class = center src=""/static/experiments/stop_signal_with_shape_matching/images/mask.png""></img><div class = centerbox><div class = fixation>+</div></div></div></div>",,,,,5155635,0.0,test_mask,101,poldrack-single-stim,
102,200.0,150.0,300.0,200.0,500.0,"<div class = starbox><img class = center src=""/static/experiments/stop_signal_with_shape_matching/images/stopSignal.png""></img></div>",stop,,2000.0,,-1.0,0.0,0.0,17.0,8,stop_signal_with_shape_matching,,,,,,0.0-3.0-35.0,90.0,"[77, 90]",2.0,,557,DDD,1000.0,"<div class = bigbox><div class = leftbox><img class = center src=""/static/experiments/stop_signal_with_shape_matching/images/4_green.png""></img></div><div class = distractorbox><img class = center src=""/static/experiments/stop_signal_with_shape_matching/images/8_red.png""></img></div><div class = rightbox><img class = center src=""/static/experiments/stop_signal_with_shape_matching/images/2_white.png""></img></div></div>",0.0,stop,4.0,,5157646,0.0,test_trial,102,stop-signal,
103,,,,,,,,,500.0,,,,,,,stop_signal_with_shape_matching,,,,,,0.0-3.0-36.0,-1.0,none,,,-1,,500.0,"<div class = bigbox><div class = leftbox><img class = center src=""/static/experiments/stop_signal_with_shape_matching/images/mask.png""></img><div class = centerbox><div class = fixation>+</div></div></div><div class = rightbox><img class = center src=""/static/experiments/stop_signal_with_shape_matching/images/mask.png""></img><div class = centerbox><div class = fixation>+</div></div></div></div>",,,,,5158159,0.0,test_mask,103,poldrack-single-stim,
104,150.0,150.0,300.0,150.0,500.0,"<div class = starbox><img class = center src=""/static/experiments/stop_signal_with_shape_matching/images/stopSignal.png""></img></div>",go,,2000.0,,90.0,1.0,0.0,18.0,8,stop_signal_with_shape_matching,,,,,,0.0-3.0-37.0,90.0,"[77, 90]",8.0,,523,DDS,1000.0,"<div class = bigbox><div class = leftbox><img class = center src=""/static/experiments/stop_signal_with_shape_matching/images/9_green.png""></img></div><div class = distractorbox><img class = center src=""/static/experiments/stop_signal_with_shape_matching/images/8_red.png""></img></div><div class = rightbox><img class = center src=""/static/experiments/stop_signal_with_shape_matching/images/8_white.png""></img></div></div>",,go,9.0,,5160173,0.0,test_trial,104,stop-signal,
105,,,,,,,,,500.0,,,,,,,stop_signal_with_shape_matching,,,,,,0.0-3.0-38.0,-1.0,none,,,-1,,500.0,"<div class = bigbox><div class = leftbox><img class = center src=""/static/experiments/stop_signal_with_shape_matching/images/mask.png""></img><div class = centerbox><div class = fixation>+</div></div></div><div class = rightbox><img class = center src=""/static/experiments/stop_signal_with_shape_matching/images/mask.png""></img><div class = centerbox><div class = fixation>+</div></div></div></div>",,,,,5160685,0.0,test_mask,105,poldrack-single-stim,
106,150.0,150.0,300.0,150.0,500.0,"<div class = starbox><img class = center src=""/static/experiments/stop_signal_with_shape_matching/images/stopSignal.png""></img></div>",go,,2000.0,,90.0,1.0,0.0,19.0,none,stop_signal_with_shape_matching,,,,,,0.0-3.0-39.0,90.0,"[77, 90]",1.0,,580,DNN,1000.0,"<div class = bigbox><div class = leftbox><img class = center src=""/static/experiments/stop_signal_with_shape_matching/images/10_green.png""></img></div><div class = distractorbox></div><div class = rightbox><img class = center src=""/static/experiments/stop_signal_with_shape_matching/images/1_white.png""></img></div></div>",,go,10.0,,5162696,0.0,test_trial,106,stop-signal,
107,,,,,,,,,500.0,,,,,,,stop_signal_with_shape_matching,,,,,,0.0-3.0-40.0,-1.0,none,,,-1,,500.0,"<div class = bigbox><div class = leftbox><img class = center src=""/static/experiments/stop_signal_with_shape_matching/images/mask.png""></img><div class = centerbox><div class = fixation>+</div></div></div><div class = rightbox><img class = center src=""/static/experiments/stop_signal_with_shape_matching/images/mask.png""></img><div class = centerbox><div class = fixation>+</div></div></div></div>",,,,,5163208,0.0,test_mask,107,poldrack-single-stim,
108,150.0,150.0,300.0,150.0,500.0,"<div class = starbox><img class = center src=""/static/experiments/stop_signal_with_shape_matching/images/stopSignal.png""></img></div>",go,,2000.0,,90.0,1.0,0.0,20.0,2,stop_signal_with_shape_matching,,,,,,0.0-3.0-41.0,90.0,"[77, 90]",1.0,,521,DDD,1000.0,"<div class = bigbox><div class = leftbox><img class = center src=""/static/experiments/stop_signal_with_shape_matching/images/10_green.png""></img></div><div class = distractorbox><img class = center src=""/static/experiments/stop_signal_with_shape_matching/images/2_red.png""></img></div><div class = rightbox><img class = center src=""/static/experiments/stop_signal_with_shape_matching/images/1_white.png""></img></div></div>",,go,10.0,,5165238,0.0,test_trial,108,stop-signal,
109,,,,,,,,,500.0,,,,,,,stop_signal_with_shape_matching,,,,,,0.0-3.0-42.0,-1.0,none,,,-1,,500.0,"<div class = bigbox><div class = leftbox><img class = center src=""/static/experiments/stop_signal_with_shape_matching/images/mask.png""></img><div class = centerbox><div class = fixation>+</div></div></div><div class = rightbox><img class = center src=""/static/experiments/stop_signal_with_shape_matching/images/mask.png""></img><div class = centerbox><div class = fixation>+</div></div></div></div>",,,,,5165748,0.0,test_mask,109,poldrack-single-stim,
110,150.0,150.0,300.0,150.0,500.0,"<div class = starbox><img class = center src=""/static/experiments/stop_signal_with_shape_matching/images/stopSignal.png""></img></div>",go,,2000.0,,90.0,1.0,0.0,21.0,2,stop_signal_with_shape_matching,,,,,,0.0-3.0-43.0,90.0,"[77, 90]",2.0,,482,DDS,1000.0,"<div class = bigbox><div class = leftbox><img class = center src=""/static/experiments/stop_signal_with_shape_matching/images/9_green.png""></img></div><div class = distractorbox><img class = center src=""/static/experiments/stop_signal_with_shape_matching/images/2_red.png""></img></div><div class = rightbox><img class = center src=""/static/experiments/stop_signal_with_shape_matching/images/2_white.png""></img></div></div>",,go,9.0,,5167773,0.0,test_trial,110,stop-signal,
111,,,,,,,,,500.0,,,,,,,stop_signal_with_shape_matching,,,,,,0.0-3.0-44.0,-1.0,none,,,-1,,500.0,"<div class = bigbox><div class = leftbox><img class = center src=""/static/experiments/stop_signal_with_shape_matching/images/mask.png""></img><div class = centerbox><div class = fixation>+</div></div></div><div class = rightbox><img class = center src=""/static/experiments/stop_signal_with_shape_matching/images/mask.png""></img><div class = centerbox><div class = fixation>+</div></div></div></div>",,,,,5168284,0.0,test_mask,111,poldrack-single-stim,
112,150.0,150.0,300.0,150.0,500.0,"<div class = starbox><img class = center src=""/static/experiments/stop_signal_with_shape_matching/images/stopSignal.png""></img></div>",stop,,2000.0,,-1.0,0.0,0.0,22.0,9,stop_signal_with_shape_matching,,,,,,0.0-3.0-45.0,90.0,"[77, 90]",4.0,,434,SDD,1000.0,"<div class = bigbox><div class = leftbox><img class = center src=""/static/experiments/stop_signal_with_shape_matching/images/4_green.png""></img></div><div class = distractorbox><img class = center src=""/static/experiments/stop_signal_with_shape_matching/images/9_red.png""></img></div><div class = rightbox><img class = center src=""/static/experiments/stop_signal_with_shape_matching/images/4_white.png""></img></div></div>",0.0,stop,4.0,,5170307,0.0,test_trial,112,stop-signal,
113,,,,,,,,,500.0,,,,,,,stop_signal_with_shape_matching,,,,,,0.0-3.0-46.0,-1.0,none,,,-1,,500.0,"<div class = bigbox><div class = leftbox><img class = center src=""/static/experiments/stop_signal_with_shape_matching/images/mask.png""></img><div class = centerbox><div class = fixation>+</div></div></div><div class = rightbox><img class = center src=""/static/experiments/stop_signal_with_shape_matching/images/mask.png""></img><div class = centerbox><div class = fixation>+</div></div></div></div>",,,,,5170820,0.0,test_mask,113,poldrack-single-stim,
114,100.0,150.0,300.0,100.0,500.0,"<div class = starbox><img class = center src=""/static/experiments/stop_signal_with_shape_matching/images/stopSignal.png""></img></div>",go,,2000.0,,77.0,1.0,0.0,23.0,3,stop_signal_with_shape_matching,,,,,,0.0-3.0-47.0,77.0,"[77, 90]",5.0,,562,SDD,1000.0,"<div class = bigbox><div class = leftbox><img class = center src=""/static/experiments/stop_signal_with_shape_matching/images/5_green.png""></img></div><div class = distractorbox><img class = center src=""/static/experiments/stop_signal_with_shape_matching/images/3_red.png""></img></div><div class = rightbox><img class = center src=""/static/experiments/stop_signal_with_shape_matching/images/5_white.png""></img></div></div>",,go,5.0,,5172846,0.0,test_trial,114,stop-signal,
115,,,,,,,,,500.0,,,,,,,stop_signal_with_shape_matching,,,,,,0.0-3.0-48.0,-1.0,none,,,-1,,500.0,"<div class = bigbox><div class = leftbox><img class = center src=""/static/experiments/stop_signal_with_shape_matching/images/mask.png""></img><div class = centerbox><div class = fixation>+</div></div></div><div class = rightbox><img class = center src=""/static/experiments/stop_signal_with_shape_matching/images/mask.png""></img><div class = centerbox><div class = fixation>+</div></div></div></div>",,,,,5173360,0.0,test_mask,115,poldrack-single-stim,
116,100.0,150.0,300.0,300.0,500.0,"<div class = starbox><img class = center src=""/static/experiments/stop_signal_with_shape_matching/images/stopSignal.png""></img></div>",go,,2000.0,,90.0,1.0,0.0,24.0,4,stop_signal_with_shape_matching,,,,,,0.0-3.0-49.0,90.0,"[77, 90]",6.0,,621,DSD,1000.0,"<div class = bigbox><div class = leftbox><img class = center src=""/static/experiments/stop_signal_with_shape_matching/images/4_green.png""></img></div><div class = distractorbox><img class = center src=""/static/experiments/stop_signal_with_shape_matching/images/4_red.png""></img></div><div class = rightbox><img class = center src=""/static/experiments/stop_signal_with_shape_matching/images/6_white.png""></img></div></div>",,go,4.0,,5175370,0.0,test_trial,116,stop-signal,
117,,,,,,,,,500.0,,,,,,,stop_signal_with_shape_matching,,,,,,0.0-3.0-50.0,-1.0,none,,,-1,,500.0,"<div class = bigbox><div class = leftbox><img class = center src=""/static/experiments/stop_signal_with_shape_matching/images/mask.png""></img><div class = centerbox><div class = fixation>+</div></div></div><div class = rightbox><img class = center src=""/static/experiments/stop_signal_with_shape_matching/images/mask.png""></img><div class = centerbox><div class = fixation>+</div></div></div></div>",,,,,5175881,0.0,test_mask,117,poldrack-single-stim,
118,100.0,150.0,300.0,300.0,500.0,"<div class = starbox><img class = center src=""/static/experiments/stop_signal_with_shape_matching/images/stopSignal.png""></img></div>",go,,2000.0,,90.0,1.0,0.0,25.0,1,stop_signal_with_shape_matching,,,,,,0.0-3.0-51.0,90.0,"[77, 90]",9.0,,519,DSD,1000.0,"<div class = bigbox><div class = leftbox><img class = center src=""/static/experiments/stop_signal_with_shape_matching/images/1_green.png""></img></div><div class = distractorbox><img class = center src=""/static/experiments/stop_signal_with_shape_matching/images/1_red.png""></img></div><div class = rightbox><img class = center src=""/static/experiments/stop_signal_with_shape_matching/images/9_white.png""></img></div></div>",,go,1.0,,5177894,0.0,test_trial,118,stop-signal,
119,,,,,,,,,500.0,,,,,,,stop_signal_with_shape_matching,,,,,,0.0-3.0-52.0,-1.0,none,,,-1,,500.0,"<div class = bigbox><div class = leftbox><img class = center src=""/static/experiments/stop_signal_with_shape_matching/images/mask.png""></img><div class = centerbox><div class = fixation>+</div></div></div><div class = rightbox><img class = center src=""/static/experiments/stop_signal_with_shape_matching/images/mask.png""></img><div class = centerbox><div class = fixation>+</div></div></div></div>",,,,,5178407,0.0,test_mask,119,poldrack-single-stim,
120,100.0,150.0,300.0,300.0,500.0,"<div class = starbox><img class = center src=""/static/experiments/stop_signal_with_shape_matching/images/stopSignal.png""></img></div>",go,,2000.0,,90.0,1.0,0.0,26.0,10,stop_signal_with_shape_matching,,,,,,0.0-3.0-53.0,90.0,"[77, 90]",1.0,,608,DSD,1000.0,"<div class = bigbox><div class = leftbox><img class = center src=""/static/experiments/stop_signal_with_shape_matching/images/10_green.png""></img></div><div class = distractorbox><img class = center src=""/static/experiments/stop_signal_with_shape_matching/images/10_red.png""></img></div><div class = rightbox><img class = center src=""/static/experiments/stop_signal_with_shape_matching/images/1_white.png""></img></div></div>",,go,10.0,,5180417,0.0,test_trial,120,stop-signal,
121,,,,,,,,,500.0,,,,,,,stop_signal_with_shape_matching,,,,,,0.0-3.0-54.0,-1.0,none,,,-1,,500.0,"<div class = bigbox><div class = leftbox><img class = center src=""/static/experiments/stop_signal_with_shape_matching/images/mask.png""></img><div class = centerbox><div class = fixation>+</div></div></div><div class = rightbox><img class = center src=""/static/experiments/stop_signal_with_shape_matching/images/mask.png""></img><div class = centerbox><div class = fixation>+</div></div></div></div>",,,,,5180929,0.0,test_mask,121,poldrack-single-stim,
122,100.0,150.0,300.0,100.0,500.0,"<div class = starbox><img class = center src=""/static/experiments/stop_signal_with_shape_matching/images/stopSignal.png""></img></div>",go,,2000.0,,90.0,1.0,0.0,27.0,5,stop_signal_with_shape_matching,,,,,,0.0-3.0-55.0,90.0,"[77, 90]",5.0,,625,DDS,1000.0,"<div class = bigbox><div class = leftbox><img class = center src=""/static/experiments/stop_signal_with_shape_matching/images/10_green.png""></img></div><div class = distractorbox><img class = center src=""/static/experiments/stop_signal_with_shape_matching/images/5_red.png""></img></div><div class = rightbox><img class = center src=""/static/experiments/stop_signal_with_shape_matching/images/5_white.png""></img></div></div>",,go,10.0,,5182954,0.0,test_trial,122,stop-signal,
123,,,,,,,,,500.0,,,,,,,stop_signal_with_shape_matching,,,,,,0.0-3.0-56.0,-1.0,none,,,-1,,500.0,"<div class = bigbox><div class = leftbox><img class = center src=""/static/experiments/stop_signal_with_shape_matching/images/mask.png""></img><div class = centerbox><div class = fixation>+</div></div></div><div class = rightbox><img class = center src=""/static/experiments/stop_signal_with_shape_matching/images/mask.png""></img><div class = centerbox><div class = fixation>+</div></div></div></div>",,,,,5183467,0.0,test_mask,123,poldrack-single-stim,
124,100.0,150.0,300.0,300.0,500.0,"<div class = starbox><img class = center src=""/static/experiments/stop_signal_with_shape_matching/images/stopSignal.png""></img></div>",stop,,2000.0,,-1.0,0.0,0.0,28.0,8,stop_signal_with_shape_matching,,,,,,0.0-3.0-57.0,77.0,"[77, 90]",8.0,,665,SSS,1000.0,"<div class = bigbox><div class = leftbox><img class = center src=""/static/experiments/stop_signal_with_shape_matching/images/8_green.png""></img></div><div class = distractorbox><img class = center src=""/static/experiments/stop_signal_with_shape_matching/images/8_red.png""></img></div><div class = rightbox><img class = center src=""/static/experiments/stop_signal_with_shape_matching/images/8_white.png""></img></div></div>",0.0,stop,8.0,,5185478,0.0,test_trial,124,stop-signal,
125,,,,,,,,,500.0,,,,,,,stop_signal_with_shape_matching,,,,,,0.0-3.0-58.0,-1.0,none,,,-1,,500.0,"<div class = bigbox><div class = leftbox><img class = center src=""/static/experiments/stop_signal_with_shape_matching/images/mask.png""></img><div class = centerbox><div class = fixation>+</div></div></div><div class = rightbox><img class = center src=""/static/experiments/stop_signal_with_shape_matching/images/mask.png""></img><div class = centerbox><div class = fixation>+</div></div></div></div>",,,,,5185992,0.0,test_mask,125,poldrack-single-stim,
126,100.0,150.0,250.0,250.0,500.0,"<div class = starbox><img class = center src=""/static/experiments/stop_signal_with_shape_matching/images/stopSignal.png""></img></div>",stop,,2000.0,,-1.0,0.0,0.0,29.0,10,stop_signal_with_shape_matching,,,,,,0.0-3.0-59.0,90.0,"[77, 90]",1.0,,513,DSD,1000.0,"<div class = bigbox><div class = leftbox><img class = center src=""/static/experiments/stop_signal_with_shape_matching/images/10_green.png""></img></div><div class = distractorbox><img class = center src=""/static/experiments/stop_signal_with_shape_matching/images/10_red.png""></img></div><div class = rightbox><img class = center src=""/static/experiments/stop_signal_with_shape_matching/images/1_white.png""></img></div></div>",0.0,stop,10.0,,5188004,0.0,test_trial,126,stop-signal,
127,,,,,,,,,500.0,,,,,,,stop_signal_with_shape_matching,,,,,,0.0-3.0-60.0,-1.0,none,,,-1,,500.0,"<div class = bigbox><div class = leftbox><img class = center src=""/static/experiments/stop_signal_with_shape_matching/images/mask.png""></img><div class = centerbox><div class = fixation>+</div></div></div><div class = rightbox><img class = center src=""/static/experiments/stop_signal_with_shape_matching/images/mask.png""></img><div class = centerbox><div class = fixation>+</div></div></div></div>",,,,,5188516,0.0,test_mask,127,poldrack-single-stim,
128,100.0,150.0,200.0,200.0,500.0,"<div class = starbox><img class = center src=""/static/experiments/stop_signal_with_shape_matching/images/stopSignal.png""></img></div>",go,,2000.0,,77.0,0.0,0.0,30.0,6,stop_signal_with_shape_matching,,,,,,0.0-3.0-61.0,90.0,"[77, 90]",6.0,,567,SSS,1000.0,"<div class = bigbox><div class = leftbox><img class = center src=""/static/experiments/stop_signal_with_shape_matching/images/6_green.png""></img></div><div class = distractorbox><img class = center src=""/static/experiments/stop_signal_with_shape_matching/images/6_red.png""></img></div><div class = rightbox><img class = center src=""/static/experiments/stop_signal_with_shape_matching/images/6_white.png""></img></div></div>",,go,6.0,,5190528,0.0,test_trial,128,stop-signal,
129,,,,,,,,,500.0,,,,,,,stop_signal_with_shape_matching,,,,,,0.0-3.0-62.0,-1.0,none,,,-1,,500.0,"<div class = bigbox><div class = leftbox><img class = center src=""/static/experiments/stop_signal_with_shape_matching/images/mask.png""></img><div class = centerbox><div class = fixation>+</div></div></div><div class = rightbox><img class = center src=""/static/experiments/stop_signal_with_shape_matching/images/mask.png""></img><div class = centerbox><div class = fixation>+</div></div></div></div>",,,,,5191039,0.0,test_mask,129,poldrack-single-stim,
130,100.0,150.0,200.0,200.0,500.0,"<div class = starbox><img class = center src=""/static/experiments/stop_signal_with_shape_matching/images/stopSignal.png""></img></div>",stop,,2000.0,,-1.0,1.0,0.0,31.0,3,stop_signal_with_shape_matching,,,,,,0.0-3.0-63.0,-1.0,"[77, 90]",3.0,,-1,SSS,1000.0,"<div class = bigbox><div class = leftbox><img class = center src=""/static/experiments/stop_signal_with_shape_matching/images/3_green.png""></img></div><div class = distractorbox><img class = center src=""/static/experiments/stop_signal_with_shape_matching/images/3_red.png""></img></div><div class = rightbox><img class = center src=""/static/experiments/stop_signal_with_shape_matching/images/3_white.png""></img></div></div>",1.0,stop,3.0,,5193049,0.0,test_trial,130,stop-signal,
131,,,,,,,,,500.0,,,,,,,stop_signal_with_shape_matching,,,,,,0.0-3.0-64.0,-1.0,none,,,-1,,500.0,"<div class = bigbox><div class = leftbox><img class = center src=""/static/experiments/stop_signal_with_shape_matching/images/mask.png""></img><div class = centerbox><div class = fixation>+</div></div></div><div class = rightbox><img class = center src=""/static/experiments/stop_signal_with_shape_matching/images/mask.png""></img><div class = centerbox><div class = fixation>+</div></div></div></div>",,,,,5193562,0.0,test_mask,131,poldrack-single-stim,
132,100.0,150.0,250.0,100.0,500.0,"<div class = starbox><img class = center src=""/static/experiments/stop_signal_with_shape_matching/images/stopSignal.png""></img></div>",go,,2000.0,,77.0,1.0,0.0,32.0,5,stop_signal_with_shape_matching,,,,,,0.0-3.0-65.0,77.0,"[77, 90]",6.0,,1258,SDD,1000.0,"<div class = bigbox><div class = leftbox><img class = center src=""/static/experiments/stop_signal_with_shape_matching/images/6_green.png""></img></div><div class = distractorbox><img class = center src=""/static/experiments/stop_signal_with_shape_matching/images/5_red.png""></img></div><div class = rightbox><img class = center src=""/static/experiments/stop_signal_with_shape_matching/images/6_white.png""></img></div></div>",,go,6.0,,5195590,0.0,test_trial,132,stop-signal,
133,,,,,,,,,500.0,,,,,,,stop_signal_with_shape_matching,,,,,,0.0-3.0-66.0,-1.0,none,,,-1,,500.0,"<div class = bigbox><div class = leftbox><img class = center src=""/static/experiments/stop_signal_with_shape_matching/images/mask.png""></img><div class = centerbox><div class = fixation>+</div></div></div><div class = rightbox><img class = center src=""/static/experiments/stop_signal_with_shape_matching/images/mask.png""></img><div class = centerbox><div class = fixation>+</div></div></div></div>",,,,,5196106,0.0,test_mask,133,poldrack-single-stim,
134,100.0,150.0,250.0,150.0,500.0,"<div class = starbox><img class = center src=""/static/experiments/stop_signal_with_shape_matching/images/stopSignal.png""></img></div>",go,,2000.0,,90.0,1.0,0.0,33.0,none,stop_signal_with_shape_matching,,,,,,0.0-3.0-67.0,90.0,"[77, 90]",4.0,,1231,DNN,1000.0,"<div class = bigbox><div class = leftbox><img class = center src=""/static/experiments/stop_signal_with_shape_matching/images/5_green.png""></img></div><div class = distractorbox></div><div class = rightbox><img class = center src=""/static/experiments/stop_signal_with_shape_matching/images/4_white.png""></img></div></div>",,go,5.0,,5198131,0.0,test_trial,134,stop-signal,
135,,,,,,,,,500.0,,,,,,,stop_signal_with_shape_matching,,,,,,0.0-3.0-68.0,-1.0,none,,,-1,,500.0,"<div class = bigbox><div class = leftbox><img class = center src=""/static/experiments/stop_signal_with_shape_matching/images/mask.png""></img><div class = centerbox><div class = fixation>+</div></div></div><div class = rightbox><img class = center src=""/static/experiments/stop_signal_with_shape_matching/images/mask.png""></img><div class = centerbox><div class = fixation>+</div></div></div></div>",,,,,5198643,0.0,test_mask,135,poldrack-single-stim,
136,100.0,150.0,250.0,100.0,500.0,"<div class = starbox><img class = center src=""/static/experiments/stop_signal_with_shape_matching/images/stopSignal.png""></img></div>",stop,,2000.0,,-1.0,0.0,0.0,34.0,9,stop_signal_with_shape_matching,,,,,,0.0-3.0-69.0,90.0,"[77, 90]",1.0,,513,DDD,1000.0,"<div class = bigbox><div class = leftbox><img class = center src=""/static/experiments/stop_signal_with_shape_matching/images/5_green.png""></img></div><div class = distractorbox><img class = center src=""/static/experiments/stop_signal_with_shape_matching/images/9_red.png""></img></div><div class = rightbox><img class = center src=""/static/experiments/stop_signal_with_shape_matching/images/1_white.png""></img></div></div>",0.0,stop,5.0,,5200655,0.0,test_trial,136,stop-signal,
137,,,,,,,,,500.0,,,,,,,stop_signal_with_shape_matching,,,,,,0.0-3.0-70.0,-1.0,none,,,-1,,500.0,"<div class = bigbox><div class = leftbox><img class = center src=""/static/experiments/stop_signal_with_shape_matching/images/mask.png""></img><div class = centerbox><div class = fixation>+</div></div></div><div class = rightbox><img class = center src=""/static/experiments/stop_signal_with_shape_matching/images/mask.png""></img><div class = centerbox><div class = fixation>+</div></div></div></div>",,,,,5201166,0.0,test_mask,137,poldrack-single-stim,
138,50.0,150.0,250.0,150.0,500.0,"<div class = starbox><img class = center src=""/static/experiments/stop_signal_with_shape_matching/images/stopSignal.png""></img></div>",stop,,2000.0,,-1.0,1.0,0.0,35.0,none,stop_signal_with_shape_matching,,,,,,0.0-3.0-71.0,-1.0,"[77, 90]",7.0,,-1,SNN,1000.0,"<div class = bigbox><div class = leftbox><img class = center src=""/static/experiments/stop_signal_with_shape_matching/images/7_green.png""></img></div><div class = distractorbox></div><div class = rightbox><img class = center src=""/static/experiments/stop_signal_with_shape_matching/images/7_white.png""></img></div></div>",1.0,stop,7.0,,5203178,0.0,test_trial,138,stop-signal,
139,,,,,,,,,500.0,,,,,,,stop_signal_with_shape_matching,,,,,,0.0-3.0-72.0,-1.0,none,,,-1,,500.0,"<div class = bigbox><div class = leftbox><img class = center src=""/static/experiments/stop_signal_with_shape_matching/images/mask.png""></img><div class = centerbox><div class = fixation>+</div></div></div><div class = rightbox><img class = center src=""/static/experiments/stop_signal_with_shape_matching/images/mask.png""></img><div class = centerbox><div class = fixation>+</div></div></div></div>",,,,,5203692,0.0,test_mask,139,poldrack-single-stim,
140,50.0,200.0,250.0,250.0,500.0,"<div class = starbox><img class = center src=""/static/experiments/stop_signal_with_shape_matching/images/stopSignal.png""></img></div>",stop,,2000.0,,-1.0,0.0,0.0,36.0,5,stop_signal_with_shape_matching,,,,,,0.0-3.0-73.0,77.0,"[77, 90]",5.0,,762,SSS,1000.0,"<div class = bigbox><div class = leftbox><img class = center src=""/static/experiments/stop_signal_with_shape_matching/images/5_green.png""></img></div><div class = distractorbox><img class = center src=""/static/experiments/stop_signal_with_shape_matching/images/5_red.png""></img></div><div class = rightbox><img class = center src=""/static/experiments/stop_signal_with_shape_matching/images/5_white.png""></img></div></div>",0.0,stop,5.0,,5205704,0.0,test_trial,140,stop-signal,
141,,,,,,,,,500.0,,,,,,,stop_signal_with_shape_matching,,,,,,0.0-3.0-74.0,-1.0,none,,,-1,,500.0,"<div class = bigbox><div class = leftbox><img class = center src=""/static/experiments/stop_signal_with_shape_matching/images/mask.png""></img><div class = centerbox><div class = fixation>+</div></div></div><div class = rightbox><img class = center src=""/static/experiments/stop_signal_with_shape_matching/images/mask.png""></img><div class = centerbox><div class = fixation>+</div></div></div></div>",,,,,5206218,0.0,test_mask,141,poldrack-single-stim,
142,50.0,200.0,200.0,200.0,500.0,"<div class = starbox><img class = center src=""/static/experiments/stop_signal_with_shape_matching/images/stopSignal.png""></img></div>",go,,2000.0,,77.0,1.0,0.0,37.0,none,stop_signal_with_shape_matching,,,,,,0.0-3.0-75.0,77.0,"[77, 90]",6.0,,678,SNN,1000.0,"<div class = bigbox><div class = leftbox><img class = center src=""/static/experiments/stop_signal_with_shape_matching/images/6_green.png""></img></div><div class = distractorbox></div><div class = rightbox><img class = center src=""/static/experiments/stop_signal_with_shape_matching/images/6_white.png""></img></div></div>",,go,6.0,,5208242,0.0,test_trial,142,stop-signal,
143,,,,,,,,,500.0,,,,,,,stop_signal_with_shape_matching,,,,,,0.0-3.0-76.0,-1.0,none,,,-1,,500.0,"<div class = bigbox><div class = leftbox><img class = center src=""/static/experiments/stop_signal_with_shape_matching/images/mask.png""></img><div class = centerbox><div class = fixation>+</div></div></div><div class = rightbox><img class = center src=""/static/experiments/stop_signal_with_shape_matching/images/mask.png""></img><div class = centerbox><div class = fixation>+</div></div></div></div>",,,,,5208751,0.0,test_mask,143,poldrack-single-stim,
144,50.0,200.0,200.0,200.0,500.0,"<div class = starbox><img class = center src=""/static/experiments/stop_signal_with_shape_matching/images/stopSignal.png""></img></div>",go,,2000.0,,77.0,1.0,0.0,38.0,5,stop_signal_with_shape_matching,,,,,,0.0-3.0-77.0,77.0,"[77, 90]",5.0,,678,SSS,1000.0,"<div class = bigbox><div class = leftbox><img class = center src=""/static/experiments/stop_signal_with_shape_matching/images/5_green.png""></img></div><div class = distractorbox><img class = center src=""/static/experiments/stop_signal_with_shape_matching/images/5_red.png""></img></div><div class = rightbox><img class = center src=""/static/experiments/stop_signal_with_shape_matching/images/5_white.png""></img></div></div>",,go,5.0,,5210769,0.0,test_trial,144,stop-signal,
145,,,,,,,,,500.0,,,,,,,stop_signal_with_shape_matching,,,,,,0.0-3.0-78.0,-1.0,none,,,-1,,500.0,"<div class = bigbox><div class = leftbox><img class = center src=""/static/experiments/stop_signal_with_shape_matching/images/mask.png""></img><div class = centerbox><div class = fixation>+</div></div></div><div class = rightbox><img class = center src=""/static/experiments/stop_signal_with_shape_matching/images/mask.png""></img><div class = centerbox><div class = fixation>+</div></div></div></div>",,,,,5211281,0.0,test_mask,145,poldrack-single-stim,
146,50.0,200.0,200.0,200.0,500.0,"<div class = starbox><img class = center src=""/static/experiments/stop_signal_with_shape_matching/images/stopSignal.png""></img></div>",stop,,2000.0,,-1.0,1.0,0.0,39.0,none,stop_signal_with_shape_matching,,,,,,0.0-3.0-79.0,-1.0,"[77, 90]",6.0,,-1,DNN,1000.0,"<div class = bigbox><div class = leftbox><img class = center src=""/static/experiments/stop_signal_with_shape_matching/images/4_green.png""></img></div><div class = distractorbox></div><div class = rightbox><img class = center src=""/static/experiments/stop_signal_with_shape_matching/images/6_white.png""></img></div></div>",1.0,stop,4.0,,5213292,0.0,test_trial,146,stop-signal,
