,SSD_stay,SSD_switch,SS_delay,SS_duration,SS_stimulus,SS_trial_type,att_check_percent,block_duration,correct,correct_response,correct_trial,current_block,current_trial,exp_id,final_accuracy,final_avg_rt,final_credit_var,final_missed_percent,final_responses_ok,internal_node_id,key_press,magnitude,number,parity,possible_responses,predictable_condition,predictable_dimension,responses,rt,stim_duration,stimulus,stop_acc,stop_signal_condition,text,time_elapsed,timing_post_trial,trial_id,trial_index,trial_type,view_history,whichQuadrant
0,,,,,,,,2444.0,,,,,,stop_signal_with_predictable_task_switching,,,,,,0.0-0.0-0.0,13.0,,,,[13],,,,2444,2444.0,<div class = bigbox><div class = picture_box><p class = block-text>Welcome to the experiment. This experiment will take around 10 minutes. Press <i>enter</i> to begin.</p></div></div>,,,,2444,0.0,feedback_block,0,poldrack-single-stim,,
1,,,,,,,,,,,,,,stop_signal_with_predictable_task_switching,,,,,,0.0-0.0-1.0,,,,,,,,,35364,,,,,,37810,,instruction,1,poldrack-instructions,"[{""page_index"":0,""viewing_time"":6564},{""page_index"":1,""viewing_time"":26482},{""page_index"":2,""viewing_time"":2318}]",
2,,,,,,,,500.0,,,,,,stop_signal_with_predictable_task_switching,,,,,,0.0-0.0-2.0,-1.0,,,,none,,,,-1,500.0,<div class = bigbox><div class = quad_box><div class = decision-top-left><div class = fixation>+</div></div></div></div>,,,,39323,0.0,practice_fixation,2,poldrack-single-stim,,
3,350.0,350.0,,500.0,<div class = bigbox><div class = quad_box><div class = decision-top-left><img class = center src='/static/experiments/stop_signal_with_predictable_task_switching/images/stopSignal.png'></img></div></div></div>,go,,2000.0,,90.0,1.0,0.0,1.0,stop_signal_with_predictable_task_switching,,,,,,0.0-0.0-3.0,90.0,low,3.0,odd,"[77, 90]",N/A,magnitude,,1481,1000.0,<div class = bigbox><div class = quad_box><div class = decision-top-left><div class = gng_number><div class = cue-text><img class = center src='/static/experiments/stop_signal_with_predictable_task_switching/images/3.png'></img></div></div></div></div></div>,,go,,41329,0.0,practice_trial,3,stop-signal,,1.0
4,,,,,,,,500.0,,,,,,stop_signal_with_predictable_task_switching,,,,,,0.0-0.0-4.0,-1.0,,,,none,,,,-1,500.0,"<div class = fb_box><div class = center-text><font size = 20>Correct!</font></div></div><div class = prompt_box><p class = center-block-text style = ""font-size:16px; line-height:80%;"">Do not respond if a star appears!</p><p class = center-block-text style = ""font-size:16px; line-height:80%;"">Top 2 quadrants: Judge number on magnitude</p><p class = center-block-text style = ""font-size:16px; line-height:80%;"">high: M Key | low: Z Key</p><p class = center-block-text style = ""font-size:16px; line-height:80%;"">Bottom 2 quadrants: Judge number on parity</p><p class = center-block-text style = ""font-size:16px; line-height:80%;"">even: M Key | odd: Z Key</p></div>",,,,41835,0.0,practice-stop-feedback,4,poldrack-single-stim,,
5,,,,,,,,500.0,,,,,,stop_signal_with_predictable_task_switching,,,,,,0.0-0.0-5.0,-1.0,,,,none,,,,-1,500.0,<div class = bigbox><div class = quad_box><div class = decision-top-right><div class = fixation>+</div></div></div></div>,,,,42339,0.0,practice_fixation,5,poldrack-single-stim,,
6,350.0,350.0,350.0,500.0,<div class = bigbox><div class = quad_box><div class = decision-top-right><img class = center src='/static/experiments/stop_signal_with_predictable_task_switching/images/stopSignal.png'></img></div></div></div>,go,,2000.0,,77.0,1.0,0.0,2.0,stop_signal_with_predictable_task_switching,,,,,,0.0-0.0-6.0,77.0,high,9.0,odd,"[77, 90]",stay,magnitude,,739,1000.0,<div class = bigbox><div class = quad_box><div class = decision-top-right><div class = gng_number><div class = cue-text><img class = center src='/static/experiments/stop_signal_with_predictable_task_switching/images/9.png'></img></div></div></div></div></div>,,go,,44343,0.0,practice_trial,6,stop-signal,,2.0
7,,,,,,,,500.0,,,,,,stop_signal_with_predictable_task_switching,,,,,,0.0-0.0-7.0,-1.0,,,,none,,,,-1,500.0,"<div class = fb_box><div class = center-text><font size = 20>Correct!</font></div></div><div class = prompt_box><p class = center-block-text style = ""font-size:16px; line-height:80%;"">Do not respond if a star appears!</p><p class = center-block-text style = ""font-size:16px; line-height:80%;"">Top 2 quadrants: Judge number on magnitude</p><p class = center-block-text style = ""font-size:16px; line-height:80%;"">high: M Key | low: Z Key</p><p class = center-block-text style = ""font-size:16px; line-height:80%;"">Bottom 2 quadrants: Judge number on parity</p><p class = center-block-text style = ""font-size:16px; line-height:80%;"">even: M Key | odd: Z Key</p></div>",,,,44848,0.0,practice-stop-feedback,7,poldrack-single-stim,,
8,,,,,,,,500.0,,,,,,stop_signal_with_predictable_task_switching,,,,,,0.0-0.0-8.0,-1.0,,,,none,,,,-1,500.0,<div class = bigbox><div class = quad_box><div class = decision-bottom-right><div class = fixation>+</div></div></div></div>,,,,45353,0.0,practice_fixation,8,poldrack-single-stim,,
9,350.0,350.0,350.0,500.0,<div class = bigbox><div class = quad_box><div class = decision-bottom-right><img class = center src='/static/experiments/stop_signal_with_predictable_task_switching/images/stopSignal.png'></img></div></div></div>,go,,2000.0,,90.0,1.0,0.0,3.0,stop_signal_with_predictable_task_switching,,,,,,0.0-0.0-9.0,90.0,low,1.0,odd,"[77, 90]",switch,parity,,550,1000.0,<div class = bigbox><div class = quad_box><div class = decision-bottom-right><div class = gng_number><div class = cue-text><img class = center src='/static/experiments/stop_signal_with_predictable_task_switching/images/1.png'></img></div></div></div></div></div>,,go,,47356,0.0,practice_trial,9,stop-signal,,3.0
10,,,,,,,,500.0,,,,,,stop_signal_with_predictable_task_switching,,,,,,0.0-0.0-10.0,-1.0,,,,none,,,,-1,500.0,"<div class = fb_box><div class = center-text><font size = 20>Correct!</font></div></div><div class = prompt_box><p class = center-block-text style = ""font-size:16px; line-height:80%;"">Do not respond if a star appears!</p><p class = center-block-text style = ""font-size:16px; line-height:80%;"">Top 2 quadrants: Judge number on magnitude</p><p class = center-block-text style = ""font-size:16px; line-height:80%;"">high: M Key | low: Z Key</p><p class = center-block-text style = ""font-size:16px; line-height:80%;"">Bottom 2 quadrants: Judge number on parity</p><p class = center-block-text style = ""font-size:16px; line-height:80%;"">even: M Key | odd: Z Key</p></div>",,,,47861,0.0,practice-stop-feedback,10,poldrack-single-stim,,
11,,,,,,,,500.0,,,,,,stop_signal_with_predictable_task_switching,,,,,,0.0-0.0-11.0,-1.0,,,,none,,,,-1,500.0,<div class = bigbox><div class = quad_box><div class = decision-bottom-left><div class = fixation>+</div></div></div></div>,,,,48366,0.0,practice_fixation,11,poldrack-single-stim,,
12,350.0,350.0,350.0,500.0,<div class = bigbox><div class = quad_box><div class = decision-bottom-left><img class = center src='/static/experiments/stop_signal_with_predictable_task_switching/images/stopSignal.png'></img></div></div></div>,go,,2000.0,,90.0,1.0,0.0,4.0,stop_signal_with_predictable_task_switching,,,,,,0.0-0.0-12.0,90.0,low,1.0,odd,"[77, 90]",stay,parity,,500,1000.0,<div class = bigbox><div class = quad_box><div class = decision-bottom-left><div class = gng_number><div class = cue-text><img class = center src='/static/experiments/stop_signal_with_predictable_task_switching/images/1.png'></img></div></div></div></div></div>,,go,,50369,0.0,practice_trial,12,stop-signal,,4.0
13,,,,,,,,500.0,,,,,,stop_signal_with_predictable_task_switching,,,,,,0.0-0.0-13.0,-1.0,,,,none,,,,-1,500.0,"<div class = fb_box><div class = center-text><font size = 20>Correct!</font></div></div><div class = prompt_box><p class = center-block-text style = ""font-size:16px; line-height:80%;"">Do not respond if a star appears!</p><p class = center-block-text style = ""font-size:16px; line-height:80%;"">Top 2 quadrants: Judge number on magnitude</p><p class = center-block-text style = ""font-size:16px; line-height:80%;"">high: M Key | low: Z Key</p><p class = center-block-text style = ""font-size:16px; line-height:80%;"">Bottom 2 quadrants: Judge number on parity</p><p class = center-block-text style = ""font-size:16px; line-height:80%;"">even: M Key | odd: Z Key</p></div>",,,,50873,0.0,practice-stop-feedback,13,poldrack-single-stim,,
14,,,,,,,,500.0,,,,,,stop_signal_with_predictable_task_switching,,,,,,0.0-0.0-14.0,-1.0,,,,none,,,,-1,500.0,<div class = bigbox><div class = quad_box><div class = decision-top-left><div class = fixation>+</div></div></div></div>,,,,51379,0.0,practice_fixation,14,poldrack-single-stim,,
15,350.0,350.0,350.0,500.0,<div class = bigbox><div class = quad_box><div class = decision-top-left><img class = center src='/static/experiments/stop_signal_with_predictable_task_switching/images/stopSignal.png'></img></div></div></div>,go,,2000.0,,77.0,1.0,0.0,5.0,stop_signal_with_predictable_task_switching,,,,,,0.0-0.0-15.0,77.0,high,6.0,even,"[77, 90]",switch,magnitude,,525,1000.0,<div class = bigbox><div class = quad_box><div class = decision-top-left><div class = gng_number><div class = cue-text><img class = center src='/static/experiments/stop_signal_with_predictable_task_switching/images/6.png'></img></div></div></div></div></div>,,go,,53385,0.0,practice_trial,15,stop-signal,,1.0
16,,,,,,,,500.0,,,,,,stop_signal_with_predictable_task_switching,,,,,,0.0-0.0-16.0,-1.0,,,,none,,,,-1,500.0,"<div class = fb_box><div class = center-text><font size = 20>Correct!</font></div></div><div class = prompt_box><p class = center-block-text style = ""font-size:16px; line-height:80%;"">Do not respond if a star appears!</p><p class = center-block-text style = ""font-size:16px; line-height:80%;"">Top 2 quadrants: Judge number on magnitude</p><p class = center-block-text style = ""font-size:16px; line-height:80%;"">high: M Key | low: Z Key</p><p class = center-block-text style = ""font-size:16px; line-height:80%;"">Bottom 2 quadrants: Judge number on parity</p><p class = center-block-text style = ""font-size:16px; line-height:80%;"">even: M Key | odd: Z Key</p></div>",,,,53892,0.0,practice-stop-feedback,16,poldrack-single-stim,,
17,,,,,,,,500.0,,,,,,stop_signal_with_predictable_task_switching,,,,,,0.0-0.0-17.0,-1.0,,,,none,,,,-1,500.0,<div class = bigbox><div class = quad_box><div class = decision-top-right><div class = fixation>+</div></div></div></div>,,,,54394,0.0,practice_fixation,17,poldrack-single-stim,,
18,350.0,350.0,350.0,500.0,<div class = bigbox><div class = quad_box><div class = decision-top-right><img class = center src='/static/experiments/stop_signal_with_predictable_task_switching/images/stopSignal.png'></img></div></div></div>,go,,2000.0,,77.0,0.0,0.0,6.0,stop_signal_with_predictable_task_switching,,,,,,0.0-0.0-18.0,90.0,high,7.0,odd,"[77, 90]",stay,magnitude,,586,1000.0,<div class = bigbox><div class = quad_box><div class = decision-top-right><div class = gng_number><div class = cue-text><img class = center src='/static/experiments/stop_signal_with_predictable_task_switching/images/7.png'></img></div></div></div></div></div>,,go,,56399,0.0,practice_trial,18,stop-signal,,2.0
19,,,,,,,,500.0,,,,,,stop_signal_with_predictable_task_switching,,,,,,0.0-0.0-19.0,-1.0,,,,none,,,,-1,500.0,"<div class = fb_box><div class = center-text><font size = 20>Incorrect</font></div></div><div class = prompt_box><p class = center-block-text style = ""font-size:16px; line-height:80%;"">Do not respond if a star appears!</p><p class = center-block-text style = ""font-size:16px; line-height:80%;"">Top 2 quadrants: Judge number on magnitude</p><p class = center-block-text style = ""font-size:16px; line-height:80%;"">high: M Key | low: Z Key</p><p class = center-block-text style = ""font-size:16px; line-height:80%;"">Bottom 2 quadrants: Judge number on parity</p><p class = center-block-text style = ""font-size:16px; line-height:80%;"">even: M Key | odd: Z Key</p></div>",,,,56902,0.0,practice-stop-feedback,19,poldrack-single-stim,,
20,,,,,,,,500.0,,,,,,stop_signal_with_predictable_task_switching,,,,,,0.0-0.0-20.0,-1.0,,,,none,,,,-1,500.0,<div class = bigbox><div class = quad_box><div class = decision-bottom-right><div class = fixation>+</div></div></div></div>,,,,57405,0.0,practice_fixation,20,poldrack-single-stim,,
21,350.0,350.0,350.0,500.0,<div class = bigbox><div class = quad_box><div class = decision-bottom-right><img class = center src='/static/experiments/stop_signal_with_predictable_task_switching/images/stopSignal.png'></img></div></div></div>,go,,2000.0,,77.0,1.0,0.0,7.0,stop_signal_with_predictable_task_switching,,,,,,0.0-0.0-21.0,77.0,high,8.0,even,"[77, 90]",switch,parity,,462,1000.0,<div class = bigbox><div class = quad_box><div class = decision-bottom-right><div class = gng_number><div class = cue-text><img class = center src='/static/experiments/stop_signal_with_predictable_task_switching/images/8.png'></img></div></div></div></div></div>,,go,,59410,0.0,practice_trial,21,stop-signal,,3.0
22,,,,,,,,500.0,,,,,,stop_signal_with_predictable_task_switching,,,,,,0.0-0.0-22.0,-1.0,,,,none,,,,-1,500.0,"<div class = fb_box><div class = center-text><font size = 20>Correct!</font></div></div><div class = prompt_box><p class = center-block-text style = ""font-size:16px; line-height:80%;"">Do not respond if a star appears!</p><p class = center-block-text style = ""font-size:16px; line-height:80%;"">Top 2 quadrants: Judge number on magnitude</p><p class = center-block-text style = ""font-size:16px; line-height:80%;"">high: M Key | low: Z Key</p><p class = center-block-text style = ""font-size:16px; line-height:80%;"">Bottom 2 quadrants: Judge number on parity</p><p class = center-block-text style = ""font-size:16px; line-height:80%;"">even: M Key | odd: Z Key</p></div>",,,,59912,0.0,practice-stop-feedback,22,poldrack-single-stim,,
23,,,,,,,,500.0,,,,,,stop_signal_with_predictable_task_switching,,,,,,0.0-0.0-23.0,-1.0,,,,none,,,,-1,500.0,<div class = bigbox><div class = quad_box><div class = decision-bottom-left><div class = fixation>+</div></div></div></div>,,,,60414,0.0,practice_fixation,23,poldrack-single-stim,,
24,350.0,350.0,350.0,500.0,<div class = bigbox><div class = quad_box><div class = decision-bottom-left><img class = center src='/static/experiments/stop_signal_with_predictable_task_switching/images/stopSignal.png'></img></div></div></div>,go,,2000.0,,90.0,1.0,0.0,8.0,stop_signal_with_predictable_task_switching,,,,,,0.0-0.0-24.0,90.0,low,1.0,odd,"[77, 90]",stay,parity,,427,1000.0,<div class = bigbox><div class = quad_box><div class = decision-bottom-left><div class = gng_number><div class = cue-text><img class = center src='/static/experiments/stop_signal_with_predictable_task_switching/images/1.png'></img></div></div></div></div></div>,,go,,62419,0.0,practice_trial,24,stop-signal,,4.0
25,,,,,,,,500.0,,,,,,stop_signal_with_predictable_task_switching,,,,,,0.0-0.0-25.0,-1.0,,,,none,,,,-1,500.0,"<div class = fb_box><div class = center-text><font size = 20>Correct!</font></div></div><div class = prompt_box><p class = center-block-text style = ""font-size:16px; line-height:80%;"">Do not respond if a star appears!</p><p class = center-block-text style = ""font-size:16px; line-height:80%;"">Top 2 quadrants: Judge number on magnitude</p><p class = center-block-text style = ""font-size:16px; line-height:80%;"">high: M Key | low: Z Key</p><p class = center-block-text style = ""font-size:16px; line-height:80%;"">Bottom 2 quadrants: Judge number on parity</p><p class = center-block-text style = ""font-size:16px; line-height:80%;"">even: M Key | odd: Z Key</p></div>",,,,62922,0.0,practice-stop-feedback,25,poldrack-single-stim,,
26,,,,,,,,500.0,,,,,,stop_signal_with_predictable_task_switching,,,,,,0.0-0.0-26.0,-1.0,,,,none,,,,-1,500.0,<div class = bigbox><div class = quad_box><div class = decision-top-left><div class = fixation>+</div></div></div></div>,,,,63429,0.0,practice_fixation,26,poldrack-single-stim,,
27,350.0,350.0,350.0,500.0,<div class = bigbox><div class = quad_box><div class = decision-top-left><img class = center src='/static/experiments/stop_signal_with_predictable_task_switching/images/stopSignal.png'></img></div></div></div>,go,,2000.0,,77.0,1.0,0.0,9.0,stop_signal_with_predictable_task_switching,,,,,,0.0-0.0-27.0,77.0,high,6.0,even,"[77, 90]",switch,magnitude,,450,1000.0,<div class = bigbox><div class = quad_box><div class = decision-top-left><div class = gng_number><div class = cue-text><img class = center src='/static/experiments/stop_signal_with_predictable_task_switching/images/6.png'></img></div></div></div></div></div>,,go,,65431,0.0,practice_trial,27,stop-signal,,1.0
28,,,,,,,,500.0,,,,,,stop_signal_with_predictable_task_switching,,,,,,0.0-0.0-28.0,-1.0,,,,none,,,,-1,500.0,"<div class = fb_box><div class = center-text><font size = 20>Correct!</font></div></div><div class = prompt_box><p class = center-block-text style = ""font-size:16px; line-height:80%;"">Do not respond if a star appears!</p><p class = center-block-text style = ""font-size:16px; line-height:80%;"">Top 2 quadrants: Judge number on magnitude</p><p class = center-block-text style = ""font-size:16px; line-height:80%;"">high: M Key | low: Z Key</p><p class = center-block-text style = ""font-size:16px; line-height:80%;"">Bottom 2 quadrants: Judge number on parity</p><p class = center-block-text style = ""font-size:16px; line-height:80%;"">even: M Key | odd: Z Key</p></div>",,,,65937,0.0,practice-stop-feedback,28,poldrack-single-stim,,
29,,,,,,,,500.0,,,,,,stop_signal_with_predictable_task_switching,,,,,,0.0-0.0-29.0,-1.0,,,,none,,,,-1,500.0,<div class = bigbox><div class = quad_box><div class = decision-top-right><div class = fixation>+</div></div></div></div>,,,,66442,0.0,practice_fixation,29,poldrack-single-stim,,
30,350.0,350.0,350.0,500.0,<div class = bigbox><div class = quad_box><div class = decision-top-right><img class = center src='/static/experiments/stop_signal_with_predictable_task_switching/images/stopSignal.png'></img></div></div></div>,stop,,2000.0,,-1.0,0.0,0.0,10.0,stop_signal_with_predictable_task_switching,,,,,,0.0-0.0-30.0,77.0,high,6.0,even,"[77, 90]",stay,magnitude,,387,1000.0,<div class = bigbox><div class = quad_box><div class = decision-top-right><div class = gng_number><div class = cue-text><img class = center src='/static/experiments/stop_signal_with_predictable_task_switching/images/6.png'></img></div></div></div></div></div>,0.0,stop,,68444,0.0,practice_trial,30,stop-signal,,2.0
31,,,,,,,,500.0,,,,,,stop_signal_with_predictable_task_switching,,,,,,0.0-0.0-31.0,-1.0,,,,none,,,,-1,500.0,"<div class = fb_box><div class = center-text><font size = 20>There was a star.</font></div></div><div class = prompt_box><p class = center-block-text style = ""font-size:16px; line-height:80%;"">Do not respond if a star appears!</p><p class = center-block-text style = ""font-size:16px; line-height:80%;"">Top 2 quadrants: Judge number on magnitude</p><p class = center-block-text style = ""font-size:16px; line-height:80%;"">high: M Key | low: Z Key</p><p class = center-block-text style = ""font-size:16px; line-height:80%;"">Bottom 2 quadrants: Judge number on parity</p><p class = center-block-text style = ""font-size:16px; line-height:80%;"">even: M Key | odd: Z Key</p></div>",,,,68949,0.0,practice-stop-feedback,31,poldrack-single-stim,,
32,,,,,,,,500.0,,,,,,stop_signal_with_predictable_task_switching,,,,,,0.0-0.0-32.0,-1.0,,,,none,,,,-1,500.0,<div class = bigbox><div class = quad_box><div class = decision-bottom-right><div class = fixation>+</div></div></div></div>,,,,69454,0.0,practice_fixation,32,poldrack-single-stim,,
33,300.0,350.0,350.0,500.0,<div class = bigbox><div class = quad_box><div class = decision-bottom-right><img class = center src='/static/experiments/stop_signal_with_predictable_task_switching/images/stopSignal.png'></img></div></div></div>,stop,,2000.0,,-1.0,0.0,0.0,11.0,stop_signal_with_predictable_task_switching,,,,,,0.0-0.0-33.0,90.0,low,2.0,even,"[77, 90]",switch,parity,,825,1000.0,<div class = bigbox><div class = quad_box><div class = decision-bottom-right><div class = gng_number><div class = cue-text><img class = center src='/static/experiments/stop_signal_with_predictable_task_switching/images/2.png'></img></div></div></div></div></div>,0.0,stop,,71457,0.0,practice_trial,33,stop-signal,,3.0
34,,,,,,,,500.0,,,,,,stop_signal_with_predictable_task_switching,,,,,,0.0-0.0-34.0,-1.0,,,,none,,,,-1,500.0,"<div class = fb_box><div class = center-text><font size = 20>There was a star.</font></div></div><div class = prompt_box><p class = center-block-text style = ""font-size:16px; line-height:80%;"">Do not respond if a star appears!</p><p class = center-block-text style = ""font-size:16px; line-height:80%;"">Top 2 quadrants: Judge number on magnitude</p><p class = center-block-text style = ""font-size:16px; line-height:80%;"">high: M Key | low: Z Key</p><p class = center-block-text style = ""font-size:16px; line-height:80%;"">Bottom 2 quadrants: Judge number on parity</p><p class = center-block-text style = ""font-size:16px; line-height:80%;"">even: M Key | odd: Z Key</p></div>",,,,71962,0.0,practice-stop-feedback,34,poldrack-single-stim,,
35,,,,,,,,500.0,,,,,,stop_signal_with_predictable_task_switching,,,,,,0.0-0.0-35.0,-1.0,,,,none,,,,-1,500.0,<div class = bigbox><div class = quad_box><div class = decision-bottom-left><div class = fixation>+</div></div></div></div>,,,,72467,0.0,practice_fixation,35,poldrack-single-stim,,
36,300.0,300.0,300.0,500.0,<div class = bigbox><div class = quad_box><div class = decision-bottom-left><img class = center src='/static/experiments/stop_signal_with_predictable_task_switching/images/stopSignal.png'></img></div></div></div>,go,,2000.0,,77.0,0.0,0.0,12.0,stop_signal_with_predictable_task_switching,,,,,,0.0-0.0-36.0,90.0,low,2.0,even,"[77, 90]",stay,parity,,812,1000.0,<div class = bigbox><div class = quad_box><div class = decision-bottom-left><div class = gng_number><div class = cue-text><img class = center src='/static/experiments/stop_signal_with_predictable_task_switching/images/2.png'></img></div></div></div></div></div>,,go,,74469,0.0,practice_trial,36,stop-signal,,4.0
37,,,,,,,,500.0,,,,,,stop_signal_with_predictable_task_switching,,,,,,0.0-0.0-37.0,-1.0,,,,none,,,,-1,500.0,"<div class = fb_box><div class = center-text><font size = 20>Incorrect</font></div></div><div class = prompt_box><p class = center-block-text style = ""font-size:16px; line-height:80%;"">Do not respond if a star appears!</p><p class = center-block-text style = ""font-size:16px; line-height:80%;"">Top 2 quadrants: Judge number on magnitude</p><p class = center-block-text style = ""font-size:16px; line-height:80%;"">high: M Key | low: Z Key</p><p class = center-block-text style = ""font-size:16px; line-height:80%;"">Bottom 2 quadrants: Judge number on parity</p><p class = center-block-text style = ""font-size:16px; line-height:80%;"">even: M Key | odd: Z Key</p></div>",,,,74976,0.0,practice-stop-feedback,37,poldrack-single-stim,,
38,,,,,,,,500.0,,,,,,stop_signal_with_predictable_task_switching,,,,,,0.0-0.0-38.0,-1.0,,,,none,,,,-1,500.0,<div class = bigbox><div class = quad_box><div class = decision-top-left><div class = fixation>+</div></div></div></div>,,,,75479,0.0,practice_fixation,38,poldrack-single-stim,,
39,300.0,300.0,300.0,500.0,<div class = bigbox><div class = quad_box><div class = decision-top-left><img class = center src='/static/experiments/stop_signal_with_predictable_task_switching/images/stopSignal.png'></img></div></div></div>,stop,,2000.0,,-1.0,1.0,0.0,13.0,stop_signal_with_predictable_task_switching,,,,,,0.0-0.0-39.0,-1.0,high,9.0,odd,"[77, 90]",switch,magnitude,,-1,1000.0,<div class = bigbox><div class = quad_box><div class = decision-top-left><div class = gng_number><div class = cue-text><img class = center src='/static/experiments/stop_signal_with_predictable_task_switching/images/9.png'></img></div></div></div></div></div>,1.0,stop,,77482,0.0,practice_trial,39,stop-signal,,1.0
40,,,,,,,,500.0,,,,,,stop_signal_with_predictable_task_switching,,,,,,0.0-0.0-40.0,-1.0,,,,none,,,,-1,500.0,"<div class = fb_box><div class = center-text><font size = 20>Correct!</font></div></div><div class = prompt_box><p class = center-block-text style = ""font-size:16px; line-height:80%;"">Do not respond if a star appears!</p><p class = center-block-text style = ""font-size:16px; line-height:80%;"">Top 2 quadrants: Judge number on magnitude</p><p class = center-block-text style = ""font-size:16px; line-height:80%;"">high: M Key | low: Z Key</p><p class = center-block-text style = ""font-size:16px; line-height:80%;"">Bottom 2 quadrants: Judge number on parity</p><p class = center-block-text style = ""font-size:16px; line-height:80%;"">even: M Key | odd: Z Key</p></div>",,,,77988,0.0,practice-stop-feedback,40,poldrack-single-stim,,
41,,,,,,,,500.0,,,,,,stop_signal_with_predictable_task_switching,,,,,,0.0-0.0-41.0,-1.0,,,,none,,,,-1,500.0,<div class = bigbox><div class = quad_box><div class = decision-top-right><div class = fixation>+</div></div></div></div>,,,,78492,0.0,practice_fixation,41,poldrack-single-stim,,
42,300.0,350.0,300.0,500.0,<div class = bigbox><div class = quad_box><div class = decision-top-right><img class = center src='/static/experiments/stop_signal_with_predictable_task_switching/images/stopSignal.png'></img></div></div></div>,stop,,2000.0,,-1.0,0.0,0.0,14.0,stop_signal_with_predictable_task_switching,,,,,,0.0-0.0-42.0,77.0,high,8.0,even,"[77, 90]",stay,magnitude,,562,1000.0,<div class = bigbox><div class = quad_box><div class = decision-top-right><div class = gng_number><div class = cue-text><img class = center src='/static/experiments/stop_signal_with_predictable_task_switching/images/8.png'></img></div></div></div></div></div>,0.0,stop,,80495,0.0,practice_trial,42,stop-signal,,2.0
43,,,,,,,,500.0,,,,,,stop_signal_with_predictable_task_switching,,,,,,0.0-0.0-43.0,-1.0,,,,none,,,,-1,500.0,"<div class = fb_box><div class = center-text><font size = 20>There was a star.</font></div></div><div class = prompt_box><p class = center-block-text style = ""font-size:16px; line-height:80%;"">Do not respond if a star appears!</p><p class = center-block-text style = ""font-size:16px; line-height:80%;"">Top 2 quadrants: Judge number on magnitude</p><p class = center-block-text style = ""font-size:16px; line-height:80%;"">high: M Key | low: Z Key</p><p class = center-block-text style = ""font-size:16px; line-height:80%;"">Bottom 2 quadrants: Judge number on parity</p><p class = center-block-text style = ""font-size:16px; line-height:80%;"">even: M Key | odd: Z Key</p></div>",,,,81000,0.0,practice-stop-feedback,43,poldrack-single-stim,,
44,,,,,,,,500.0,,,,,,stop_signal_with_predictable_task_switching,,,,,,0.0-0.0-44.0,-1.0,,,,none,,,,-1,500.0,<div class = bigbox><div class = quad_box><div class = decision-bottom-right><div class = fixation>+</div></div></div></div>,,,,81506,0.0,practice_fixation,44,poldrack-single-stim,,
45,250.0,350.0,350.0,500.0,<div class = bigbox><div class = quad_box><div class = decision-bottom-right><img class = center src='/static/experiments/stop_signal_with_predictable_task_switching/images/stopSignal.png'></img></div></div></div>,stop,,2000.0,,-1.0,0.0,0.0,15.0,stop_signal_with_predictable_task_switching,,,,,,0.0-0.0-45.0,77.0,high,6.0,even,"[77, 90]",switch,parity,,586,1000.0,<div class = bigbox><div class = quad_box><div class = decision-bottom-right><div class = gng_number><div class = cue-text><img class = center src='/static/experiments/stop_signal_with_predictable_task_switching/images/6.png'></img></div></div></div></div></div>,0.0,stop,,83508,0.0,practice_trial,45,stop-signal,,3.0
46,,,,,,,,500.0,,,,,,stop_signal_with_predictable_task_switching,,,,,,0.0-0.0-46.0,-1.0,,,,none,,,,-1,500.0,"<div class = fb_box><div class = center-text><font size = 20>There was a star.</font></div></div><div class = prompt_box><p class = center-block-text style = ""font-size:16px; line-height:80%;"">Do not respond if a star appears!</p><p class = center-block-text style = ""font-size:16px; line-height:80%;"">Top 2 quadrants: Judge number on magnitude</p><p class = center-block-text style = ""font-size:16px; line-height:80%;"">high: M Key | low: Z Key</p><p class = center-block-text style = ""font-size:16px; line-height:80%;"">Bottom 2 quadrants: Judge number on parity</p><p class = center-block-text style = ""font-size:16px; line-height:80%;"">even: M Key | odd: Z Key</p></div>",,,,84013,0.0,practice-stop-feedback,46,poldrack-single-stim,,
47,,,,,,,,500.0,,,,,,stop_signal_with_predictable_task_switching,,,,,,0.0-0.0-47.0,-1.0,,,,none,,,,-1,500.0,<div class = bigbox><div class = quad_box><div class = decision-bottom-left><div class = fixation>+</div></div></div></div>,,,,84517,0.0,practice_fixation,47,poldrack-single-stim,,
48,250.0,300.0,250.0,500.0,<div class = bigbox><div class = quad_box><div class = decision-bottom-left><img class = center src='/static/experiments/stop_signal_with_predictable_task_switching/images/stopSignal.png'></img></div></div></div>,stop,,2000.0,,-1.0,1.0,0.0,16.0,stop_signal_with_predictable_task_switching,,,,,,0.0-0.0-48.0,-1.0,high,6.0,even,"[77, 90]",stay,parity,,-1,1000.0,<div class = bigbox><div class = quad_box><div class = decision-bottom-left><div class = gng_number><div class = cue-text><img class = center src='/static/experiments/stop_signal_with_predictable_task_switching/images/6.png'></img></div></div></div></div></div>,1.0,stop,,86519,0.0,practice_trial,48,stop-signal,,4.0
49,,,,,,,,500.0,,,,,,stop_signal_with_predictable_task_switching,,,,,,0.0-0.0-49.0,-1.0,,,,none,,,,-1,500.0,"<div class = fb_box><div class = center-text><font size = 20>Correct!</font></div></div><div class = prompt_box><p class = center-block-text style = ""font-size:16px; line-height:80%;"">Do not respond if a star appears!</p><p class = center-block-text style = ""font-size:16px; line-height:80%;"">Top 2 quadrants: Judge number on magnitude</p><p class = center-block-text style = ""font-size:16px; line-height:80%;"">high: M Key | low: Z Key</p><p class = center-block-text style = ""font-size:16px; line-height:80%;"">Bottom 2 quadrants: Judge number on parity</p><p class = center-block-text style = ""font-size:16px; line-height:80%;"">even: M Key | odd: Z Key</p></div>",,,,87026,0.0,practice-stop-feedback,49,poldrack-single-stim,,
50,,,,,,,,500.0,,,,,,stop_signal_with_predictable_task_switching,,,,,,0.0-0.0-50.0,-1.0,,,,none,,,,-1,500.0,<div class = bigbox><div class = quad_box><div class = decision-top-left><div class = fixation>+</div></div></div></div>,,,,87530,0.0,practice_fixation,50,poldrack-single-stim,,
51,300.0,300.0,300.0,500.0,<div class = bigbox><div class = quad_box><div class = decision-top-left><img class = center src='/static/experiments/stop_signal_with_predictable_task_switching/images/stopSignal.png'></img></div></div></div>,go,,2000.0,,90.0,0.0,0.0,17.0,stop_signal_with_predictable_task_switching,,,,,,0.0-0.0-51.0,77.0,low,1.0,odd,"[77, 90]",switch,magnitude,,799,1000.0,<div class = bigbox><div class = quad_box><div class = decision-top-left><div class = gng_number><div class = cue-text><img class = center src='/static/experiments/stop_signal_with_predictable_task_switching/images/1.png'></img></div></div></div></div></div>,,go,,89533,0.0,practice_trial,51,stop-signal,,1.0
52,,,,,,,,500.0,,,,,,stop_signal_with_predictable_task_switching,,,,,,0.0-0.0-52.0,-1.0,,,,none,,,,-1,500.0,"<div class = fb_box><div class = center-text><font size = 20>Incorrect</font></div></div><div class = prompt_box><p class = center-block-text style = ""font-size:16px; line-height:80%;"">Do not respond if a star appears!</p><p class = center-block-text style = ""font-size:16px; line-height:80%;"">Top 2 quadrants: Judge number on magnitude</p><p class = center-block-text style = ""font-size:16px; line-height:80%;"">high: M Key | low: Z Key</p><p class = center-block-text style = ""font-size:16px; line-height:80%;"">Bottom 2 quadrants: Judge number on parity</p><p class = center-block-text style = ""font-size:16px; line-height:80%;"">even: M Key | odd: Z Key</p></div>",,,,90037,0.0,practice-stop-feedback,52,poldrack-single-stim,,
53,,,,,,,,500.0,,,,,,stop_signal_with_predictable_task_switching,,,,,,0.0-0.0-53.0,-1.0,,,,none,,,,-1,500.0,<div class = bigbox><div class = quad_box><div class = decision-top-right><div class = fixation>+</div></div></div></div>,,,,90544,0.0,practice_fixation,53,poldrack-single-stim,,
54,300.0,300.0,300.0,500.0,<div class = bigbox><div class = quad_box><div class = decision-top-right><img class = center src='/static/experiments/stop_signal_with_predictable_task_switching/images/stopSignal.png'></img></div></div></div>,go,,2000.0,,90.0,1.0,0.0,18.0,stop_signal_with_predictable_task_switching,,,,,,0.0-0.0-54.0,90.0,low,4.0,even,"[77, 90]",stay,magnitude,,1160,1000.0,<div class = bigbox><div class = quad_box><div class = decision-top-right><div class = gng_number><div class = cue-text><img class = center src='/static/experiments/stop_signal_with_predictable_task_switching/images/4.png'></img></div></div></div></div></div>,,go,,92546,0.0,practice_trial,54,stop-signal,,2.0
55,,,,,,,,500.0,,,,,,stop_signal_with_predictable_task_switching,,,,,,0.0-0.0-55.0,-1.0,,,,none,,,,-1,500.0,"<div class = fb_box><div class = center-text><font size = 20>Correct!</font></div></div><div class = prompt_box><p class = center-block-text style = ""font-size:16px; line-height:80%;"">Do not respond if a star appears!</p><p class = center-block-text style = ""font-size:16px; line-height:80%;"">Top 2 quadrants: Judge number on magnitude</p><p class = center-block-text style = ""font-size:16px; line-height:80%;"">high: M Key | low: Z Key</p><p class = center-block-text style = ""font-size:16px; line-height:80%;"">Bottom 2 quadrants: Judge number on parity</p><p class = center-block-text style = ""font-size:16px; line-height:80%;"">even: M Key | odd: Z Key</p></div>",,,,93050,0.0,practice-stop-feedback,55,poldrack-single-stim,,
56,,,,,,,,500.0,,,,,,stop_signal_with_predictable_task_switching,,,,,,0.0-0.0-56.0,-1.0,,,,none,,,,-1,500.0,<div class = bigbox><div class = quad_box><div class = decision-bottom-right><div class = fixation>+</div></div></div></div>,,,,93556,0.0,practice_fixation,56,poldrack-single-stim,,
57,300.0,300.0,300.0,500.0,<div class = bigbox><div class = quad_box><div class = decision-bottom-right><img class = center src='/static/experiments/stop_signal_with_predictable_task_switching/images/stopSignal.png'></img></div></div></div>,go,,2000.0,,90.0,1.0,0.0,19.0,stop_signal_with_predictable_task_switching,,,,,,0.0-0.0-57.0,90.0,low,1.0,odd,"[77, 90]",switch,parity,,1099,1000.0,<div class = bigbox><div class = quad_box><div class = decision-bottom-right><div class = gng_number><div class = cue-text><img class = center src='/static/experiments/stop_signal_with_predictable_task_switching/images/1.png'></img></div></div></div></div></div>,,go,,95563,0.0,practice_trial,57,stop-signal,,3.0
58,,,,,,,,500.0,,,,,,stop_signal_with_predictable_task_switching,,,,,,0.0-0.0-58.0,-1.0,,,,none,,,,-1,500.0,"<div class = fb_box><div class = center-text><font size = 20>Correct!</font></div></div><div class = prompt_box><p class = center-block-text style = ""font-size:16px; line-height:80%;"">Do not respond if a star appears!</p><p class = center-block-text style = ""font-size:16px; line-height:80%;"">Top 2 quadrants: Judge number on magnitude</p><p class = center-block-text style = ""font-size:16px; line-height:80%;"">high: M Key | low: Z Key</p><p class = center-block-text style = ""font-size:16px; line-height:80%;"">Bottom 2 quadrants: Judge number on parity</p><p class = center-block-text style = ""font-size:16px; line-height:80%;"">even: M Key | odd: Z Key</p></div>",,,,96069,0.0,practice-stop-feedback,58,poldrack-single-stim,,
59,,,,,,,,500.0,,,,,,stop_signal_with_predictable_task_switching,,,,,,0.0-0.0-59.0,-1.0,,,,none,,,,-1,500.0,<div class = bigbox><div class = quad_box><div class = decision-bottom-left><div class = fixation>+</div></div></div></div>,,,,96575,0.0,practice_fixation,59,poldrack-single-stim,,
60,300.0,300.0,300.0,500.0,<div class = bigbox><div class = quad_box><div class = decision-bottom-left><img class = center src='/static/experiments/stop_signal_with_predictable_task_switching/images/stopSignal.png'></img></div></div></div>,stop,,2000.0,,-1.0,0.0,0.0,20.0,stop_signal_with_predictable_task_switching,,,,,,0.0-0.0-60.0,90.0,low,3.0,odd,"[77, 90]",stay,parity,,617,1000.0,<div class = bigbox><div class = quad_box><div class = decision-bottom-left><div class = gng_number><div class = cue-text><img class = center src='/static/experiments/stop_signal_with_predictable_task_switching/images/3.png'></img></div></div></div></div></div>,0.0,stop,,98577,0.0,practice_trial,60,stop-signal,,4.0
61,,,,,,,,500.0,,,,,,stop_signal_with_predictable_task_switching,,,,,,0.0-0.0-61.0,-1.0,,,,none,,,,-1,500.0,"<div class = fb_box><div class = center-text><font size = 20>There was a star.</font></div></div><div class = prompt_box><p class = center-block-text style = ""font-size:16px; line-height:80%;"">Do not respond if a star appears!</p><p class = center-block-text style = ""font-size:16px; line-height:80%;"">Top 2 quadrants: Judge number on magnitude</p><p class = center-block-text style = ""font-size:16px; line-height:80%;"">high: M Key | low: Z Key</p><p class = center-block-text style = ""font-size:16px; line-height:80%;"">Bottom 2 quadrants: Judge number on parity</p><p class = center-block-text style = ""font-size:16px; line-height:80%;"">even: M Key | odd: Z Key</p></div>",,,,99081,0.0,practice-stop-feedback,61,poldrack-single-stim,,
62,,,,,,,,500.0,,,,,,stop_signal_with_predictable_task_switching,,,,,,0.0-0.0-62.0,-1.0,,,,none,,,,-1,500.0,<div class = bigbox><div class = quad_box><div class = decision-top-left><div class = fixation>+</div></div></div></div>,,,,99588,0.0,practice_fixation,62,poldrack-single-stim,,
63,250.0,300.0,300.0,500.0,<div class = bigbox><div class = quad_box><div class = decision-top-left><img class = center src='/static/experiments/stop_signal_with_predictable_task_switching/images/stopSignal.png'></img></div></div></div>,go,,2000.0,,77.0,1.0,0.0,21.0,stop_signal_with_predictable_task_switching,,,,,,0.0-0.0-63.0,77.0,high,6.0,even,"[77, 90]",switch,magnitude,,753,1000.0,<div class = bigbox><div class = quad_box><div class = decision-top-left><div class = gng_number><div class = cue-text><img class = center src='/static/experiments/stop_signal_with_predictable_task_switching/images/6.png'></img></div></div></div></div></div>,,go,,101596,0.0,practice_trial,63,stop-signal,,1.0
64,,,,,,,,500.0,,,,,,stop_signal_with_predictable_task_switching,,,,,,0.0-0.0-64.0,-1.0,,,,none,,,,-1,500.0,"<div class = fb_box><div class = center-text><font size = 20>Correct!</font></div></div><div class = prompt_box><p class = center-block-text style = ""font-size:16px; line-height:80%;"">Do not respond if a star appears!</p><p class = center-block-text style = ""font-size:16px; line-height:80%;"">Top 2 quadrants: Judge number on magnitude</p><p class = center-block-text style = ""font-size:16px; line-height:80%;"">high: M Key | low: Z Key</p><p class = center-block-text style = ""font-size:16px; line-height:80%;"">Bottom 2 quadrants: Judge number on parity</p><p class = center-block-text style = ""font-size:16px; line-height:80%;"">even: M Key | odd: Z Key</p></div>",,,,102100,0.0,practice-stop-feedback,64,poldrack-single-stim,,
65,,,,,,,,500.0,,,,,,stop_signal_with_predictable_task_switching,,,,,,0.0-0.0-65.0,-1.0,,,,none,,,,-1,500.0,<div class = bigbox><div class = quad_box><div class = decision-top-right><div class = fixation>+</div></div></div></div>,,,,102606,0.0,practice_fixation,65,poldrack-single-stim,,
66,250.0,300.0,250.0,500.0,<div class = bigbox><div class = quad_box><div class = decision-top-right><img class = center src='/static/experiments/stop_signal_with_predictable_task_switching/images/stopSignal.png'></img></div></div></div>,go,,2000.0,,77.0,1.0,0.0,22.0,stop_signal_with_predictable_task_switching,,,,,,0.0-0.0-66.0,77.0,high,8.0,even,"[77, 90]",stay,magnitude,,774,1000.0,<div class = bigbox><div class = quad_box><div class = decision-top-right><div class = gng_number><div class = cue-text><img class = center src='/static/experiments/stop_signal_with_predictable_task_switching/images/8.png'></img></div></div></div></div></div>,,go,,104611,0.0,practice_trial,66,stop-signal,,2.0
67,,,,,,,,500.0,,,,,,stop_signal_with_predictable_task_switching,,,,,,0.0-0.0-67.0,-1.0,,,,none,,,,-1,500.0,"<div class = fb_box><div class = center-text><font size = 20>Correct!</font></div></div><div class = prompt_box><p class = center-block-text style = ""font-size:16px; line-height:80%;"">Do not respond if a star appears!</p><p class = center-block-text style = ""font-size:16px; line-height:80%;"">Top 2 quadrants: Judge number on magnitude</p><p class = center-block-text style = ""font-size:16px; line-height:80%;"">high: M Key | low: Z Key</p><p class = center-block-text style = ""font-size:16px; line-height:80%;"">Bottom 2 quadrants: Judge number on parity</p><p class = center-block-text style = ""font-size:16px; line-height:80%;"">even: M Key | odd: Z Key</p></div>",,,,105118,0.0,practice-stop-feedback,67,poldrack-single-stim,,
68,,,,,,,,500.0,,,,,,stop_signal_with_predictable_task_switching,,,,,,0.0-0.0-68.0,-1.0,,,,none,,,,-1,500.0,<div class = bigbox><div class = quad_box><div class = decision-bottom-right><div class = fixation>+</div></div></div></div>,,,,105624,0.0,practice_fixation,68,poldrack-single-stim,,
69,250.0,300.0,300.0,500.0,<div class = bigbox><div class = quad_box><div class = decision-bottom-right><img class = center src='/static/experiments/stop_signal_with_predictable_task_switching/images/stopSignal.png'></img></div></div></div>,go,,2000.0,,77.0,1.0,0.0,23.0,stop_signal_with_predictable_task_switching,,,,,,0.0-0.0-69.0,77.0,high,8.0,even,"[77, 90]",switch,parity,,606,1000.0,<div class = bigbox><div class = quad_box><div class = decision-bottom-right><div class = gng_number><div class = cue-text><img class = center src='/static/experiments/stop_signal_with_predictable_task_switching/images/8.png'></img></div></div></div></div></div>,,go,,107627,0.0,practice_trial,69,stop-signal,,3.0
70,,,,,,,,500.0,,,,,,stop_signal_with_predictable_task_switching,,,,,,0.0-0.0-70.0,-1.0,,,,none,,,,-1,500.0,"<div class = fb_box><div class = center-text><font size = 20>Correct!</font></div></div><div class = prompt_box><p class = center-block-text style = ""font-size:16px; line-height:80%;"">Do not respond if a star appears!</p><p class = center-block-text style = ""font-size:16px; line-height:80%;"">Top 2 quadrants: Judge number on magnitude</p><p class = center-block-text style = ""font-size:16px; line-height:80%;"">high: M Key | low: Z Key</p><p class = center-block-text style = ""font-size:16px; line-height:80%;"">Bottom 2 quadrants: Judge number on parity</p><p class = center-block-text style = ""font-size:16px; line-height:80%;"">even: M Key | odd: Z Key</p></div>",,,,108131,0.0,practice-stop-feedback,70,poldrack-single-stim,,
71,,,,,,,,500.0,,,,,,stop_signal_with_predictable_task_switching,,,,,,0.0-0.0-71.0,-1.0,,,,none,,,,-1,500.0,<div class = bigbox><div class = quad_box><div class = decision-bottom-left><div class = fixation>+</div></div></div></div>,,,,108636,0.0,practice_fixation,71,poldrack-single-stim,,
72,250.0,300.0,250.0,500.0,<div class = bigbox><div class = quad_box><div class = decision-bottom-left><img class = center src='/static/experiments/stop_signal_with_predictable_task_switching/images/stopSignal.png'></img></div></div></div>,go,,2000.0,,77.0,0.0,0.0,24.0,stop_signal_with_predictable_task_switching,,,,,,0.0-0.0-72.0,90.0,low,4.0,even,"[77, 90]",stay,parity,,1018,1000.0,<div class = bigbox><div class = quad_box><div class = decision-bottom-left><div class = gng_number><div class = cue-text><img class = center src='/static/experiments/stop_signal_with_predictable_task_switching/images/4.png'></img></div></div></div></div></div>,,go,,110638,0.0,practice_trial,72,stop-signal,,4.0
73,,,,,,,,500.0,,,,,,stop_signal_with_predictable_task_switching,,,,,,0.0-0.0-73.0,-1.0,,,,none,,,,-1,500.0,"<div class = fb_box><div class = center-text><font size = 20>Incorrect</font></div></div><div class = prompt_box><p class = center-block-text style = ""font-size:16px; line-height:80%;"">Do not respond if a star appears!</p><p class = center-block-text style = ""font-size:16px; line-height:80%;"">Top 2 quadrants: Judge number on magnitude</p><p class = center-block-text style = ""font-size:16px; line-height:80%;"">high: M Key | low: Z Key</p><p class = center-block-text style = ""font-size:16px; line-height:80%;"">Bottom 2 quadrants: Judge number on parity</p><p class = center-block-text style = ""font-size:16px; line-height:80%;"">even: M Key | odd: Z Key</p></div>",,,,111143,0.0,practice-stop-feedback,73,poldrack-single-stim,,
74,,,,,,,,500.0,,,,,,stop_signal_with_predictable_task_switching,,,,,,0.0-0.0-74.0,-1.0,,,,none,,,,-1,500.0,<div class = bigbox><div class = quad_box><div class = decision-top-left><div class = fixation>+</div></div></div></div>,,,,111645,0.0,practice_fixation,74,poldrack-single-stim,,
75,250.0,300.0,300.0,500.0,<div class = bigbox><div class = quad_box><div class = decision-top-left><img class = center src='/static/experiments/stop_signal_with_predictable_task_switching/images/stopSignal.png'></img></div></div></div>,stop,,2000.0,,-1.0,1.0,0.0,25.0,stop_signal_with_predictable_task_switching,,,,,,0.0-0.0-75.0,-1.0,low,2.0,even,"[77, 90]",switch,magnitude,,-1,1000.0,<div class = bigbox><div class = quad_box><div class = decision-top-left><div class = gng_number><div class = cue-text><img class = center src='/static/experiments/stop_signal_with_predictable_task_switching/images/2.png'></img></div></div></div></div></div>,1.0,stop,,113651,0.0,practice_trial,75,stop-signal,,1.0
76,,,,,,,,500.0,,,,,,stop_signal_with_predictable_task_switching,,,,,,0.0-0.0-76.0,-1.0,,,,none,,,,-1,500.0,"<div class = fb_box><div class = center-text><font size = 20>Correct!</font></div></div><div class = prompt_box><p class = center-block-text style = ""font-size:16px; line-height:80%;"">Do not respond if a star appears!</p><p class = center-block-text style = ""font-size:16px; line-height:80%;"">Top 2 quadrants: Judge number on magnitude</p><p class = center-block-text style = ""font-size:16px; line-height:80%;"">high: M Key | low: Z Key</p><p class = center-block-text style = ""font-size:16px; line-height:80%;"">Bottom 2 quadrants: Judge number on parity</p><p class = center-block-text style = ""font-size:16px; line-height:80%;"">even: M Key | odd: Z Key</p></div>",,,,114158,0.0,practice-stop-feedback,76,poldrack-single-stim,,
77,,,,,,,,2020.0,,,,,,stop_signal_with_predictable_task_switching,,,,,,0.0-1.0,13.0,,,,[13],,,,2020,2020.0,<div class = bigbox><div class = picture_box><p class = block-text><br>Please take this time to read your feedback and to take a short break! Press enter to continue</p><p class = block-text>Done with this practice. Press Enter to continue.</p></div></div>,,,,116181,0.0,feedback_block,77,poldrack-single-stim,,
78,,,,,,,,4773.0,,,,,,stop_signal_with_predictable_task_switching,,,,,,0.0-2.0,13.0,,,,,,,,4773,,,,,"<div class = centerbox><p class = block-text>We will now start the test portion</p><p class = block-text>Please judge the number on magnitude (higher or lower than 5) or parity (odd or even), depending on which quadrant the numbers are in.</p><p class = block-text>In the top two quadrants, please judge the number based on <i>magnitude</i>. Press the <i>M Key  if high</i>, and the <i>Z Key  if low</i>.</p><p class = block-text>In the bottom two quadrants, please judge the number based on <i>parity.</i> Press the <i>M Key if even</i>, and the <i>Z Key if odd</i>.</p><p class = block-text>On some trials, you will see a star appear at the same time, or shortly after, the number. <i>Do not respond if you see a star.</i>  Do not slow down your responses in order to wait for the star.</p><p class = block-text>You will no longer receive the rule prompt, so remember the instructions before you continue. Press Enter to begin.</p></div>",120956,1000.0,instruction,78,poldrack-text,,
79,,,,,,,,1020.0,,,,,,stop_signal_with_predictable_task_switching,,,,,,0.0-3.0-0.0,13.0,,,,[13],,,,1020,1020.0,<div class = bigbox><div class = picture_box><p class = block-text>We will now start the test portion. Press enter to begin.</p></div></div>,,,,122981,0.0,feedback_block,79,poldrack-single-stim,,
80,,,,,,,,3386.0,True,51.0,,,,stop_signal_with_predictable_task_switching,,,,,,0.0-3.0-1.0-0.0,51.0,,,,[],,,,3386,3386.0,<p>Press the number corresponding to the number of sides that a triangle has.<p>,,,,126368,200.0,attention_check,80,attention-check,,
81,,,,,,,,500.0,,,,,,stop_signal_with_predictable_task_switching,,,,,,0.0-3.0-2.0,-1.0,,,,none,,,,-1,500.0,<div class = bigbox><div class = quad_box><div class = decision-top-left><div class = fixation>+</div></div></div></div>,,,,127077,0.0,test_fixation,81,poldrack-single-stim,,
82,250.0,350.0,,500.0,<div class = bigbox><div class = quad_box><div class = decision-top-left><img class = center src='/static/experiments/stop_signal_with_predictable_task_switching/images/stopSignal.png'></img></div></div></div>,stop,,2000.0,,-1.0,0.0,0.0,1.0,stop_signal_with_predictable_task_switching,,,,,,0.0-3.0-3.0,90.0,low,3.0,odd,"[77, 90]",N/A,magnitude,,1189,1000.0,<div class = bigbox><div class = quad_box><div class = decision-top-left><div class = gng_number><div class = cue-text><img class = center src='/static/experiments/stop_signal_with_predictable_task_switching/images/3.png'></img></div></div></div></div></div>,,stop,,129080,0.0,test_trial,82,stop-signal,,1.0
83,,,,,,,,500.0,,,,,,stop_signal_with_predictable_task_switching,,,,,,0.0-3.0-4.0,-1.0,,,,none,,,,-1,500.0,<div class = bigbox><div class = quad_box><div class = decision-top-right><div class = fixation>+</div></div></div></div>,,,,129583,0.0,test_fixation,83,poldrack-single-stim,,
84,250.0,350.0,250.0,500.0,<div class = bigbox><div class = quad_box><div class = decision-top-right><img class = center src='/static/experiments/stop_signal_with_predictable_task_switching/images/stopSignal.png'></img></div></div></div>,go,,2000.0,,90.0,1.0,0.0,2.0,stop_signal_with_predictable_task_switching,,,,,,0.0-3.0-5.0,90.0,low,2.0,even,"[77, 90]",stay,magnitude,,772,1000.0,<div class = bigbox><div class = quad_box><div class = decision-top-right><div class = gng_number><div class = cue-text><img class = center src='/static/experiments/stop_signal_with_predictable_task_switching/images/2.png'></img></div></div></div></div></div>,,go,,131588,0.0,test_trial,84,stop-signal,,2.0
85,,,,,,,,500.0,,,,,,stop_signal_with_predictable_task_switching,,,,,,0.0-3.0-6.0,-1.0,,,,none,,,,-1,500.0,<div class = bigbox><div class = quad_box><div class = decision-bottom-right><div class = fixation>+</div></div></div></div>,,,,132094,0.0,test_fixation,85,poldrack-single-stim,,
86,250.0,350.0,350.0,500.0,<div class = bigbox><div class = quad_box><div class = decision-bottom-right><img class = center src='/static/experiments/stop_signal_with_predictable_task_switching/images/stopSignal.png'></img></div></div></div>,go,,2000.0,,77.0,1.0,0.0,3.0,stop_signal_with_predictable_task_switching,,,,,,0.0-3.0-7.0,77.0,high,6.0,even,"[77, 90]",switch,parity,,736,1000.0,<div class = bigbox><div class = quad_box><div class = decision-bottom-right><div class = gng_number><div class = cue-text><img class = center src='/static/experiments/stop_signal_with_predictable_task_switching/images/6.png'></img></div></div></div></div></div>,,go,,134096,0.0,test_trial,86,stop-signal,,3.0
87,,,,,,,,500.0,,,,,,stop_signal_with_predictable_task_switching,,,,,,0.0-3.0-8.0,-1.0,,,,none,,,,-1,500.0,<div class = bigbox><div class = quad_box><div class = decision-bottom-left><div class = fixation>+</div></div></div></div>,,,,134600,0.0,test_fixation,87,poldrack-single-stim,,
88,250.0,350.0,250.0,500.0,<div class = bigbox><div class = quad_box><div class = decision-bottom-left><img class = center src='/static/experiments/stop_signal_with_predictable_task_switching/images/stopSignal.png'></img></div></div></div>,stop,,2000.0,,-1.0,0.0,0.0,4.0,stop_signal_with_predictable_task_switching,,,,,,0.0-3.0-9.0,90.0,high,7.0,odd,"[77, 90]",stay,parity,,440,1000.0,<div class = bigbox><div class = quad_box><div class = decision-bottom-left><div class = gng_number><div class = cue-text><img class = center src='/static/experiments/stop_signal_with_predictable_task_switching/images/7.png'></img></div></div></div></div></div>,0.0,stop,,136604,0.0,test_trial,88,stop-signal,,4.0
89,,,,,,,,500.0,,,,,,stop_signal_with_predictable_task_switching,,,,,,0.0-3.0-10.0,-1.0,,,,none,,,,-1,500.0,<div class = bigbox><div class = quad_box><div class = decision-top-left><div class = fixation>+</div></div></div></div>,,,,137108,0.0,test_fixation,89,poldrack-single-stim,,
90,200.0,350.0,350.0,500.0,<div class = bigbox><div class = quad_box><div class = decision-top-left><img class = center src='/static/experiments/stop_signal_with_predictable_task_switching/images/stopSignal.png'></img></div></div></div>,go,,2000.0,,77.0,1.0,0.0,5.0,stop_signal_with_predictable_task_switching,,,,,,0.0-3.0-11.0,77.0,high,8.0,even,"[77, 90]",switch,magnitude,,684,1000.0,<div class = bigbox><div class = quad_box><div class = decision-top-left><div class = gng_number><div class = cue-text><img class = center src='/static/experiments/stop_signal_with_predictable_task_switching/images/8.png'></img></div></div></div></div></div>,,go,,139111,0.0,test_trial,90,stop-signal,,1.0
91,,,,,,,,500.0,,,,,,stop_signal_with_predictable_task_switching,,,,,,0.0-3.0-12.0,-1.0,,,,none,,,,-1,500.0,<div class = bigbox><div class = quad_box><div class = decision-top-right><div class = fixation>+</div></div></div></div>,,,,139616,0.0,test_fixation,91,poldrack-single-stim,,
92,200.0,350.0,200.0,500.0,<div class = bigbox><div class = quad_box><div class = decision-top-right><img class = center src='/static/experiments/stop_signal_with_predictable_task_switching/images/stopSignal.png'></img></div></div></div>,stop,,2000.0,,-1.0,1.0,0.0,6.0,stop_signal_with_predictable_task_switching,,,,,,0.0-3.0-13.0,-1.0,low,4.0,even,"[77, 90]",stay,magnitude,,-1,1000.0,<div class = bigbox><div class = quad_box><div class = decision-top-right><div class = gng_number><div class = cue-text><img class = center src='/static/experiments/stop_signal_with_predictable_task_switching/images/4.png'></img></div></div></div></div></div>,1.0,stop,,141623,0.0,test_trial,92,stop-signal,,2.0
93,,,,,,,,500.0,,,,,,stop_signal_with_predictable_task_switching,,,,,,0.0-3.0-14.0,-1.0,,,,none,,,,-1,500.0,<div class = bigbox><div class = quad_box><div class = decision-bottom-right><div class = fixation>+</div></div></div></div>,,,,142129,0.0,test_fixation,93,poldrack-single-stim,,
94,250.0,350.0,350.0,500.0,<div class = bigbox><div class = quad_box><div class = decision-bottom-right><img class = center src='/static/experiments/stop_signal_with_predictable_task_switching/images/stopSignal.png'></img></div></div></div>,go,,2000.0,,77.0,1.0,0.0,7.0,stop_signal_with_predictable_task_switching,,,,,,0.0-3.0-15.0,77.0,high,8.0,even,"[77, 90]",switch,parity,,626,1000.0,<div class = bigbox><div class = quad_box><div class = decision-bottom-right><div class = gng_number><div class = cue-text><img class = center src='/static/experiments/stop_signal_with_predictable_task_switching/images/8.png'></img></div></div></div></div></div>,,go,,144133,0.0,test_trial,94,stop-signal,,3.0
95,,,,,,,,500.0,,,,,,stop_signal_with_predictable_task_switching,,,,,,0.0-3.0-16.0,-1.0,,,,none,,,,-1,500.0,<div class = bigbox><div class = quad_box><div class = decision-bottom-left><div class = fixation>+</div></div></div></div>,,,,144638,0.0,test_fixation,95,poldrack-single-stim,,
96,250.0,350.0,250.0,500.0,<div class = bigbox><div class = quad_box><div class = decision-bottom-left><img class = center src='/static/experiments/stop_signal_with_predictable_task_switching/images/stopSignal.png'></img></div></div></div>,go,,2000.0,,77.0,1.0,0.0,8.0,stop_signal_with_predictable_task_switching,,,,,,0.0-3.0-17.0,77.0,high,8.0,even,"[77, 90]",stay,parity,,692,1000.0,<div class = bigbox><div class = quad_box><div class = decision-bottom-left><div class = gng_number><div class = cue-text><img class = center src='/static/experiments/stop_signal_with_predictable_task_switching/images/8.png'></img></div></div></div></div></div>,,go,,146644,0.0,test_trial,96,stop-signal,,4.0
97,,,,,,,,500.0,,,,,,stop_signal_with_predictable_task_switching,,,,,,0.0-3.0-18.0,-1.0,,,,none,,,,-1,500.0,<div class = bigbox><div class = quad_box><div class = decision-top-left><div class = fixation>+</div></div></div></div>,,,,147148,0.0,test_fixation,97,poldrack-single-stim,,
98,250.0,350.0,350.0,500.0,<div class = bigbox><div class = quad_box><div class = decision-top-left><img class = center src='/static/experiments/stop_signal_with_predictable_task_switching/images/stopSignal.png'></img></div></div></div>,stop,,2000.0,,-1.0,1.0,0.0,9.0,stop_signal_with_predictable_task_switching,,,,,,0.0-3.0-19.0,-1.0,high,6.0,even,"[77, 90]",switch,magnitude,,-1,1000.0,<div class = bigbox><div class = quad_box><div class = decision-top-left><div class = gng_number><div class = cue-text><img class = center src='/static/experiments/stop_signal_with_predictable_task_switching/images/6.png'></img></div></div></div></div></div>,1.0,stop,,149151,0.0,test_trial,98,stop-signal,,1.0
99,,,,,,,,500.0,,,,,,stop_signal_with_predictable_task_switching,,,,,,0.0-3.0-20.0,-1.0,,,,none,,,,-1,500.0,<div class = bigbox><div class = quad_box><div class = decision-top-right><div class = fixation>+</div></div></div></div>,,,,149655,0.0,test_fixation,99,poldrack-single-stim,,
100,250.0,400.0,250.0,500.0,<div class = bigbox><div class = quad_box><div class = decision-top-right><img class = center src='/static/experiments/stop_signal_with_predictable_task_switching/images/stopSignal.png'></img></div></div></div>,stop,,2000.0,,-1.0,1.0,0.0,10.0,stop_signal_with_predictable_task_switching,,,,,,0.0-3.0-21.0,-1.0,high,8.0,even,"[77, 90]",stay,magnitude,,-1,1000.0,<div class = bigbox><div class = quad_box><div class = decision-top-right><div class = gng_number><div class = cue-text><img class = center src='/static/experiments/stop_signal_with_predictable_task_switching/images/8.png'></img></div></div></div></div></div>,1.0,stop,,151660,0.0,test_trial,100,stop-signal,,2.0
101,,,,,,,,500.0,,,,,,stop_signal_with_predictable_task_switching,,,,,,0.0-3.0-22.0,-1.0,,,,none,,,,-1,500.0,<div class = bigbox><div class = quad_box><div class = decision-bottom-right><div class = fixation>+</div></div></div></div>,,,,152166,0.0,test_fixation,101,poldrack-single-stim,,
102,300.0,400.0,400.0,500.0,<div class = bigbox><div class = quad_box><div class = decision-bottom-right><img class = center src='/static/experiments/stop_signal_with_predictable_task_switching/images/stopSignal.png'></img></div></div></div>,stop,,2000.0,,-1.0,0.0,0.0,11.0,stop_signal_with_predictable_task_switching,,,,,,0.0-3.0-23.0,77.0,high,6.0,even,"[77, 90]",switch,parity,,589,1000.0,<div class = bigbox><div class = quad_box><div class = decision-bottom-right><div class = gng_number><div class = cue-text><img class = center src='/static/experiments/stop_signal_with_predictable_task_switching/images/6.png'></img></div></div></div></div></div>,0.0,stop,,154169,0.0,test_trial,102,stop-signal,,3.0
103,,,,,,,,500.0,,,,,,stop_signal_with_predictable_task_switching,,,,,,0.0-3.0-24.0,-1.0,,,,none,,,,-1,500.0,<div class = bigbox><div class = quad_box><div class = decision-bottom-left><div class = fixation>+</div></div></div></div>,,,,154673,0.0,test_fixation,103,poldrack-single-stim,,
104,300.0,350.0,300.0,500.0,<div class = bigbox><div class = quad_box><div class = decision-bottom-left><img class = center src='/static/experiments/stop_signal_with_predictable_task_switching/images/stopSignal.png'></img></div></div></div>,go,,2000.0,,77.0,0.0,0.0,12.0,stop_signal_with_predictable_task_switching,,,,,,0.0-3.0-25.0,90.0,low,2.0,even,"[77, 90]",stay,parity,,769,1000.0,<div class = bigbox><div class = quad_box><div class = decision-bottom-left><div class = gng_number><div class = cue-text><img class = center src='/static/experiments/stop_signal_with_predictable_task_switching/images/2.png'></img></div></div></div></div></div>,,go,,156676,0.0,test_trial,104,stop-signal,,4.0
105,,,,,,,,500.0,,,,,,stop_signal_with_predictable_task_switching,,,,,,0.0-3.0-26.0,-1.0,,,,none,,,,-1,500.0,<div class = bigbox><div class = quad_box><div class = decision-top-left><div class = fixation>+</div></div></div></div>,,,,157181,0.0,test_fixation,105,poldrack-single-stim,,
106,300.0,350.0,350.0,500.0,<div class = bigbox><div class = quad_box><div class = decision-top-left><img class = center src='/static/experiments/stop_signal_with_predictable_task_switching/images/stopSignal.png'></img></div></div></div>,go,,2000.0,,90.0,1.0,0.0,13.0,stop_signal_with_predictable_task_switching,,,,,,0.0-3.0-27.0,90.0,low,3.0,odd,"[77, 90]",switch,magnitude,,774,1000.0,<div class = bigbox><div class = quad_box><div class = decision-top-left><div class = gng_number><div class = cue-text><img class = center src='/static/experiments/stop_signal_with_predictable_task_switching/images/3.png'></img></div></div></div></div></div>,,go,,159184,0.0,test_trial,106,stop-signal,,1.0
107,,,,,,,,500.0,,,,,,stop_signal_with_predictable_task_switching,,,,,,0.0-3.0-28.0,-1.0,,,,none,,,,-1,500.0,<div class = bigbox><div class = quad_box><div class = decision-top-right><div class = fixation>+</div></div></div></div>,,,,159689,0.0,test_fixation,107,poldrack-single-stim,,
108,300.0,350.0,300.0,500.0,<div class = bigbox><div class = quad_box><div class = decision-top-right><img class = center src='/static/experiments/stop_signal_with_predictable_task_switching/images/stopSignal.png'></img></div></div></div>,go,,2000.0,,90.0,1.0,0.0,14.0,stop_signal_with_predictable_task_switching,,,,,,0.0-3.0-29.0,90.0,low,1.0,odd,"[77, 90]",stay,magnitude,,553,1000.0,<div class = bigbox><div class = quad_box><div class = decision-top-right><div class = gng_number><div class = cue-text><img class = center src='/static/experiments/stop_signal_with_predictable_task_switching/images/1.png'></img></div></div></div></div></div>,,go,,161694,0.0,test_trial,108,stop-signal,,2.0
109,,,,,,,,500.0,,,,,,stop_signal_with_predictable_task_switching,,,,,,0.0-3.0-30.0,-1.0,,,,none,,,,-1,500.0,<div class = bigbox><div class = quad_box><div class = decision-bottom-right><div class = fixation>+</div></div></div></div>,,,,162197,0.0,test_fixation,109,poldrack-single-stim,,
110,300.0,350.0,350.0,500.0,<div class = bigbox><div class = quad_box><div class = decision-bottom-right><img class = center src='/static/experiments/stop_signal_with_predictable_task_switching/images/stopSignal.png'></img></div></div></div>,go,,2000.0,,77.0,1.0,0.0,15.0,stop_signal_with_predictable_task_switching,,,,,,0.0-3.0-31.0,77.0,high,6.0,even,"[77, 90]",switch,parity,,570,1000.0,<div class = bigbox><div class = quad_box><div class = decision-bottom-right><div class = gng_number><div class = cue-text><img class = center src='/static/experiments/stop_signal_with_predictable_task_switching/images/6.png'></img></div></div></div></div></div>,,go,,164198,0.0,test_trial,110,stop-signal,,3.0
111,,,,,,,,500.0,,,,,,stop_signal_with_predictable_task_switching,,,,,,0.0-3.0-32.0,-1.0,,,,none,,,,-1,500.0,<div class = bigbox><div class = quad_box><div class = decision-bottom-left><div class = fixation>+</div></div></div></div>,,,,164704,0.0,test_fixation,111,poldrack-single-stim,,
112,300.0,350.0,300.0,500.0,<div class = bigbox><div class = quad_box><div class = decision-bottom-left><img class = center src='/static/experiments/stop_signal_with_predictable_task_switching/images/stopSignal.png'></img></div></div></div>,go,,2000.0,,77.0,1.0,0.0,16.0,stop_signal_with_predictable_task_switching,,,,,,0.0-3.0-33.0,77.0,low,4.0,even,"[77, 90]",stay,parity,,463,1000.0,<div class = bigbox><div class = quad_box><div class = decision-bottom-left><div class = gng_number><div class = cue-text><img class = center src='/static/experiments/stop_signal_with_predictable_task_switching/images/4.png'></img></div></div></div></div></div>,,go,,166706,0.0,test_trial,112,stop-signal,,4.0
113,,,,,,,,500.0,,,,,,stop_signal_with_predictable_task_switching,,,,,,0.0-3.0-34.0,-1.0,,,,none,,,,-1,500.0,<div class = bigbox><div class = quad_box><div class = decision-top-left><div class = fixation>+</div></div></div></div>,,,,167212,0.0,test_fixation,113,poldrack-single-stim,,
114,300.0,350.0,350.0,500.0,<div class = bigbox><div class = quad_box><div class = decision-top-left><img class = center src='/static/experiments/stop_signal_with_predictable_task_switching/images/stopSignal.png'></img></div></div></div>,go,,2000.0,,77.0,1.0,0.0,17.0,stop_signal_with_predictable_task_switching,,,,,,0.0-3.0-35.0,77.0,high,8.0,even,"[77, 90]",switch,magnitude,,568,1000.0,<div class = bigbox><div class = quad_box><div class = decision-top-left><div class = gng_number><div class = cue-text><img class = center src='/static/experiments/stop_signal_with_predictable_task_switching/images/8.png'></img></div></div></div></div></div>,,go,,169218,0.0,test_trial,114,stop-signal,,1.0
115,,,,,,,,500.0,,,,,,stop_signal_with_predictable_task_switching,,,,,,0.0-3.0-36.0,-1.0,,,,none,,,,-1,500.0,<div class = bigbox><div class = quad_box><div class = decision-top-right><div class = fixation>+</div></div></div></div>,,,,169720,0.0,test_fixation,115,poldrack-single-stim,,
116,300.0,350.0,300.0,500.0,<div class = bigbox><div class = quad_box><div class = decision-top-right><img class = center src='/static/experiments/stop_signal_with_predictable_task_switching/images/stopSignal.png'></img></div></div></div>,go,,2000.0,,90.0,1.0,0.0,18.0,stop_signal_with_predictable_task_switching,,,,,,0.0-3.0-37.0,90.0,low,2.0,even,"[77, 90]",stay,magnitude,,685,1000.0,<div class = bigbox><div class = quad_box><div class = decision-top-right><div class = gng_number><div class = cue-text><img class = center src='/static/experiments/stop_signal_with_predictable_task_switching/images/2.png'></img></div></div></div></div></div>,,go,,171726,0.0,test_trial,116,stop-signal,,2.0
117,,,,,,,,500.0,,,,,,stop_signal_with_predictable_task_switching,,,,,,0.0-3.0-38.0,-1.0,,,,none,,,,-1,500.0,<div class = bigbox><div class = quad_box><div class = decision-bottom-right><div class = fixation>+</div></div></div></div>,,,,172232,0.0,test_fixation,117,poldrack-single-stim,,
118,300.0,350.0,350.0,500.0,<div class = bigbox><div class = quad_box><div class = decision-bottom-right><img class = center src='/static/experiments/stop_signal_with_predictable_task_switching/images/stopSignal.png'></img></div></div></div>,go,,2000.0,,90.0,1.0,0.0,19.0,stop_signal_with_predictable_task_switching,,,,,,0.0-3.0-39.0,90.0,high,7.0,odd,"[77, 90]",switch,parity,,885,1000.0,<div class = bigbox><div class = quad_box><div class = decision-bottom-right><div class = gng_number><div class = cue-text><img class = center src='/static/experiments/stop_signal_with_predictable_task_switching/images/7.png'></img></div></div></div></div></div>,,go,,174236,0.0,test_trial,118,stop-signal,,3.0
119,,,,,,,,500.0,,,,,,stop_signal_with_predictable_task_switching,,,,,,0.0-3.0-40.0,-1.0,,,,none,,,,-1,500.0,<div class = bigbox><div class = quad_box><div class = decision-bottom-left><div class = fixation>+</div></div></div></div>,,,,174739,0.0,test_fixation,119,poldrack-single-stim,,
120,300.0,350.0,300.0,500.0,<div class = bigbox><div class = quad_box><div class = decision-bottom-left><img class = center src='/static/experiments/stop_signal_with_predictable_task_switching/images/stopSignal.png'></img></div></div></div>,go,,2000.0,,90.0,1.0,0.0,20.0,stop_signal_with_predictable_task_switching,,,,,,0.0-3.0-41.0,90.0,high,9.0,odd,"[77, 90]",stay,parity,,566,1000.0,<div class = bigbox><div class = quad_box><div class = decision-bottom-left><div class = gng_number><div class = cue-text><img class = center src='/static/experiments/stop_signal_with_predictable_task_switching/images/9.png'></img></div></div></div></div></div>,,go,,176745,0.0,test_trial,120,stop-signal,,4.0
121,,,,,,,,500.0,,,,,,stop_signal_with_predictable_task_switching,,,,,,0.0-3.0-42.0,-1.0,,,,none,,,,-1,500.0,<div class = bigbox><div class = quad_box><div class = decision-top-left><div class = fixation>+</div></div></div></div>,,,,177248,0.0,test_fixation,121,poldrack-single-stim,,
122,300.0,350.0,350.0,500.0,<div class = bigbox><div class = quad_box><div class = decision-top-left><img class = center src='/static/experiments/stop_signal_with_predictable_task_switching/images/stopSignal.png'></img></div></div></div>,stop,,2000.0,,-1.0,0.0,0.0,21.0,stop_signal_with_predictable_task_switching,,,,,,0.0-3.0-43.0,77.0,high,6.0,even,"[77, 90]",switch,magnitude,,719,1000.0,<div class = bigbox><div class = quad_box><div class = decision-top-left><div class = gng_number><div class = cue-text><img class = center src='/static/experiments/stop_signal_with_predictable_task_switching/images/6.png'></img></div></div></div></div></div>,0.0,stop,,179252,0.0,test_trial,122,stop-signal,,1.0
123,,,,,,,,500.0,,,,,,stop_signal_with_predictable_task_switching,,,,,,0.0-3.0-44.0,-1.0,,,,none,,,,-1,500.0,<div class = bigbox><div class = quad_box><div class = decision-top-right><div class = fixation>+</div></div></div></div>,,,,179756,0.0,test_fixation,123,poldrack-single-stim,,
124,300.0,300.0,300.0,500.0,<div class = bigbox><div class = quad_box><div class = decision-top-right><img class = center src='/static/experiments/stop_signal_with_predictable_task_switching/images/stopSignal.png'></img></div></div></div>,go,,2000.0,,90.0,1.0,0.0,22.0,stop_signal_with_predictable_task_switching,,,,,,0.0-3.0-45.0,90.0,low,1.0,odd,"[77, 90]",stay,magnitude,,586,1000.0,<div class = bigbox><div class = quad_box><div class = decision-top-right><div class = gng_number><div class = cue-text><img class = center src='/static/experiments/stop_signal_with_predictable_task_switching/images/1.png'></img></div></div></div></div></div>,,go,,181759,0.0,test_trial,124,stop-signal,,2.0
125,,,,,,,,500.0,,,,,,stop_signal_with_predictable_task_switching,,,,,,0.0-3.0-46.0,-1.0,,,,none,,,,-1,500.0,<div class = bigbox><div class = quad_box><div class = decision-bottom-right><div class = fixation>+</div></div></div></div>,,,,182265,0.0,test_fixation,125,poldrack-single-stim,,
126,300.0,300.0,300.0,500.0,<div class = bigbox><div class = quad_box><div class = decision-bottom-right><img class = center src='/static/experiments/stop_signal_with_predictable_task_switching/images/stopSignal.png'></img></div></div></div>,stop,,2000.0,,-1.0,1.0,0.0,23.0,stop_signal_with_predictable_task_switching,,,,,,0.0-3.0-47.0,-1.0,low,4.0,even,"[77, 90]",switch,parity,,-1,1000.0,<div class = bigbox><div class = quad_box><div class = decision-bottom-right><div class = gng_number><div class = cue-text><img class = center src='/static/experiments/stop_signal_with_predictable_task_switching/images/4.png'></img></div></div></div></div></div>,1.0,stop,,184268,0.0,test_trial,126,stop-signal,,3.0
127,,,,,,,,500.0,,,,,,stop_signal_with_predictable_task_switching,,,,,,0.0-3.0-48.0,-1.0,,,,none,,,,-1,500.0,<div class = bigbox><div class = quad_box><div class = decision-bottom-left><div class = fixation>+</div></div></div></div>,,,,184771,0.0,test_fixation,127,poldrack-single-stim,,
128,300.0,350.0,300.0,500.0,<div class = bigbox><div class = quad_box><div class = decision-bottom-left><img class = center src='/static/experiments/stop_signal_with_predictable_task_switching/images/stopSignal.png'></img></div></div></div>,stop,,2000.0,,-1.0,1.0,0.0,24.0,stop_signal_with_predictable_task_switching,,,,,,0.0-3.0-49.0,-1.0,high,7.0,odd,"[77, 90]",stay,parity,,-1,1000.0,<div class = bigbox><div class = quad_box><div class = decision-bottom-left><div class = gng_number><div class = cue-text><img class = center src='/static/experiments/stop_signal_with_predictable_task_switching/images/7.png'></img></div></div></div></div></div>,1.0,stop,,186778,0.0,test_trial,128,stop-signal,,4.0
129,,,,,,,,500.0,,,,,,stop_signal_with_predictable_task_switching,,,,,,0.0-3.0-50.0,-1.0,,,,none,,,,-1,500.0,<div class = bigbox><div class = quad_box><div class = decision-top-left><div class = fixation>+</div></div></div></div>,,,,187282,0.0,test_fixation,129,poldrack-single-stim,,
130,350.0,350.0,350.0,500.0,<div class = bigbox><div class = quad_box><div class = decision-top-left><img class = center src='/static/experiments/stop_signal_with_predictable_task_switching/images/stopSignal.png'></img></div></div></div>,go,,2000.0,,90.0,1.0,0.0,25.0,stop_signal_with_predictable_task_switching,,,,,,0.0-3.0-51.0,90.0,low,2.0,even,"[77, 90]",switch,magnitude,,685,1000.0,<div class = bigbox><div class = quad_box><div class = decision-top-left><div class = gng_number><div class = cue-text><img class = center src='/static/experiments/stop_signal_with_predictable_task_switching/images/2.png'></img></div></div></div></div></div>,,go,,189287,0.0,test_trial,130,stop-signal,,1.0
131,,,,,,,,500.0,,,,,,stop_signal_with_predictable_task_switching,,,,,,0.0-3.0-52.0,-1.0,,,,none,,,,-1,500.0,<div class = bigbox><div class = quad_box><div class = decision-top-right><div class = fixation>+</div></div></div></div>,,,,189793,0.0,test_fixation,131,poldrack-single-stim,,
132,350.0,350.0,350.0,500.0,<div class = bigbox><div class = quad_box><div class = decision-top-right><img class = center src='/static/experiments/stop_signal_with_predictable_task_switching/images/stopSignal.png'></img></div></div></div>,stop,,2000.0,,-1.0,1.0,0.0,26.0,stop_signal_with_predictable_task_switching,,,,,,0.0-3.0-53.0,-1.0,high,8.0,even,"[77, 90]",stay,magnitude,,-1,1000.0,<div class = bigbox><div class = quad_box><div class = decision-top-right><div class = gng_number><div class = cue-text><img class = center src='/static/experiments/stop_signal_with_predictable_task_switching/images/8.png'></img></div></div></div></div></div>,1.0,stop,,191801,0.0,test_trial,132,stop-signal,,2.0
133,,,,,,,,500.0,,,,,,stop_signal_with_predictable_task_switching,,,,,,0.0-3.0-54.0,-1.0,,,,none,,,,-1,500.0,<div class = bigbox><div class = quad_box><div class = decision-bottom-right><div class = fixation>+</div></div></div></div>,,,,192305,0.0,test_fixation,133,poldrack-single-stim,,
134,400.0,350.0,350.0,500.0,<div class = bigbox><div class = quad_box><div class = decision-bottom-right><img class = center src='/static/experiments/stop_signal_with_predictable_task_switching/images/stopSignal.png'></img></div></div></div>,stop,,2000.0,,-1.0,1.0,0.0,27.0,stop_signal_with_predictable_task_switching,,,,,,0.0-3.0-55.0,-1.0,low,2.0,even,"[77, 90]",switch,parity,,-1,1000.0,<div class = bigbox><div class = quad_box><div class = decision-bottom-right><div class = gng_number><div class = cue-text><img class = center src='/static/experiments/stop_signal_with_predictable_task_switching/images/2.png'></img></div></div></div></div></div>,1.0,stop,,194308,0.0,test_trial,134,stop-signal,,3.0
135,,,,,,,,500.0,,,,,,stop_signal_with_predictable_task_switching,,,,,,0.0-3.0-56.0,-1.0,,,,none,,,,-1,500.0,<div class = bigbox><div class = quad_box><div class = decision-bottom-left><div class = fixation>+</div></div></div></div>,,,,194813,0.0,test_fixation,135,poldrack-single-stim,,
136,400.0,400.0,400.0,500.0,<div class = bigbox><div class = quad_box><div class = decision-bottom-left><img class = center src='/static/experiments/stop_signal_with_predictable_task_switching/images/stopSignal.png'></img></div></div></div>,go,,2000.0,,90.0,1.0,0.0,28.0,stop_signal_with_predictable_task_switching,,,,,,0.0-3.0-57.0,90.0,high,9.0,odd,"[77, 90]",stay,parity,,742,1000.0,<div class = bigbox><div class = quad_box><div class = decision-bottom-left><div class = gng_number><div class = cue-text><img class = center src='/static/experiments/stop_signal_with_predictable_task_switching/images/9.png'></img></div></div></div></div></div>,,go,,196816,0.0,test_trial,136,stop-signal,,4.0
137,,,,,,,,500.0,,,,,,stop_signal_with_predictable_task_switching,,,,,,0.0-3.0-58.0,-1.0,,,,none,,,,-1,500.0,<div class = bigbox><div class = quad_box><div class = decision-top-left><div class = fixation>+</div></div></div></div>,,,,197322,0.0,test_fixation,137,poldrack-single-stim,,
138,400.0,400.0,400.0,500.0,<div class = bigbox><div class = quad_box><div class = decision-top-left><img class = center src='/static/experiments/stop_signal_with_predictable_task_switching/images/stopSignal.png'></img></div></div></div>,go,,2000.0,,77.0,0.0,0.0,29.0,stop_signal_with_predictable_task_switching,,,,,,0.0-3.0-59.0,90.0,high,7.0,odd,"[77, 90]",switch,magnitude,,645,1000.0,<div class = bigbox><div class = quad_box><div class = decision-top-left><div class = gng_number><div class = cue-text><img class = center src='/static/experiments/stop_signal_with_predictable_task_switching/images/7.png'></img></div></div></div></div></div>,,go,,199328,0.0,test_trial,138,stop-signal,,1.0
139,,,,,,,,500.0,,,,,,stop_signal_with_predictable_task_switching,,,,,,0.0-3.0-60.0,-1.0,,,,none,,,,-1,500.0,<div class = bigbox><div class = quad_box><div class = decision-top-right><div class = fixation>+</div></div></div></div>,,,,199835,0.0,test_fixation,139,poldrack-single-stim,,
140,400.0,400.0,400.0,500.0,<div class = bigbox><div class = quad_box><div class = decision-top-right><img class = center src='/static/experiments/stop_signal_with_predictable_task_switching/images/stopSignal.png'></img></div></div></div>,go,,2000.0,,90.0,1.0,0.0,30.0,stop_signal_with_predictable_task_switching,,,,,,0.0-3.0-61.0,90.0,low,2.0,even,"[77, 90]",stay,magnitude,,557,1000.0,<div class = bigbox><div class = quad_box><div class = decision-top-right><div class = gng_number><div class = cue-text><img class = center src='/static/experiments/stop_signal_with_predictable_task_switching/images/2.png'></img></div></div></div></div></div>,,go,,201836,0.0,test_trial,140,stop-signal,,2.0
141,,,,,,,,500.0,,,,,,stop_signal_with_predictable_task_switching,,,,,,0.0-3.0-62.0,-1.0,,,,none,,,,-1,500.0,<div class = bigbox><div class = quad_box><div class = decision-bottom-right><div class = fixation>+</div></div></div></div>,,,,202340,0.0,test_fixation,141,poldrack-single-stim,,
142,400.0,400.0,400.0,500.0,<div class = bigbox><div class = quad_box><div class = decision-bottom-right><img class = center src='/static/experiments/stop_signal_with_predictable_task_switching/images/stopSignal.png'></img></div></div></div>,go,,2000.0,,77.0,1.0,0.0,31.0,stop_signal_with_predictable_task_switching,,,,,,0.0-3.0-63.0,77.0,high,8.0,even,"[77, 90]",switch,parity,,477,1000.0,<div class = bigbox><div class = quad_box><div class = decision-bottom-right><div class = gng_number><div class = cue-text><img class = center src='/static/experiments/stop_signal_with_predictable_task_switching/images/8.png'></img></div></div></div></div></div>,,go,,204345,0.0,test_trial,142,stop-signal,,3.0
143,,,,,,,,500.0,,,,,,stop_signal_with_predictable_task_switching,,,,,,0.0-3.0-64.0,-1.0,,,,none,,,,-1,500.0,<div class = bigbox><div class = quad_box><div class = decision-bottom-left><div class = fixation>+</div></div></div></div>,,,,204850,0.0,test_fixation,143,poldrack-single-stim,,
144,400.0,400.0,400.0,500.0,<div class = bigbox><div class = quad_box><div class = decision-bottom-left><img class = center src='/static/experiments/stop_signal_with_predictable_task_switching/images/stopSignal.png'></img></div></div></div>,stop,,2000.0,,-1.0,0.0,0.0,32.0,stop_signal_with_predictable_task_switching,,,,,,0.0-3.0-65.0,90.0,low,3.0,odd,"[77, 90]",stay,parity,,542,1000.0,<div class = bigbox><div class = quad_box><div class = decision-bottom-left><div class = gng_number><div class = cue-text><img class = center src='/static/experiments/stop_signal_with_predictable_task_switching/images/3.png'></img></div></div></div></div></div>,0.0,stop,,206852,0.0,test_trial,144,stop-signal,,4.0
145,,,,,,,,500.0,,,,,,stop_signal_with_predictable_task_switching,,,,,,0.0-3.0-66.0,-1.0,,,,none,,,,-1,500.0,<div class = bigbox><div class = quad_box><div class = decision-top-left><div class = fixation>+</div></div></div></div>,,,,207357,0.0,test_fixation,145,poldrack-single-stim,,
146,350.0,400.0,400.0,500.0,<div class = bigbox><div class = quad_box><div class = decision-top-left><img class = center src='/static/experiments/stop_signal_with_predictable_task_switching/images/stopSignal.png'></img></div></div></div>,go,,2000.0,,90.0,1.0,0.0,33.0,stop_signal_with_predictable_task_switching,,,,,,0.0-3.0-67.0,90.0,low,3.0,odd,"[77, 90]",switch,magnitude,,623,1000.0,<div class = bigbox><div class = quad_box><div class = decision-top-left><div class = gng_number><div class = cue-text><img class = center src='/static/experiments/stop_signal_with_predictable_task_switching/images/3.png'></img></div></div></div></div></div>,,go,,209360,0.0,test_trial,146,stop-signal,,1.0
147,,,,,,,,500.0,,,,,,stop_signal_with_predictable_task_switching,,,,,,0.0-3.0-68.0,-1.0,,,,none,,,,-1,500.0,<div class = bigbox><div class = quad_box><div class = decision-top-right><div class = fixation>+</div></div></div></div>,,,,209865,0.0,test_fixation,147,poldrack-single-stim,,
148,350.0,400.0,350.0,500.0,<div class = bigbox><div class = quad_box><div class = decision-top-right><img class = center src='/static/experiments/stop_signal_with_predictable_task_switching/images/stopSignal.png'></img></div></div></div>,go,,2000.0,,90.0,0.0,0.0,34.0,stop_signal_with_predictable_task_switching,,,,,,0.0-3.0-69.0,77.0,low,2.0,even,"[77, 90]",stay,magnitude,,703,1000.0,<div class = bigbox><div class = quad_box><div class = decision-top-right><div class = gng_number><div class = cue-text><img class = center src='/static/experiments/stop_signal_with_predictable_task_switching/images/2.png'></img></div></div></div></div></div>,,go,,211870,0.0,test_trial,148,stop-signal,,2.0
149,,,,,,,,500.0,,,,,,stop_signal_with_predictable_task_switching,,,,,,0.0-3.0-70.0,-1.0,,,,none,,,,-1,500.0,<div class = bigbox><div class = quad_box><div class = decision-bottom-right><div class = fixation>+</div></div></div></div>,,,,212372,0.0,test_fixation,149,poldrack-single-stim,,
150,350.0,400.0,400.0,500.0,<div class = bigbox><div class = quad_box><div class = decision-bottom-right><img class = center src='/static/experiments/stop_signal_with_predictable_task_switching/images/stopSignal.png'></img></div></div></div>,go,,2000.0,,77.0,1.0,0.0,35.0,stop_signal_with_predictable_task_switching,,,,,,0.0-3.0-71.0,77.0,high,8.0,even,"[77, 90]",switch,parity,,444,1000.0,<div class = bigbox><div class = quad_box><div class = decision-bottom-right><div class = gng_number><div class = cue-text><img class = center src='/static/experiments/stop_signal_with_predictable_task_switching/images/8.png'></img></div></div></div></div></div>,,go,,214375,0.0,test_trial,150,stop-signal,,3.0
151,,,,,,,,500.0,,,,,,stop_signal_with_predictable_task_switching,,,,,,0.0-3.0-72.0,-1.0,,,,none,,,,-1,500.0,<div class = bigbox><div class = quad_box><div class = decision-bottom-left><div class = fixation>+</div></div></div></div>,,,,214880,0.0,test_fixation,151,poldrack-single-stim,,
152,350.0,400.0,350.0,500.0,<div class = bigbox><div class = quad_box><div class = decision-bottom-left><img class = center src='/static/experiments/stop_signal_with_predictable_task_switching/images/stopSignal.png'></img></div></div></div>,go,,2000.0,,90.0,1.0,0.0,36.0,stop_signal_with_predictable_task_switching,,,,,,0.0-3.0-73.0,90.0,high,9.0,odd,"[77, 90]",stay,parity,,600,1000.0,<div class = bigbox><div class = quad_box><div class = decision-bottom-left><div class = gng_number><div class = cue-text><img class = center src='/static/experiments/stop_signal_with_predictable_task_switching/images/9.png'></img></div></div></div></div></div>,,go,,216883,0.0,test_trial,152,stop-signal,,4.0
153,,,,,,,,500.0,,,,,,stop_signal_with_predictable_task_switching,,,,,,0.0-3.0-74.0,-1.0,,,,none,,,,-1,500.0,<div class = bigbox><div class = quad_box><div class = decision-top-left><div class = fixation>+</div></div></div></div>,,,,217388,0.0,test_fixation,153,poldrack-single-stim,,
154,350.0,400.0,400.0,500.0,<div class = bigbox><div class = quad_box><div class = decision-top-left><img class = center src='/static/experiments/stop_signal_with_predictable_task_switching/images/stopSignal.png'></img></div></div></div>,go,,2000.0,,77.0,0.0,0.0,37.0,stop_signal_with_predictable_task_switching,,,,,,0.0-3.0-75.0,90.0,high,8.0,even,"[77, 90]",switch,magnitude,,1242,1000.0,<div class = bigbox><div class = quad_box><div class = decision-top-left><div class = gng_number><div class = cue-text><img class = center src='/static/experiments/stop_signal_with_predictable_task_switching/images/8.png'></img></div></div></div></div></div>,,go,,219393,0.0,test_trial,154,stop-signal,,1.0
155,,,,,,,,500.0,,,,,,stop_signal_with_predictable_task_switching,,,,,,0.0-3.0-76.0,-1.0,,,,none,,,,-1,500.0,<div class = bigbox><div class = quad_box><div class = decision-top-right><div class = fixation>+</div></div></div></div>,,,,219896,0.0,test_fixation,155,poldrack-single-stim,,
156,350.0,400.0,350.0,500.0,<div class = bigbox><div class = quad_box><div class = decision-top-right><img class = center src='/static/experiments/stop_signal_with_predictable_task_switching/images/stopSignal.png'></img></div></div></div>,go,,2000.0,,77.0,1.0,0.0,38.0,stop_signal_with_predictable_task_switching,,,,,,0.0-3.0-77.0,77.0,high,9.0,odd,"[77, 90]",stay,magnitude,,571,1000.0,<div class = bigbox><div class = quad_box><div class = decision-top-right><div class = gng_number><div class = cue-text><img class = center src='/static/experiments/stop_signal_with_predictable_task_switching/images/9.png'></img></div></div></div></div></div>,,go,,221901,0.0,test_trial,156,stop-signal,,2.0
157,,,,,,,,500.0,,,,,,stop_signal_with_predictable_task_switching,,,,,,0.0-3.0-78.0,-1.0,,,,none,,,,-1,500.0,<div class = bigbox><div class = quad_box><div class = decision-bottom-right><div class = fixation>+</div></div></div></div>,,,,222403,0.0,test_fixation,157,poldrack-single-stim,,
158,350.0,400.0,400.0,500.0,<div class = bigbox><div class = quad_box><div class = decision-bottom-right><img class = center src='/static/experiments/stop_signal_with_predictable_task_switching/images/stopSignal.png'></img></div></div></div>,go,,2000.0,,90.0,0.0,0.0,39.0,stop_signal_with_predictable_task_switching,,,,,,0.0-3.0-79.0,77.0,high,9.0,odd,"[77, 90]",switch,parity,,1102,1000.0,<div class = bigbox><div class = quad_box><div class = decision-bottom-right><div class = gng_number><div class = cue-text><img class = center src='/static/experiments/stop_signal_with_predictable_task_switching/images/9.png'></img></div></div></div></div></div>,,go,,224405,0.0,test_trial,158,stop-signal,,3.0
159,,,,,,,,500.0,,,,,,stop_signal_with_predictable_task_switching,,,,,,0.0-3.0-80.0,-1.0,,,,none,,,,-1,500.0,<div class = bigbox><div class = quad_box><div class = decision-bottom-left><div class = fixation>+</div></div></div></div>,,,,224912,0.0,test_fixation,159,poldrack-single-stim,,
160,350.0,400.0,350.0,500.0,<div class = bigbox><div class = quad_box><div class = decision-bottom-left><img class = center src='/static/experiments/stop_signal_with_predictable_task_switching/images/stopSignal.png'></img></div></div></div>,go,,2000.0,,77.0,1.0,0.0,40.0,stop_signal_with_predictable_task_switching,,,,,,0.0-3.0-81.0,77.0,high,8.0,even,"[77, 90]",stay,parity,,755,1000.0,<div class = bigbox><div class = quad_box><div class = decision-bottom-left><div class = gng_number><div class = cue-text><img class = center src='/static/experiments/stop_signal_with_predictable_task_switching/images/8.png'></img></div></div></div></div></div>,,go,,226917,0.0,test_trial,160,stop-signal,,4.0
161,,,,,,,,500.0,,,,,,stop_signal_with_predictable_task_switching,,,,,,0.0-3.0-82.0,-1.0,,,,none,,,,-1,500.0,<div class = bigbox><div class = quad_box><div class = decision-top-left><div class = fixation>+</div></div></div></div>,,,,227421,0.0,test_fixation,161,poldrack-single-stim,,
162,350.0,400.0,400.0,500.0,<div class = bigbox><div class = quad_box><div class = decision-top-left><img class = center src='/static/experiments/stop_signal_with_predictable_task_switching/images/stopSignal.png'></img></div></div></div>,stop,,2000.0,,-1.0,0.0,0.0,41.0,stop_signal_with_predictable_task_switching,,,,,,0.0-3.0-83.0,90.0,high,7.0,odd,"[77, 90]",switch,magnitude,,584,1000.0,<div class = bigbox><div class = quad_box><div class = decision-top-left><div class = gng_number><div class = cue-text><img class = center src='/static/experiments/stop_signal_with_predictable_task_switching/images/7.png'></img></div></div></div></div></div>,0.0,stop,,229427,0.0,test_trial,162,stop-signal,,1.0
163,,,,,,,,500.0,,,,,,stop_signal_with_predictable_task_switching,,,,,,0.0-3.0-84.0,-1.0,,,,none,,,,-1,500.0,<div class = bigbox><div class = quad_box><div class = decision-top-right><div class = fixation>+</div></div></div></div>,,,,229930,0.0,test_fixation,163,poldrack-single-stim,,
164,350.0,350.0,350.0,500.0,<div class = bigbox><div class = quad_box><div class = decision-top-right><img class = center src='/static/experiments/stop_signal_with_predictable_task_switching/images/stopSignal.png'></img></div></div></div>,stop,,2000.0,,-1.0,0.0,0.0,42.0,stop_signal_with_predictable_task_switching,,,,,,0.0-3.0-85.0,90.0,low,1.0,odd,"[77, 90]",stay,magnitude,,549,1000.0,<div class = bigbox><div class = quad_box><div class = decision-top-right><div class = gng_number><div class = cue-text><img class = center src='/static/experiments/stop_signal_with_predictable_task_switching/images/1.png'></img></div></div></div></div></div>,0.0,stop,,231934,0.0,test_trial,164,stop-signal,,2.0
165,,,,,,,,500.0,,,,,,stop_signal_with_predictable_task_switching,,,,,,0.0-3.0-86.0,-1.0,,,,none,,,,-1,500.0,<div class = bigbox><div class = quad_box><div class = decision-bottom-right><div class = fixation>+</div></div></div></div>,,,,232437,0.0,test_fixation,165,poldrack-single-stim,,
166,300.0,350.0,350.0,500.0,<div class = bigbox><div class = quad_box><div class = decision-bottom-right><img class = center src='/static/experiments/stop_signal_with_predictable_task_switching/images/stopSignal.png'></img></div></div></div>,go,,2000.0,,90.0,0.0,0.0,43.0,stop_signal_with_predictable_task_switching,,,,,,0.0-3.0-87.0,77.0,high,9.0,odd,"[77, 90]",switch,parity,,743,1000.0,<div class = bigbox><div class = quad_box><div class = decision-bottom-right><div class = gng_number><div class = cue-text><img class = center src='/static/experiments/stop_signal_with_predictable_task_switching/images/9.png'></img></div></div></div></div></div>,,go,,234442,0.0,test_trial,166,stop-signal,,3.0
167,,,,,,,,500.0,,,,,,stop_signal_with_predictable_task_switching,,,,,,0.0-3.0-88.0,-1.0,,,,none,,,,-1,500.0,<div class = bigbox><div class = quad_box><div class = decision-bottom-left><div class = fixation>+</div></div></div></div>,,,,234947,0.0,test_fixation,167,poldrack-single-stim,,
168,300.0,350.0,300.0,500.0,<div class = bigbox><div class = quad_box><div class = decision-bottom-left><img class = center src='/static/experiments/stop_signal_with_predictable_task_switching/images/stopSignal.png'></img></div></div></div>,go,,2000.0,,77.0,1.0,0.0,44.0,stop_signal_with_predictable_task_switching,,,,,,0.0-3.0-89.0,77.0,low,4.0,even,"[77, 90]",stay,parity,,870,1000.0,<div class = bigbox><div class = quad_box><div class = decision-bottom-left><div class = gng_number><div class = cue-text><img class = center src='/static/experiments/stop_signal_with_predictable_task_switching/images/4.png'></img></div></div></div></div></div>,,go,,236950,0.0,test_trial,168,stop-signal,,4.0
169,,,,,,,,500.0,,,,,,stop_signal_with_predictable_task_switching,,,,,,0.0-3.0-90.0,-1.0,,,,none,,,,-1,500.0,<div class = bigbox><div class = quad_box><div class = decision-top-left><div class = fixation>+</div></div></div></div>,,,,237455,0.0,test_fixation,169,poldrack-single-stim,,
170,300.0,350.0,350.0,500.0,<div class = bigbox><div class = quad_box><div class = decision-top-left><img class = center src='/static/experiments/stop_signal_with_predictable_task_switching/images/stopSignal.png'></img></div></div></div>,stop,,2000.0,,-1.0,1.0,0.0,45.0,stop_signal_with_predictable_task_switching,,,,,,0.0-3.0-91.0,-1.0,low,4.0,even,"[77, 90]",switch,magnitude,,-1,1000.0,<div class = bigbox><div class = quad_box><div class = decision-top-left><div class = gng_number><div class = cue-text><img class = center src='/static/experiments/stop_signal_with_predictable_task_switching/images/4.png'></img></div></div></div></div></div>,1.0,stop,,239457,0.0,test_trial,170,stop-signal,,1.0
171,,,,,,,,500.0,,,,,,stop_signal_with_predictable_task_switching,,,,,,0.0-3.0-92.0,-1.0,,,,none,,,,-1,500.0,<div class = bigbox><div class = quad_box><div class = decision-top-right><div class = fixation>+</div></div></div></div>,,,,239962,0.0,test_fixation,171,poldrack-single-stim,,
172,300.0,400.0,300.0,500.0,<div class = bigbox><div class = quad_box><div class = decision-top-right><img class = center src='/static/experiments/stop_signal_with_predictable_task_switching/images/stopSignal.png'></img></div></div></div>,go,,2000.0,,90.0,1.0,0.0,46.0,stop_signal_with_predictable_task_switching,,,,,,0.0-3.0-93.0,90.0,low,3.0,odd,"[77, 90]",stay,magnitude,,642,1000.0,<div class = bigbox><div class = quad_box><div class = decision-top-right><div class = gng_number><div class = cue-text><img class = center src='/static/experiments/stop_signal_with_predictable_task_switching/images/3.png'></img></div></div></div></div></div>,,go,,241969,0.0,test_trial,172,stop-signal,,2.0
173,,,,,,,,500.0,,,,,,stop_signal_with_predictable_task_switching,,,,,,0.0-3.0-94.0,-1.0,,,,none,,,,-1,500.0,<div class = bigbox><div class = quad_box><div class = decision-bottom-right><div class = fixation>+</div></div></div></div>,,,,242474,0.0,test_fixation,173,poldrack-single-stim,,
174,300.0,400.0,400.0,500.0,<div class = bigbox><div class = quad_box><div class = decision-bottom-right><img class = center src='/static/experiments/stop_signal_with_predictable_task_switching/images/stopSignal.png'></img></div></div></div>,stop,,2000.0,,-1.0,0.0,0.0,47.0,stop_signal_with_predictable_task_switching,,,,,,0.0-3.0-95.0,77.0,high,6.0,even,"[77, 90]",switch,parity,,731,1000.0,<div class = bigbox><div class = quad_box><div class = decision-bottom-right><div class = gng_number><div class = cue-text><img class = center src='/static/experiments/stop_signal_with_predictable_task_switching/images/6.png'></img></div></div></div></div></div>,0.0,stop,,244480,0.0,test_trial,174,stop-signal,,3.0
175,,,,,,,,500.0,,,,,,stop_signal_with_predictable_task_switching,,,,,,0.0-3.0-96.0,-1.0,,,,none,,,,-1,500.0,<div class = bigbox><div class = quad_box><div class = decision-bottom-left><div class = fixation>+</div></div></div></div>,,,,244983,0.0,test_fixation,175,poldrack-single-stim,,
176,300.0,350.0,300.0,500.0,<div class = bigbox><div class = quad_box><div class = decision-bottom-left><img class = center src='/static/experiments/stop_signal_with_predictable_task_switching/images/stopSignal.png'></img></div></div></div>,stop,,2000.0,,-1.0,1.0,0.0,48.0,stop_signal_with_predictable_task_switching,,,,,,0.0-3.0-97.0,-1.0,low,2.0,even,"[77, 90]",stay,parity,,-1,1000.0,<div class = bigbox><div class = quad_box><div class = decision-bottom-left><div class = gng_number><div class = cue-text><img class = center src='/static/experiments/stop_signal_with_predictable_task_switching/images/2.png'></img></div></div></div></div></div>,1.0,stop,,246986,0.0,test_trial,176,stop-signal,,4.0
177,,,,,,,,500.0,,,,,,stop_signal_with_predictable_task_switching,,,,,,0.0-3.0-98.0,-1.0,,,,none,,,,-1,500.0,<div class = bigbox><div class = quad_box><div class = decision-top-left><div class = fixation>+</div></div></div></div>,,,,247491,0.0,test_fixation,177,poldrack-single-stim,,
178,350.0,350.0,350.0,500.0,<div class = bigbox><div class = quad_box><div class = decision-top-left><img class = center src='/static/experiments/stop_signal_with_predictable_task_switching/images/stopSignal.png'></img></div></div></div>,go,,2000.0,,77.0,0.0,0.0,49.0,stop_signal_with_predictable_task_switching,,,,,,0.0-3.0-99.0,90.0,high,7.0,odd,"[77, 90]",switch,magnitude,,652,1000.0,<div class = bigbox><div class = quad_box><div class = decision-top-left><div class = gng_number><div class = cue-text><img class = center src='/static/experiments/stop_signal_with_predictable_task_switching/images/7.png'></img></div></div></div></div></div>,,go,,249494,0.0,test_trial,178,stop-signal,,1.0
179,,,,,,,,1584.0,,,,,,stop_signal_with_predictable_task_switching,,,,,,0.0-3.1-0.1,13.0,,,,[13],,,,1584,1584.0,<div class = bigbox><div class = picture_box><p class = block-text><br>Please take this time to read your feedback and to take a short break! Press enter to continue</p><p class = block-text>You have completed: 1 out of 5 blocks of trials.</p></div></div>,,,,251081,0.0,feedback_block,179,poldrack-single-stim,,
180,,,,,,,,9373.0,True,87.0,,,,stop_signal_with_predictable_task_switching,,,,,,0.0-3.1-1.1-0.1,87.0,,,,[],,,,9373,9373.0,"<p>Press the letter key that is like the letter key indicated at the end of this instructions page, but flipped upside down.<p><p>Press the ""M"" key.</p>",,,,260457,200.0,attention_check,180,attention-check,,
181,,,,,,,,500.0,,,,,,stop_signal_with_predictable_task_switching,,,,,,0.0-3.1-2.1,-1.0,,,,none,,,,-1,500.0,<div class = bigbox><div class = quad_box><div class = decision-top-left><div class = fixation>+</div></div></div></div>,,,,261161,0.0,test_fixation,181,poldrack-single-stim,,
182,350.0,350.0,,500.0,<div class = bigbox><div class = quad_box><div class = decision-top-left><img class = center src='/static/experiments/stop_signal_with_predictable_task_switching/images/stopSignal.png'></img></div></div></div>,go,,2000.0,,77.0,1.0,1.0,1.0,stop_signal_with_predictable_task_switching,,,,,,0.0-3.1-3.1,77.0,high,8.0,even,"[77, 90]",N/A,magnitude,,968,1000.0,<div class = bigbox><div class = quad_box><div class = decision-top-left><div class = gng_number><div class = cue-text><img class = center src='/static/experiments/stop_signal_with_predictable_task_switching/images/8.png'></img></div></div></div></div></div>,,go,,263163,0.0,test_trial,182,stop-signal,,1.0
183,,,,,,,,500.0,,,,,,stop_signal_with_predictable_task_switching,,,,,,0.0-3.1-4.1,-1.0,,,,none,,,,-1,500.0,<div class = bigbox><div class = quad_box><div class = decision-top-right><div class = fixation>+</div></div></div></div>,,,,263669,0.0,test_fixation,183,poldrack-single-stim,,
