,SSD_go,SSD_nogo,SS_delay,SS_duration,SS_stimulus,SS_trial_type,att_check_percent,block_duration,correct,correct_response,correct_trial,current_block,current_trial,exp_id,final_accuracy,final_avg_rt,final_credit_var,final_missed_percent,final_responses_ok,go_acc,go_nogo_condition,internal_node_id,key_press,possible_responses,responses,rt,stim,stim_duration,stim_style,stimulus,stop_acc,stop_signal_condition,text,time_elapsed,timing_post_trial,trial_id,trial_index,trial_type,view_history
0,,,,,,,,11805.0,,,,,,stop_signal_with_go_no_go,,,,,,,,0.0-0.0-0.0,13.0,[13],,11805,,11805.0,,"<div class = bigbox><div class = picture_box><p class = block-text><font color=""white"">Welcome to the experiment. This experiment will take around 15 minutes. Press <i>enter</i> to begin.</font></p></div></div>",,,,11809,0.0,practice-no-stop-feedback,0,poldrack-single-stim,
1,,,,,,,,,,,,,,stop_signal_with_go_no_go,,,,,,,,0.0-0.0-1.0,,,,37352,,,,,,,,49166,,instruction,1,poldrack-instructions,"[{""page_index"":0,""viewing_time"":8086},{""page_index"":1,""viewing_time"":9581},{""page_index"":0,""viewing_time"":3597},{""page_index"":1,""viewing_time"":1428},{""page_index"":2,""viewing_time"":6555},{""page_index"":1,""viewing_time"":4457},{""page_index"":2,""viewing_time"":1418},{""page_index"":3,""viewing_time"":2229}]"
2,,,,,,,,500.0,,,,,,stop_signal_with_go_no_go,,,,,,,,0.0-0.0-2.0,-1.0,none,,-1,,500.0,,<div class = centerbox><div class = fixation>+</div></div>,,,,49673,0.0,prompt_fixation,2,poldrack-single-stim,
3,350.0,350.0,350.0,500.0,<div class = bigbox><div class = centerbox><div class = starbox><img class = center src='/static/experiments/stop_signal_with_go_no_go/images/stopSignal.png'></img></div></div></div>,go,,2000.0,,77.0,1.0,0.0,1.0,stop_signal_with_go_no_go,,,,,,1.0,go,0.0-0.0-3.0,77.0,"[90, 77]",,967,circle,1000.0,solid,<div class = bigbox><div class = centerbox><div class = gng_number><div class = cue-text><img class = center src='/static/experiments/stop_signal_with_go_no_go/images/solid_circle.png'></img></div></div></div></div>,,go,,51681,0.0,practice_trial,3,stop-signal,
4,,,,,,,,500.0,,,,,,stop_signal_with_go_no_go,,,,,,,,0.0-0.0-4.0,-1.0,none,,-1,,500.0,,"<div class = fb_box><div class = center-text><font size = 20>Correct!</font></div></div><div class = prompt_box><p class = center-block-text style = ""font-size:16px; line-height:80%%;"">square: Z key</p><p class = center-block-text style = ""font-size:16px; line-height:80%%;"">circle: M key</p><p class = center-block-text style = ""font-size:16px; line-height:80%%;"">Do not respond if a star appears!</p><p class = center-block-text style = ""font-size:16px; line-height:80%%;"">Do not respond if the shape is outlined!</p></div>",,,,52189,0.0,practice-stop-feedback,4,poldrack-single-stim,
5,,,,,,,,500.0,,,,,,stop_signal_with_go_no_go,,,,,,,,0.0-0.0-5.0,-1.0,none,,-1,,500.0,,<div class = centerbox><div class = fixation>+</div></div>,,,,52707,0.0,prompt_fixation,5,poldrack-single-stim,
6,350.0,350.0,350.0,500.0,<div class = bigbox><div class = centerbox><div class = starbox><img class = center src='/static/experiments/stop_signal_with_go_no_go/images/stopSignal.png'></img></div></div></div>,stop,,2000.0,,-1.0,0.0,0.0,2.0,stop_signal_with_go_no_go,,,,,,,go,0.0-0.0-6.0,90.0,"[90, 77]",,581,square,1000.0,solid,<div class = bigbox><div class = centerbox><div class = gng_number><div class = cue-text><img class = center src='/static/experiments/stop_signal_with_go_no_go/images/solid_square.png'></img></div></div></div></div>,0.0,stop,,54724,0.0,practice_trial,6,stop-signal,
7,,,,,,,,500.0,,,,,,stop_signal_with_go_no_go,,,,,,,,0.0-0.0-7.0,-1.0,none,,-1,,500.0,,"<div class = fb_box><div class = center-text><font size = 20>There was a star.</font></div></div><div class = prompt_box><p class = center-block-text style = ""font-size:16px; line-height:80%%;"">square: Z key</p><p class = center-block-text style = ""font-size:16px; line-height:80%%;"">circle: M key</p><p class = center-block-text style = ""font-size:16px; line-height:80%%;"">Do not respond if a star appears!</p><p class = center-block-text style = ""font-size:16px; line-height:80%%;"">Do not respond if the shape is outlined!</p></div>",,,,55241,0.0,practice-stop-feedback,7,poldrack-single-stim,
8,,,,,,,,500.0,,,,,,stop_signal_with_go_no_go,,,,,,,,0.0-0.0-8.0,-1.0,none,,-1,,500.0,,<div class = centerbox><div class = fixation>+</div></div>,,,,55752,0.0,prompt_fixation,8,poldrack-single-stim,
9,300.0,350.0,300.0,500.0,<div class = bigbox><div class = centerbox><div class = starbox><img class = center src='/static/experiments/stop_signal_with_go_no_go/images/stopSignal.png'></img></div></div></div>,go,,2000.0,,90.0,1.0,0.0,3.0,stop_signal_with_go_no_go,,,,,,1.0,go,0.0-0.0-9.0,90.0,"[90, 77]",,623,square,1000.0,solid,<div class = bigbox><div class = centerbox><div class = gng_number><div class = cue-text><img class = center src='/static/experiments/stop_signal_with_go_no_go/images/solid_square.png'></img></div></div></div></div>,,go,,57766,0.0,practice_trial,9,stop-signal,
10,,,,,,,,500.0,,,,,,stop_signal_with_go_no_go,,,,,,,,0.0-0.0-10.0,-1.0,none,,-1,,500.0,,"<div class = fb_box><div class = center-text><font size = 20>Correct!</font></div></div><div class = prompt_box><p class = center-block-text style = ""font-size:16px; line-height:80%%;"">square: Z key</p><p class = center-block-text style = ""font-size:16px; line-height:80%%;"">circle: M key</p><p class = center-block-text style = ""font-size:16px; line-height:80%%;"">Do not respond if a star appears!</p><p class = center-block-text style = ""font-size:16px; line-height:80%%;"">Do not respond if the shape is outlined!</p></div>",,,,58272,0.0,practice-stop-feedback,10,poldrack-single-stim,
11,,,,,,,,500.0,,,,,,stop_signal_with_go_no_go,,,,,,,,0.0-0.0-11.0,-1.0,none,,-1,,500.0,,<div class = centerbox><div class = fixation>+</div></div>,,,,58787,0.0,prompt_fixation,11,poldrack-single-stim,
12,300.0,350.0,300.0,500.0,<div class = bigbox><div class = centerbox><div class = starbox><img class = center src='/static/experiments/stop_signal_with_go_no_go/images/stopSignal.png'></img></div></div></div>,stop,,2000.0,,-1.0,1.0,0.0,4.0,stop_signal_with_go_no_go,,,,,,,go,0.0-0.0-12.0,-1.0,"[90, 77]",,-1,circle,1000.0,solid,<div class = bigbox><div class = centerbox><div class = gng_number><div class = cue-text><img class = center src='/static/experiments/stop_signal_with_go_no_go/images/solid_circle.png'></img></div></div></div></div>,1.0,stop,,60804,0.0,practice_trial,12,stop-signal,
13,,,,,,,,500.0,,,,,,stop_signal_with_go_no_go,,,,,,,,0.0-0.0-13.0,-1.0,none,,-1,,500.0,,"<div class = fb_box><div class = center-text><font size = 20>Correct!</font></div></div><div class = prompt_box><p class = center-block-text style = ""font-size:16px; line-height:80%%;"">square: Z key</p><p class = center-block-text style = ""font-size:16px; line-height:80%%;"">circle: M key</p><p class = center-block-text style = ""font-size:16px; line-height:80%%;"">Do not respond if a star appears!</p><p class = center-block-text style = ""font-size:16px; line-height:80%%;"">Do not respond if the shape is outlined!</p></div>",,,,61311,0.0,practice-stop-feedback,13,poldrack-single-stim,
14,,,,,,,,500.0,,,,,,stop_signal_with_go_no_go,,,,,,,,0.0-0.0-14.0,-1.0,none,,-1,,500.0,,<div class = centerbox><div class = fixation>+</div></div>,,,,61819,0.0,prompt_fixation,14,poldrack-single-stim,
15,350.0,350.0,350.0,500.0,<div class = bigbox><div class = centerbox><div class = starbox><img class = center src='/static/experiments/stop_signal_with_go_no_go/images/stopSignal.png'></img></div></div></div>,stop,,2000.0,,-1.0,0.0,0.0,5.0,stop_signal_with_go_no_go,,,,,,,go,0.0-0.0-15.0,77.0,"[90, 77]",,513,circle,1000.0,solid,<div class = bigbox><div class = centerbox><div class = gng_number><div class = cue-text><img class = center src='/static/experiments/stop_signal_with_go_no_go/images/solid_circle.png'></img></div></div></div></div>,0.0,stop,,63837,0.0,practice_trial,15,stop-signal,
16,,,,,,,,500.0,,,,,,stop_signal_with_go_no_go,,,,,,,,0.0-0.0-16.0,-1.0,none,,-1,,500.0,,"<div class = fb_box><div class = center-text><font size = 20>There was a star.</font></div></div><div class = prompt_box><p class = center-block-text style = ""font-size:16px; line-height:80%%;"">square: Z key</p><p class = center-block-text style = ""font-size:16px; line-height:80%%;"">circle: M key</p><p class = center-block-text style = ""font-size:16px; line-height:80%%;"">Do not respond if a star appears!</p><p class = center-block-text style = ""font-size:16px; line-height:80%%;"">Do not respond if the shape is outlined!</p></div>",,,,64344,0.0,practice-stop-feedback,16,poldrack-single-stim,
17,,,,,,,,500.0,,,,,,stop_signal_with_go_no_go,,,,,,,,0.0-0.0-17.0,-1.0,none,,-1,,500.0,,<div class = centerbox><div class = fixation>+</div></div>,,,,64852,0.0,prompt_fixation,17,poldrack-single-stim,
18,300.0,350.0,300.0,500.0,<div class = bigbox><div class = centerbox><div class = starbox><img class = center src='/static/experiments/stop_signal_with_go_no_go/images/stopSignal.png'></img></div></div></div>,go,,2000.0,,90.0,1.0,0.0,6.0,stop_signal_with_go_no_go,,,,,,1.0,go,0.0-0.0-18.0,90.0,"[90, 77]",,725,square,1000.0,solid,<div class = bigbox><div class = centerbox><div class = gng_number><div class = cue-text><img class = center src='/static/experiments/stop_signal_with_go_no_go/images/solid_square.png'></img></div></div></div></div>,,go,,66868,0.0,practice_trial,18,stop-signal,
19,,,,,,,,500.0,,,,,,stop_signal_with_go_no_go,,,,,,,,0.0-0.0-19.0,-1.0,none,,-1,,500.0,,"<div class = fb_box><div class = center-text><font size = 20>Correct!</font></div></div><div class = prompt_box><p class = center-block-text style = ""font-size:16px; line-height:80%%;"">square: Z key</p><p class = center-block-text style = ""font-size:16px; line-height:80%%;"">circle: M key</p><p class = center-block-text style = ""font-size:16px; line-height:80%%;"">Do not respond if a star appears!</p><p class = center-block-text style = ""font-size:16px; line-height:80%%;"">Do not respond if the shape is outlined!</p></div>",,,,67377,0.0,practice-stop-feedback,19,poldrack-single-stim,
20,,,,,,,,500.0,,,,,,stop_signal_with_go_no_go,,,,,,,,0.0-0.0-20.0,-1.0,none,,-1,,500.0,,<div class = centerbox><div class = fixation>+</div></div>,,,,67884,0.0,prompt_fixation,20,poldrack-single-stim,
21,300.0,350.0,350.0,500.0,<div class = bigbox><div class = centerbox><div class = starbox><img class = center src='/static/experiments/stop_signal_with_go_no_go/images/stopSignal.png'></img></div></div></div>,stop,,2000.0,,-1.0,1.0,0.0,7.0,stop_signal_with_go_no_go,,,,,,,nogo,0.0-0.0-21.0,-1.0,"[90, 77]",,-1,circle,1000.0,outlined,<div class = bigbox><div class = centerbox><div class = gng_number><div class = cue-text><img class = center src='/static/experiments/stop_signal_with_go_no_go/images/outlined_circle.png'></img></div></div></div></div>,1.0,stop,,69895,0.0,practice_trial,21,stop-signal,
22,,,,,,,,500.0,,,,,,stop_signal_with_go_no_go,,,,,,,,0.0-0.0-22.0,-1.0,none,,-1,,500.0,,"<div class = fb_box><div class = center-text><font size = 20>Correct!</font></div></div><div class = prompt_box><p class = center-block-text style = ""font-size:16px; line-height:80%%;"">square: Z key</p><p class = center-block-text style = ""font-size:16px; line-height:80%%;"">circle: M key</p><p class = center-block-text style = ""font-size:16px; line-height:80%%;"">Do not respond if a star appears!</p><p class = center-block-text style = ""font-size:16px; line-height:80%%;"">Do not respond if the shape is outlined!</p></div>",,,,70400,0.0,practice-stop-feedback,22,poldrack-single-stim,
23,,,,,,,,500.0,,,,,,stop_signal_with_go_no_go,,,,,,,,0.0-0.0-23.0,-1.0,none,,-1,,500.0,,<div class = centerbox><div class = fixation>+</div></div>,,,,70918,0.0,prompt_fixation,23,poldrack-single-stim,
24,300.0,400.0,300.0,500.0,<div class = bigbox><div class = centerbox><div class = starbox><img class = center src='/static/experiments/stop_signal_with_go_no_go/images/stopSignal.png'></img></div></div></div>,stop,,2000.0,,-1.0,1.0,0.0,8.0,stop_signal_with_go_no_go,,,,,,,go,0.0-0.0-24.0,-1.0,"[90, 77]",,-1,circle,1000.0,solid,<div class = bigbox><div class = centerbox><div class = gng_number><div class = cue-text><img class = center src='/static/experiments/stop_signal_with_go_no_go/images/solid_circle.png'></img></div></div></div></div>,1.0,stop,,72938,0.0,practice_trial,24,stop-signal,
25,,,,,,,,500.0,,,,,,stop_signal_with_go_no_go,,,,,,,,0.0-0.0-25.0,-1.0,none,,-1,,500.0,,"<div class = fb_box><div class = center-text><font size = 20>Correct!</font></div></div><div class = prompt_box><p class = center-block-text style = ""font-size:16px; line-height:80%%;"">square: Z key</p><p class = center-block-text style = ""font-size:16px; line-height:80%%;"">circle: M key</p><p class = center-block-text style = ""font-size:16px; line-height:80%%;"">Do not respond if a star appears!</p><p class = center-block-text style = ""font-size:16px; line-height:80%%;"">Do not respond if the shape is outlined!</p></div>",,,,73450,0.0,practice-stop-feedback,25,poldrack-single-stim,
26,,,,,,,,500.0,,,,,,stop_signal_with_go_no_go,,,,,,,,0.0-0.0-26.0,-1.0,none,,-1,,500.0,,<div class = centerbox><div class = fixation>+</div></div>,,,,73961,0.0,prompt_fixation,26,poldrack-single-stim,
27,350.0,400.0,350.0,500.0,<div class = bigbox><div class = centerbox><div class = starbox><img class = center src='/static/experiments/stop_signal_with_go_no_go/images/stopSignal.png'></img></div></div></div>,go,,2000.0,,77.0,1.0,0.0,9.0,stop_signal_with_go_no_go,,,,,,1.0,go,0.0-0.0-27.0,77.0,"[90, 77]",,735,circle,1000.0,solid,<div class = bigbox><div class = centerbox><div class = gng_number><div class = cue-text><img class = center src='/static/experiments/stop_signal_with_go_no_go/images/solid_circle.png'></img></div></div></div></div>,,go,,75972,0.0,practice_trial,27,stop-signal,
28,,,,,,,,500.0,,,,,,stop_signal_with_go_no_go,,,,,,,,0.0-0.0-28.0,-1.0,none,,-1,,500.0,,"<div class = fb_box><div class = center-text><font size = 20>Correct!</font></div></div><div class = prompt_box><p class = center-block-text style = ""font-size:16px; line-height:80%%;"">square: Z key</p><p class = center-block-text style = ""font-size:16px; line-height:80%%;"">circle: M key</p><p class = center-block-text style = ""font-size:16px; line-height:80%%;"">Do not respond if a star appears!</p><p class = center-block-text style = ""font-size:16px; line-height:80%%;"">Do not respond if the shape is outlined!</p></div>",,,,76477,0.0,practice-stop-feedback,28,poldrack-single-stim,
29,,,,,,,,500.0,,,,,,stop_signal_with_go_no_go,,,,,,,,0.0-0.0-29.0,-1.0,none,,-1,,500.0,,<div class = centerbox><div class = fixation>+</div></div>,,,,76989,0.0,prompt_fixation,29,poldrack-single-stim,
30,350.0,400.0,350.0,500.0,<div class = bigbox><div class = centerbox><div class = starbox><img class = center src='/static/experiments/stop_signal_with_go_no_go/images/stopSignal.png'></img></div></div></div>,stop,,2000.0,,-1.0,1.0,0.0,10.0,stop_signal_with_go_no_go,,,,,,,go,0.0-0.0-30.0,-1.0,"[90, 77]",,-1,square,1000.0,solid,<div class = bigbox><div class = centerbox><div class = gng_number><div class = cue-text><img class = center src='/static/experiments/stop_signal_with_go_no_go/images/solid_square.png'></img></div></div></div></div>,1.0,stop,,79001,0.0,practice_trial,30,stop-signal,
31,,,,,,,,500.0,,,,,,stop_signal_with_go_no_go,,,,,,,,0.0-0.0-31.0,-1.0,none,,-1,,500.0,,"<div class = fb_box><div class = center-text><font size = 20>Correct!</font></div></div><div class = prompt_box><p class = center-block-text style = ""font-size:16px; line-height:80%%;"">square: Z key</p><p class = center-block-text style = ""font-size:16px; line-height:80%%;"">circle: M key</p><p class = center-block-text style = ""font-size:16px; line-height:80%%;"">Do not respond if a star appears!</p><p class = center-block-text style = ""font-size:16px; line-height:80%%;"">Do not respond if the shape is outlined!</p></div>",,,,79517,0.0,practice-stop-feedback,31,poldrack-single-stim,
32,,,,,,,,500.0,,,,,,stop_signal_with_go_no_go,,,,,,,,0.0-0.0-32.0,-1.0,none,,-1,,500.0,,<div class = centerbox><div class = fixation>+</div></div>,,,,80033,0.0,prompt_fixation,32,poldrack-single-stim,
33,400.0,400.0,400.0,500.0,<div class = bigbox><div class = centerbox><div class = starbox><img class = center src='/static/experiments/stop_signal_with_go_no_go/images/stopSignal.png'></img></div></div></div>,go,,2000.0,,-1.0,1.0,0.0,11.0,stop_signal_with_go_no_go,,,,,,1.0,nogo,0.0-0.0-33.0,-1.0,"[90, 77]",,-1,circle,1000.0,outlined,<div class = bigbox><div class = centerbox><div class = gng_number><div class = cue-text><img class = center src='/static/experiments/stop_signal_with_go_no_go/images/outlined_circle.png'></img></div></div></div></div>,,go,,82050,0.0,practice_trial,33,stop-signal,
34,,,,,,,,500.0,,,,,,stop_signal_with_go_no_go,,,,,,,,0.0-0.0-34.0,-1.0,none,,-1,,500.0,,"<div class = fb_box><div class = center-text><font size = 20>Correct!</font></div></div><div class = prompt_box><p class = center-block-text style = ""font-size:16px; line-height:80%%;"">square: Z key</p><p class = center-block-text style = ""font-size:16px; line-height:80%%;"">circle: M key</p><p class = center-block-text style = ""font-size:16px; line-height:80%%;"">Do not respond if a star appears!</p><p class = center-block-text style = ""font-size:16px; line-height:80%%;"">Do not respond if the shape is outlined!</p></div>",,,,82556,0.0,practice-stop-feedback,34,poldrack-single-stim,
35,,,,,,,,500.0,,,,,,stop_signal_with_go_no_go,,,,,,,,0.0-0.0-35.0,-1.0,none,,-1,,500.0,,<div class = centerbox><div class = fixation>+</div></div>,,,,83074,0.0,prompt_fixation,35,poldrack-single-stim,
36,400.0,400.0,400.0,500.0,<div class = bigbox><div class = centerbox><div class = starbox><img class = center src='/static/experiments/stop_signal_with_go_no_go/images/stopSignal.png'></img></div></div></div>,go,,2000.0,,77.0,1.0,0.0,12.0,stop_signal_with_go_no_go,,,,,,1.0,go,0.0-0.0-36.0,77.0,"[90, 77]",,626,circle,1000.0,solid,<div class = bigbox><div class = centerbox><div class = gng_number><div class = cue-text><img class = center src='/static/experiments/stop_signal_with_go_no_go/images/solid_circle.png'></img></div></div></div></div>,,go,,85090,0.0,practice_trial,36,stop-signal,
37,,,,,,,,500.0,,,,,,stop_signal_with_go_no_go,,,,,,,,0.0-0.0-37.0,-1.0,none,,-1,,500.0,,"<div class = fb_box><div class = center-text><font size = 20>Correct!</font></div></div><div class = prompt_box><p class = center-block-text style = ""font-size:16px; line-height:80%%;"">square: Z key</p><p class = center-block-text style = ""font-size:16px; line-height:80%%;"">circle: M key</p><p class = center-block-text style = ""font-size:16px; line-height:80%%;"">Do not respond if a star appears!</p><p class = center-block-text style = ""font-size:16px; line-height:80%%;"">Do not respond if the shape is outlined!</p></div>",,,,85601,0.0,practice-stop-feedback,37,poldrack-single-stim,
38,,,,,,,,500.0,,,,,,stop_signal_with_go_no_go,,,,,,,,0.0-0.0-38.0,-1.0,none,,-1,,500.0,,<div class = centerbox><div class = fixation>+</div></div>,,,,86111,0.0,prompt_fixation,38,poldrack-single-stim,
39,400.0,400.0,400.0,500.0,<div class = bigbox><div class = centerbox><div class = starbox><img class = center src='/static/experiments/stop_signal_with_go_no_go/images/stopSignal.png'></img></div></div></div>,stop,,2000.0,,-1.0,0.0,0.0,13.0,stop_signal_with_go_no_go,,,,,,,go,0.0-0.0-39.0,77.0,"[90, 77]",,561,circle,1000.0,solid,<div class = bigbox><div class = centerbox><div class = gng_number><div class = cue-text><img class = center src='/static/experiments/stop_signal_with_go_no_go/images/solid_circle.png'></img></div></div></div></div>,0.0,stop,,88122,0.0,practice_trial,39,stop-signal,
40,,,,,,,,500.0,,,,,,stop_signal_with_go_no_go,,,,,,,,0.0-0.0-40.0,-1.0,none,,-1,,500.0,,"<div class = fb_box><div class = center-text><font size = 20>There was a star.</font></div></div><div class = prompt_box><p class = center-block-text style = ""font-size:16px; line-height:80%%;"">square: Z key</p><p class = center-block-text style = ""font-size:16px; line-height:80%%;"">circle: M key</p><p class = center-block-text style = ""font-size:16px; line-height:80%%;"">Do not respond if a star appears!</p><p class = center-block-text style = ""font-size:16px; line-height:80%%;"">Do not respond if the shape is outlined!</p></div>",,,,88630,0.0,practice-stop-feedback,40,poldrack-single-stim,
41,,,,,,,,500.0,,,,,,stop_signal_with_go_no_go,,,,,,,,0.0-0.0-41.0,-1.0,none,,-1,,500.0,,<div class = centerbox><div class = fixation>+</div></div>,,,,89141,0.0,prompt_fixation,41,poldrack-single-stim,
42,350.0,400.0,350.0,500.0,<div class = bigbox><div class = centerbox><div class = starbox><img class = center src='/static/experiments/stop_signal_with_go_no_go/images/stopSignal.png'></img></div></div></div>,go,,2000.0,,90.0,1.0,0.0,14.0,stop_signal_with_go_no_go,,,,,,1.0,go,0.0-0.0-42.0,90.0,"[90, 77]",,524,square,1000.0,solid,<div class = bigbox><div class = centerbox><div class = gng_number><div class = cue-text><img class = center src='/static/experiments/stop_signal_with_go_no_go/images/solid_square.png'></img></div></div></div></div>,,go,,91152,0.0,practice_trial,42,stop-signal,
43,,,,,,,,500.0,,,,,,stop_signal_with_go_no_go,,,,,,,,0.0-0.0-43.0,-1.0,none,,-1,,500.0,,"<div class = fb_box><div class = center-text><font size = 20>Correct!</font></div></div><div class = prompt_box><p class = center-block-text style = ""font-size:16px; line-height:80%%;"">square: Z key</p><p class = center-block-text style = ""font-size:16px; line-height:80%%;"">circle: M key</p><p class = center-block-text style = ""font-size:16px; line-height:80%%;"">Do not respond if a star appears!</p><p class = center-block-text style = ""font-size:16px; line-height:80%%;"">Do not respond if the shape is outlined!</p></div>",,,,91658,0.0,practice-stop-feedback,43,poldrack-single-stim,
44,,,,,,,,500.0,,,,,,stop_signal_with_go_no_go,,,,,,,,0.0-0.0-44.0,-1.0,none,,-1,,500.0,,<div class = centerbox><div class = fixation>+</div></div>,,,,92171,0.0,prompt_fixation,44,poldrack-single-stim,
45,350.0,400.0,350.0,500.0,<div class = bigbox><div class = centerbox><div class = starbox><img class = center src='/static/experiments/stop_signal_with_go_no_go/images/stopSignal.png'></img></div></div></div>,stop,,2000.0,,-1.0,1.0,0.0,15.0,stop_signal_with_go_no_go,,,,,,,go,0.0-0.0-45.0,-1.0,"[90, 77]",,-1,square,1000.0,solid,<div class = bigbox><div class = centerbox><div class = gng_number><div class = cue-text><img class = center src='/static/experiments/stop_signal_with_go_no_go/images/solid_square.png'></img></div></div></div></div>,1.0,stop,,94182,0.0,practice_trial,45,stop-signal,
46,,,,,,,,500.0,,,,,,stop_signal_with_go_no_go,,,,,,,,0.0-0.0-46.0,-1.0,none,,-1,,500.0,,"<div class = fb_box><div class = center-text><font size = 20>Correct!</font></div></div><div class = prompt_box><p class = center-block-text style = ""font-size:16px; line-height:80%%;"">square: Z key</p><p class = center-block-text style = ""font-size:16px; line-height:80%%;"">circle: M key</p><p class = center-block-text style = ""font-size:16px; line-height:80%%;"">Do not respond if a star appears!</p><p class = center-block-text style = ""font-size:16px; line-height:80%%;"">Do not respond if the shape is outlined!</p></div>",,,,94688,0.0,practice-stop-feedback,46,poldrack-single-stim,
47,,,,,,,,500.0,,,,,,stop_signal_with_go_no_go,,,,,,,,0.0-0.0-47.0,-1.0,none,,-1,,500.0,,<div class = centerbox><div class = fixation>+</div></div>,,,,95199,0.0,prompt_fixation,47,poldrack-single-stim,
48,400.0,400.0,400.0,500.0,<div class = bigbox><div class = centerbox><div class = starbox><img class = center src='/static/experiments/stop_signal_with_go_no_go/images/stopSignal.png'></img></div></div></div>,go,,2000.0,,90.0,1.0,0.0,16.0,stop_signal_with_go_no_go,,,,,,1.0,go,0.0-0.0-48.0,90.0,"[90, 77]",,705,square,1000.0,solid,<div class = bigbox><div class = centerbox><div class = gng_number><div class = cue-text><img class = center src='/static/experiments/stop_signal_with_go_no_go/images/solid_square.png'></img></div></div></div></div>,,go,,97211,0.0,practice_trial,48,stop-signal,
49,,,,,,,,500.0,,,,,,stop_signal_with_go_no_go,,,,,,,,0.0-0.0-49.0,-1.0,none,,-1,,500.0,,"<div class = fb_box><div class = center-text><font size = 20>Correct!</font></div></div><div class = prompt_box><p class = center-block-text style = ""font-size:16px; line-height:80%%;"">square: Z key</p><p class = center-block-text style = ""font-size:16px; line-height:80%%;"">circle: M key</p><p class = center-block-text style = ""font-size:16px; line-height:80%%;"">Do not respond if a star appears!</p><p class = center-block-text style = ""font-size:16px; line-height:80%%;"">Do not respond if the shape is outlined!</p></div>",,,,97716,0.0,practice-stop-feedback,49,poldrack-single-stim,
50,,,,,,,,500.0,,,,,,stop_signal_with_go_no_go,,,,,,,,0.0-0.0-50.0,-1.0,none,,-1,,500.0,,<div class = centerbox><div class = fixation>+</div></div>,,,,98231,0.0,prompt_fixation,50,poldrack-single-stim,
51,400.0,400.0,400.0,500.0,<div class = bigbox><div class = centerbox><div class = starbox><img class = center src='/static/experiments/stop_signal_with_go_no_go/images/stopSignal.png'></img></div></div></div>,go,,2000.0,,77.0,1.0,0.0,17.0,stop_signal_with_go_no_go,,,,,,1.0,go,0.0-0.0-51.0,77.0,"[90, 77]",,487,circle,1000.0,solid,<div class = bigbox><div class = centerbox><div class = gng_number><div class = cue-text><img class = center src='/static/experiments/stop_signal_with_go_no_go/images/solid_circle.png'></img></div></div></div></div>,,go,,100240,0.0,practice_trial,51,stop-signal,
52,,,,,,,,500.0,,,,,,stop_signal_with_go_no_go,,,,,,,,0.0-0.0-52.0,-1.0,none,,-1,,500.0,,"<div class = fb_box><div class = center-text><font size = 20>Correct!</font></div></div><div class = prompt_box><p class = center-block-text style = ""font-size:16px; line-height:80%%;"">square: Z key</p><p class = center-block-text style = ""font-size:16px; line-height:80%%;"">circle: M key</p><p class = center-block-text style = ""font-size:16px; line-height:80%%;"">Do not respond if a star appears!</p><p class = center-block-text style = ""font-size:16px; line-height:80%%;"">Do not respond if the shape is outlined!</p></div>",,,,100744,0.0,practice-stop-feedback,52,poldrack-single-stim,
53,,,,,,,,500.0,,,,,,stop_signal_with_go_no_go,,,,,,,,0.0-0.0-53.0,-1.0,none,,-1,,500.0,,<div class = centerbox><div class = fixation>+</div></div>,,,,101259,0.0,prompt_fixation,53,poldrack-single-stim,
54,400.0,400.0,400.0,500.0,<div class = bigbox><div class = centerbox><div class = starbox><img class = center src='/static/experiments/stop_signal_with_go_no_go/images/stopSignal.png'></img></div></div></div>,go,,2000.0,,90.0,1.0,0.0,18.0,stop_signal_with_go_no_go,,,,,,1.0,go,0.0-0.0-54.0,90.0,"[90, 77]",,615,square,1000.0,solid,<div class = bigbox><div class = centerbox><div class = gng_number><div class = cue-text><img class = center src='/static/experiments/stop_signal_with_go_no_go/images/solid_square.png'></img></div></div></div></div>,,go,,103277,0.0,practice_trial,54,stop-signal,
55,,,,,,,,500.0,,,,,,stop_signal_with_go_no_go,,,,,,,,0.0-0.0-55.0,-1.0,none,,-1,,500.0,,"<div class = fb_box><div class = center-text><font size = 20>Correct!</font></div></div><div class = prompt_box><p class = center-block-text style = ""font-size:16px; line-height:80%%;"">square: Z key</p><p class = center-block-text style = ""font-size:16px; line-height:80%%;"">circle: M key</p><p class = center-block-text style = ""font-size:16px; line-height:80%%;"">Do not respond if a star appears!</p><p class = center-block-text style = ""font-size:16px; line-height:80%%;"">Do not respond if the shape is outlined!</p></div>",,,,103783,0.0,practice-stop-feedback,55,poldrack-single-stim,
56,,,,,,,,500.0,,,,,,stop_signal_with_go_no_go,,,,,,,,0.0-0.0-56.0,-1.0,none,,-1,,500.0,,<div class = centerbox><div class = fixation>+</div></div>,,,,104298,0.0,prompt_fixation,56,poldrack-single-stim,
57,400.0,400.0,400.0,500.0,<div class = bigbox><div class = centerbox><div class = starbox><img class = center src='/static/experiments/stop_signal_with_go_no_go/images/stopSignal.png'></img></div></div></div>,go,,2000.0,,90.0,1.0,0.0,19.0,stop_signal_with_go_no_go,,,,,,1.0,go,0.0-0.0-57.0,90.0,"[90, 77]",,493,square,1000.0,solid,<div class = bigbox><div class = centerbox><div class = gng_number><div class = cue-text><img class = center src='/static/experiments/stop_signal_with_go_no_go/images/solid_square.png'></img></div></div></div></div>,,go,,106306,0.0,practice_trial,57,stop-signal,
58,,,,,,,,500.0,,,,,,stop_signal_with_go_no_go,,,,,,,,0.0-0.0-58.0,-1.0,none,,-1,,500.0,,"<div class = fb_box><div class = center-text><font size = 20>Correct!</font></div></div><div class = prompt_box><p class = center-block-text style = ""font-size:16px; line-height:80%%;"">square: Z key</p><p class = center-block-text style = ""font-size:16px; line-height:80%%;"">circle: M key</p><p class = center-block-text style = ""font-size:16px; line-height:80%%;"">Do not respond if a star appears!</p><p class = center-block-text style = ""font-size:16px; line-height:80%%;"">Do not respond if the shape is outlined!</p></div>",,,,106814,0.0,practice-stop-feedback,58,poldrack-single-stim,
59,,,,,,,,500.0,,,,,,stop_signal_with_go_no_go,,,,,,,,0.0-0.0-59.0,-1.0,none,,-1,,500.0,,<div class = centerbox><div class = fixation>+</div></div>,,,,107329,0.0,prompt_fixation,59,poldrack-single-stim,
60,400.0,400.0,400.0,500.0,<div class = bigbox><div class = centerbox><div class = starbox><img class = center src='/static/experiments/stop_signal_with_go_no_go/images/stopSignal.png'></img></div></div></div>,go,,2000.0,,90.0,1.0,0.0,20.0,stop_signal_with_go_no_go,,,,,,1.0,go,0.0-0.0-60.0,90.0,"[90, 77]",,421,square,1000.0,solid,<div class = bigbox><div class = centerbox><div class = gng_number><div class = cue-text><img class = center src='/static/experiments/stop_signal_with_go_no_go/images/solid_square.png'></img></div></div></div></div>,,go,,109339,0.0,practice_trial,60,stop-signal,
61,,,,,,,,500.0,,,,,,stop_signal_with_go_no_go,,,,,,,,0.0-0.0-61.0,-1.0,none,,-1,,500.0,,"<div class = fb_box><div class = center-text><font size = 20>Correct!</font></div></div><div class = prompt_box><p class = center-block-text style = ""font-size:16px; line-height:80%%;"">square: Z key</p><p class = center-block-text style = ""font-size:16px; line-height:80%%;"">circle: M key</p><p class = center-block-text style = ""font-size:16px; line-height:80%%;"">Do not respond if a star appears!</p><p class = center-block-text style = ""font-size:16px; line-height:80%%;"">Do not respond if the shape is outlined!</p></div>",,,,109846,0.0,practice-stop-feedback,61,poldrack-single-stim,
62,,,,,,,,500.0,,,,,,stop_signal_with_go_no_go,,,,,,,,0.0-0.0-62.0,-1.0,none,,-1,,500.0,,<div class = centerbox><div class = fixation>+</div></div>,,,,110363,0.0,prompt_fixation,62,poldrack-single-stim,
63,400.0,400.0,400.0,500.0,<div class = bigbox><div class = centerbox><div class = starbox><img class = center src='/static/experiments/stop_signal_with_go_no_go/images/stopSignal.png'></img></div></div></div>,go,,2000.0,,-1.0,1.0,0.0,21.0,stop_signal_with_go_no_go,,,,,,1.0,nogo,0.0-0.0-63.0,-1.0,"[90, 77]",,-1,square,1000.0,outlined,<div class = bigbox><div class = centerbox><div class = gng_number><div class = cue-text><img class = center src='/static/experiments/stop_signal_with_go_no_go/images/outlined_square.png'></img></div></div></div></div>,,go,,112371,0.0,practice_trial,63,stop-signal,
64,,,,,,,,500.0,,,,,,stop_signal_with_go_no_go,,,,,,,,0.0-0.0-64.0,-1.0,none,,-1,,500.0,,"<div class = fb_box><div class = center-text><font size = 20>Correct!</font></div></div><div class = prompt_box><p class = center-block-text style = ""font-size:16px; line-height:80%%;"">square: Z key</p><p class = center-block-text style = ""font-size:16px; line-height:80%%;"">circle: M key</p><p class = center-block-text style = ""font-size:16px; line-height:80%%;"">Do not respond if a star appears!</p><p class = center-block-text style = ""font-size:16px; line-height:80%%;"">Do not respond if the shape is outlined!</p></div>",,,,112881,0.0,practice-stop-feedback,64,poldrack-single-stim,
65,,,,,,,,500.0,,,,,,stop_signal_with_go_no_go,,,,,,,,0.0-0.0-65.0,-1.0,none,,-1,,500.0,,<div class = centerbox><div class = fixation>+</div></div>,,,,113387,0.0,prompt_fixation,65,poldrack-single-stim,
66,400.0,400.0,400.0,500.0,<div class = bigbox><div class = centerbox><div class = starbox><img class = center src='/static/experiments/stop_signal_with_go_no_go/images/stopSignal.png'></img></div></div></div>,go,,2000.0,,77.0,1.0,0.0,22.0,stop_signal_with_go_no_go,,,,,,1.0,go,0.0-0.0-66.0,77.0,"[90, 77]",,575,circle,1000.0,solid,<div class = bigbox><div class = centerbox><div class = gng_number><div class = cue-text><img class = center src='/static/experiments/stop_signal_with_go_no_go/images/solid_circle.png'></img></div></div></div></div>,,go,,115398,0.0,practice_trial,66,stop-signal,
67,,,,,,,,500.0,,,,,,stop_signal_with_go_no_go,,,,,,,,0.0-0.0-67.0,-1.0,none,,-1,,500.0,,"<div class = fb_box><div class = center-text><font size = 20>Correct!</font></div></div><div class = prompt_box><p class = center-block-text style = ""font-size:16px; line-height:80%%;"">square: Z key</p><p class = center-block-text style = ""font-size:16px; line-height:80%%;"">circle: M key</p><p class = center-block-text style = ""font-size:16px; line-height:80%%;"">Do not respond if a star appears!</p><p class = center-block-text style = ""font-size:16px; line-height:80%%;"">Do not respond if the shape is outlined!</p></div>",,,,115902,0.0,practice-stop-feedback,67,poldrack-single-stim,
68,,,,,,,,500.0,,,,,,stop_signal_with_go_no_go,,,,,,,,0.0-0.0-68.0,-1.0,none,,-1,,500.0,,<div class = centerbox><div class = fixation>+</div></div>,,,,116411,0.0,prompt_fixation,68,poldrack-single-stim,
69,400.0,400.0,400.0,500.0,<div class = bigbox><div class = centerbox><div class = starbox><img class = center src='/static/experiments/stop_signal_with_go_no_go/images/stopSignal.png'></img></div></div></div>,go,,2000.0,,-1.0,1.0,0.0,23.0,stop_signal_with_go_no_go,,,,,,1.0,nogo,0.0-0.0-69.0,-1.0,"[90, 77]",,-1,square,1000.0,outlined,<div class = bigbox><div class = centerbox><div class = gng_number><div class = cue-text><img class = center src='/static/experiments/stop_signal_with_go_no_go/images/outlined_square.png'></img></div></div></div></div>,,go,,118422,0.0,practice_trial,69,stop-signal,
70,,,,,,,,500.0,,,,,,stop_signal_with_go_no_go,,,,,,,,0.0-0.0-70.0,-1.0,none,,-1,,500.0,,"<div class = fb_box><div class = center-text><font size = 20>Correct!</font></div></div><div class = prompt_box><p class = center-block-text style = ""font-size:16px; line-height:80%%;"">square: Z key</p><p class = center-block-text style = ""font-size:16px; line-height:80%%;"">circle: M key</p><p class = center-block-text style = ""font-size:16px; line-height:80%%;"">Do not respond if a star appears!</p><p class = center-block-text style = ""font-size:16px; line-height:80%%;"">Do not respond if the shape is outlined!</p></div>",,,,118931,0.0,practice-stop-feedback,70,poldrack-single-stim,
71,,,,,,,,500.0,,,,,,stop_signal_with_go_no_go,,,,,,,,0.0-0.0-71.0,-1.0,none,,-1,,500.0,,<div class = centerbox><div class = fixation>+</div></div>,,,,119440,0.0,prompt_fixation,71,poldrack-single-stim,
72,400.0,400.0,400.0,500.0,<div class = bigbox><div class = centerbox><div class = starbox><img class = center src='/static/experiments/stop_signal_with_go_no_go/images/stopSignal.png'></img></div></div></div>,go,,2000.0,,90.0,1.0,0.0,24.0,stop_signal_with_go_no_go,,,,,,1.0,go,0.0-0.0-72.0,90.0,"[90, 77]",,911,square,1000.0,solid,<div class = bigbox><div class = centerbox><div class = gng_number><div class = cue-text><img class = center src='/static/experiments/stop_signal_with_go_no_go/images/solid_square.png'></img></div></div></div></div>,,go,,121450,0.0,practice_trial,72,stop-signal,
73,,,,,,,,500.0,,,,,,stop_signal_with_go_no_go,,,,,,,,0.0-0.0-73.0,-1.0,none,,-1,,500.0,,"<div class = fb_box><div class = center-text><font size = 20>Correct!</font></div></div><div class = prompt_box><p class = center-block-text style = ""font-size:16px; line-height:80%%;"">square: Z key</p><p class = center-block-text style = ""font-size:16px; line-height:80%%;"">circle: M key</p><p class = center-block-text style = ""font-size:16px; line-height:80%%;"">Do not respond if a star appears!</p><p class = center-block-text style = ""font-size:16px; line-height:80%%;"">Do not respond if the shape is outlined!</p></div>",,,,121960,0.0,practice-stop-feedback,73,poldrack-single-stim,
74,,,,,,,,500.0,,,,,,stop_signal_with_go_no_go,,,,,,,,0.0-0.0-74.0,-1.0,none,,-1,,500.0,,<div class = centerbox><div class = fixation>+</div></div>,,,,122466,0.0,prompt_fixation,74,poldrack-single-stim,
75,400.0,400.0,400.0,500.0,<div class = bigbox><div class = centerbox><div class = starbox><img class = center src='/static/experiments/stop_signal_with_go_no_go/images/stopSignal.png'></img></div></div></div>,stop,,2000.0,,-1.0,0.0,0.0,25.0,stop_signal_with_go_no_go,,,,,,,go,0.0-0.0-75.0,90.0,"[90, 77]",,391,square,1000.0,solid,<div class = bigbox><div class = centerbox><div class = gng_number><div class = cue-text><img class = center src='/static/experiments/stop_signal_with_go_no_go/images/solid_square.png'></img></div></div></div></div>,0.0,stop,,124480,0.0,practice_trial,75,stop-signal,
76,,,,,,,,500.0,,,,,,stop_signal_with_go_no_go,,,,,,,,0.0-0.0-76.0,-1.0,none,,-1,,500.0,,"<div class = fb_box><div class = center-text><font size = 20>There was a star.</font></div></div><div class = prompt_box><p class = center-block-text style = ""font-size:16px; line-height:80%%;"">square: Z key</p><p class = center-block-text style = ""font-size:16px; line-height:80%%;"">circle: M key</p><p class = center-block-text style = ""font-size:16px; line-height:80%%;"">Do not respond if a star appears!</p><p class = center-block-text style = ""font-size:16px; line-height:80%%;"">Do not respond if the shape is outlined!</p></div>",,,,124988,0.0,practice-stop-feedback,76,poldrack-single-stim,
77,,,,,,,,500.0,,,,,,stop_signal_with_go_no_go,,,,,,,,0.0-0.0-77.0,-1.0,none,,-1,,500.0,,<div class = centerbox><div class = fixation>+</div></div>,,,,125499,0.0,prompt_fixation,77,poldrack-single-stim,
78,350.0,400.0,350.0,500.0,<div class = bigbox><div class = centerbox><div class = starbox><img class = center src='/static/experiments/stop_signal_with_go_no_go/images/stopSignal.png'></img></div></div></div>,go,,2000.0,,77.0,1.0,0.0,26.0,stop_signal_with_go_no_go,,,,,,1.0,go,0.0-0.0-78.0,77.0,"[90, 77]",,537,circle,1000.0,solid,<div class = bigbox><div class = centerbox><div class = gng_number><div class = cue-text><img class = center src='/static/experiments/stop_signal_with_go_no_go/images/solid_circle.png'></img></div></div></div></div>,,go,,127511,0.0,practice_trial,78,stop-signal,
79,,,,,,,,500.0,,,,,,stop_signal_with_go_no_go,,,,,,,,0.0-0.0-79.0,-1.0,none,,-1,,500.0,,"<div class = fb_box><div class = center-text><font size = 20>Correct!</font></div></div><div class = prompt_box><p class = center-block-text style = ""font-size:16px; line-height:80%%;"">square: Z key</p><p class = center-block-text style = ""font-size:16px; line-height:80%%;"">circle: M key</p><p class = center-block-text style = ""font-size:16px; line-height:80%%;"">Do not respond if a star appears!</p><p class = center-block-text style = ""font-size:16px; line-height:80%%;"">Do not respond if the shape is outlined!</p></div>",,,,128017,0.0,practice-stop-feedback,79,poldrack-single-stim,
80,,,,,,,,500.0,,,,,,stop_signal_with_go_no_go,,,,,,,,0.0-0.0-80.0,-1.0,none,,-1,,500.0,,<div class = centerbox><div class = fixation>+</div></div>,,,,128529,0.0,prompt_fixation,80,poldrack-single-stim,
81,350.0,400.0,350.0,500.0,<div class = bigbox><div class = centerbox><div class = starbox><img class = center src='/static/experiments/stop_signal_with_go_no_go/images/stopSignal.png'></img></div></div></div>,stop,,2000.0,,-1.0,1.0,0.0,27.0,stop_signal_with_go_no_go,,,,,,,go,0.0-0.0-81.0,-1.0,"[90, 77]",,-1,circle,1000.0,solid,<div class = bigbox><div class = centerbox><div class = gng_number><div class = cue-text><img class = center src='/static/experiments/stop_signal_with_go_no_go/images/solid_circle.png'></img></div></div></div></div>,1.0,stop,,130541,0.0,practice_trial,81,stop-signal,
82,,,,,,,,500.0,,,,,,stop_signal_with_go_no_go,,,,,,,,0.0-0.0-82.0,-1.0,none,,-1,,500.0,,"<div class = fb_box><div class = center-text><font size = 20>Correct!</font></div></div><div class = prompt_box><p class = center-block-text style = ""font-size:16px; line-height:80%%;"">square: Z key</p><p class = center-block-text style = ""font-size:16px; line-height:80%%;"">circle: M key</p><p class = center-block-text style = ""font-size:16px; line-height:80%%;"">Do not respond if a star appears!</p><p class = center-block-text style = ""font-size:16px; line-height:80%%;"">Do not respond if the shape is outlined!</p></div>",,,,131049,0.0,practice-stop-feedback,82,poldrack-single-stim,
83,,,,,,,,500.0,,,,,,stop_signal_with_go_no_go,,,,,,,,0.0-0.0-83.0,-1.0,none,,-1,,500.0,,<div class = centerbox><div class = fixation>+</div></div>,,,,131561,0.0,prompt_fixation,83,poldrack-single-stim,
84,400.0,400.0,400.0,500.0,<div class = bigbox><div class = centerbox><div class = starbox><img class = center src='/static/experiments/stop_signal_with_go_no_go/images/stopSignal.png'></img></div></div></div>,go,,2000.0,,77.0,1.0,0.0,28.0,stop_signal_with_go_no_go,,,,,,1.0,go,0.0-0.0-84.0,77.0,"[90, 77]",,583,circle,1000.0,solid,<div class = bigbox><div class = centerbox><div class = gng_number><div class = cue-text><img class = center src='/static/experiments/stop_signal_with_go_no_go/images/solid_circle.png'></img></div></div></div></div>,,go,,133571,0.0,practice_trial,84,stop-signal,
85,,,,,,,,500.0,,,,,,stop_signal_with_go_no_go,,,,,,,,0.0-0.0-85.0,-1.0,none,,-1,,500.0,,"<div class = fb_box><div class = center-text><font size = 20>Correct!</font></div></div><div class = prompt_box><p class = center-block-text style = ""font-size:16px; line-height:80%%;"">square: Z key</p><p class = center-block-text style = ""font-size:16px; line-height:80%%;"">circle: M key</p><p class = center-block-text style = ""font-size:16px; line-height:80%%;"">Do not respond if a star appears!</p><p class = center-block-text style = ""font-size:16px; line-height:80%%;"">Do not respond if the shape is outlined!</p></div>",,,,134078,0.0,practice-stop-feedback,85,poldrack-single-stim,
86,,,,,,,,500.0,,,,,,stop_signal_with_go_no_go,,,,,,,,0.0-0.0-86.0,-1.0,none,,-1,,500.0,,<div class = centerbox><div class = fixation>+</div></div>,,,,134592,0.0,prompt_fixation,86,poldrack-single-stim,
87,400.0,400.0,400.0,500.0,<div class = bigbox><div class = centerbox><div class = starbox><img class = center src='/static/experiments/stop_signal_with_go_no_go/images/stopSignal.png'></img></div></div></div>,go,,2000.0,,-1.0,1.0,0.0,29.0,stop_signal_with_go_no_go,,,,,,1.0,nogo,0.0-0.0-87.0,-1.0,"[90, 77]",,-1,circle,1000.0,outlined,<div class = bigbox><div class = centerbox><div class = gng_number><div class = cue-text><img class = center src='/static/experiments/stop_signal_with_go_no_go/images/outlined_circle.png'></img></div></div></div></div>,,go,,136605,0.0,practice_trial,87,stop-signal,
88,,,,,,,,500.0,,,,,,stop_signal_with_go_no_go,,,,,,,,0.0-0.0-88.0,-1.0,none,,-1,,500.0,,"<div class = fb_box><div class = center-text><font size = 20>Correct!</font></div></div><div class = prompt_box><p class = center-block-text style = ""font-size:16px; line-height:80%%;"">square: Z key</p><p class = center-block-text style = ""font-size:16px; line-height:80%%;"">circle: M key</p><p class = center-block-text style = ""font-size:16px; line-height:80%%;"">Do not respond if a star appears!</p><p class = center-block-text style = ""font-size:16px; line-height:80%%;"">Do not respond if the shape is outlined!</p></div>",,,,137111,0.0,practice-stop-feedback,88,poldrack-single-stim,
89,,,,,,,,500.0,,,,,,stop_signal_with_go_no_go,,,,,,,,0.0-0.0-89.0,-1.0,none,,-1,,500.0,,<div class = centerbox><div class = fixation>+</div></div>,,,,137620,0.0,prompt_fixation,89,poldrack-single-stim,
90,400.0,400.0,400.0,500.0,<div class = bigbox><div class = centerbox><div class = starbox><img class = center src='/static/experiments/stop_signal_with_go_no_go/images/stopSignal.png'></img></div></div></div>,stop,,2000.0,,-1.0,1.0,0.0,30.0,stop_signal_with_go_no_go,,,,,,,go,0.0-0.0-90.0,-1.0,"[90, 77]",,-1,square,1000.0,solid,<div class = bigbox><div class = centerbox><div class = gng_number><div class = cue-text><img class = center src='/static/experiments/stop_signal_with_go_no_go/images/solid_square.png'></img></div></div></div></div>,1.0,stop,,139632,0.0,practice_trial,90,stop-signal,
91,,,,,,,,500.0,,,,,,stop_signal_with_go_no_go,,,,,,,,0.0-0.0-91.0,-1.0,none,,-1,,500.0,,"<div class = fb_box><div class = center-text><font size = 20>Correct!</font></div></div><div class = prompt_box><p class = center-block-text style = ""font-size:16px; line-height:80%%;"">square: Z key</p><p class = center-block-text style = ""font-size:16px; line-height:80%%;"">circle: M key</p><p class = center-block-text style = ""font-size:16px; line-height:80%%;"">Do not respond if a star appears!</p><p class = center-block-text style = ""font-size:16px; line-height:80%%;"">Do not respond if the shape is outlined!</p></div>",,,,140137,0.0,practice-stop-feedback,91,poldrack-single-stim,
92,,,,,,,,500.0,,,,,,stop_signal_with_go_no_go,,,,,,,,0.0-0.0-92.0,-1.0,none,,-1,,500.0,,<div class = centerbox><div class = fixation>+</div></div>,,,,140650,0.0,prompt_fixation,92,poldrack-single-stim,
93,450.0,400.0,450.0,500.0,<div class = bigbox><div class = centerbox><div class = starbox><img class = center src='/static/experiments/stop_signal_with_go_no_go/images/stopSignal.png'></img></div></div></div>,go,,2000.0,,77.0,0.0,0.0,31.0,stop_signal_with_go_no_go,,,,,,0.0,go,0.0-0.0-93.0,90.0,"[90, 77]",,813,circle,1000.0,solid,<div class = bigbox><div class = centerbox><div class = gng_number><div class = cue-text><img class = center src='/static/experiments/stop_signal_with_go_no_go/images/solid_circle.png'></img></div></div></div></div>,,go,,142662,0.0,practice_trial,93,stop-signal,
94,,,,,,,,500.0,,,,,,stop_signal_with_go_no_go,,,,,,,,0.0-0.0-94.0,-1.0,none,,-1,,500.0,,"<div class = fb_box><div class = center-text><font size = 20>Incorrect</font></div></div><div class = prompt_box><p class = center-block-text style = ""font-size:16px; line-height:80%%;"">square: Z key</p><p class = center-block-text style = ""font-size:16px; line-height:80%%;"">circle: M key</p><p class = center-block-text style = ""font-size:16px; line-height:80%%;"">Do not respond if a star appears!</p><p class = center-block-text style = ""font-size:16px; line-height:80%%;"">Do not respond if the shape is outlined!</p></div>",,,,143168,0.0,practice-stop-feedback,94,poldrack-single-stim,
95,,,,,,,,500.0,,,,,,stop_signal_with_go_no_go,,,,,,,,0.0-0.0-95.0,-1.0,none,,-1,,500.0,,<div class = centerbox><div class = fixation>+</div></div>,,,,143679,0.0,prompt_fixation,95,poldrack-single-stim,
96,450.0,400.0,450.0,500.0,<div class = bigbox><div class = centerbox><div class = starbox><img class = center src='/static/experiments/stop_signal_with_go_no_go/images/stopSignal.png'></img></div></div></div>,go,,2000.0,,77.0,1.0,0.0,32.0,stop_signal_with_go_no_go,,,,,,1.0,go,0.0-0.0-96.0,77.0,"[90, 77]",,693,circle,1000.0,solid,<div class = bigbox><div class = centerbox><div class = gng_number><div class = cue-text><img class = center src='/static/experiments/stop_signal_with_go_no_go/images/solid_circle.png'></img></div></div></div></div>,,go,,145689,0.0,practice_trial,96,stop-signal,
97,,,,,,,,500.0,,,,,,stop_signal_with_go_no_go,,,,,,,,0.0-0.0-97.0,-1.0,none,,-1,,500.0,,"<div class = fb_box><div class = center-text><font size = 20>Correct!</font></div></div><div class = prompt_box><p class = center-block-text style = ""font-size:16px; line-height:80%%;"">square: Z key</p><p class = center-block-text style = ""font-size:16px; line-height:80%%;"">circle: M key</p><p class = center-block-text style = ""font-size:16px; line-height:80%%;"">Do not respond if a star appears!</p><p class = center-block-text style = ""font-size:16px; line-height:80%%;"">Do not respond if the shape is outlined!</p></div>",,,,146195,0.0,practice-stop-feedback,97,poldrack-single-stim,
98,,,,,,,,500.0,,,,,,stop_signal_with_go_no_go,,,,,,,,0.0-0.0-98.0,-1.0,none,,-1,,500.0,,<div class = centerbox><div class = fixation>+</div></div>,,,,146710,0.0,prompt_fixation,98,poldrack-single-stim,
99,450.0,400.0,450.0,500.0,<div class = bigbox><div class = centerbox><div class = starbox><img class = center src='/static/experiments/stop_signal_with_go_no_go/images/stopSignal.png'></img></div></div></div>,go,,2000.0,,90.0,1.0,0.0,33.0,stop_signal_with_go_no_go,,,,,,1.0,go,0.0-0.0-99.0,90.0,"[90, 77]",,472,square,1000.0,solid,<div class = bigbox><div class = centerbox><div class = gng_number><div class = cue-text><img class = center src='/static/experiments/stop_signal_with_go_no_go/images/solid_square.png'></img></div></div></div></div>,,go,,148721,0.0,practice_trial,99,stop-signal,
100,,,,,,,,500.0,,,,,,stop_signal_with_go_no_go,,,,,,,,0.0-0.0-100.0,-1.0,none,,-1,,500.0,,"<div class = fb_box><div class = center-text><font size = 20>Correct!</font></div></div><div class = prompt_box><p class = center-block-text style = ""font-size:16px; line-height:80%%;"">square: Z key</p><p class = center-block-text style = ""font-size:16px; line-height:80%%;"">circle: M key</p><p class = center-block-text style = ""font-size:16px; line-height:80%%;"">Do not respond if a star appears!</p><p class = center-block-text style = ""font-size:16px; line-height:80%%;"">Do not respond if the shape is outlined!</p></div>",,,,149226,0.0,practice-stop-feedback,100,poldrack-single-stim,
101,,,,,,,,500.0,,,,,,stop_signal_with_go_no_go,,,,,,,,0.0-0.0-101.0,-1.0,none,,-1,,500.0,,<div class = centerbox><div class = fixation>+</div></div>,,,,149740,0.0,prompt_fixation,101,poldrack-single-stim,
102,450.0,400.0,450.0,500.0,<div class = bigbox><div class = centerbox><div class = starbox><img class = center src='/static/experiments/stop_signal_with_go_no_go/images/stopSignal.png'></img></div></div></div>,go,,2000.0,,77.0,1.0,0.0,34.0,stop_signal_with_go_no_go,,,,,,1.0,go,0.0-0.0-102.0,77.0,"[90, 77]",,508,circle,1000.0,solid,<div class = bigbox><div class = centerbox><div class = gng_number><div class = cue-text><img class = center src='/static/experiments/stop_signal_with_go_no_go/images/solid_circle.png'></img></div></div></div></div>,,go,,151749,0.0,practice_trial,102,stop-signal,
103,,,,,,,,500.0,,,,,,stop_signal_with_go_no_go,,,,,,,,0.0-0.0-103.0,-1.0,none,,-1,,500.0,,"<div class = fb_box><div class = center-text><font size = 20>Correct!</font></div></div><div class = prompt_box><p class = center-block-text style = ""font-size:16px; line-height:80%%;"">square: Z key</p><p class = center-block-text style = ""font-size:16px; line-height:80%%;"">circle: M key</p><p class = center-block-text style = ""font-size:16px; line-height:80%%;"">Do not respond if a star appears!</p><p class = center-block-text style = ""font-size:16px; line-height:80%%;"">Do not respond if the shape is outlined!</p></div>",,,,152254,0.0,practice-stop-feedback,103,poldrack-single-stim,
104,,,,,,,,500.0,,,,,,stop_signal_with_go_no_go,,,,,,,,0.0-0.0-104.0,-1.0,none,,-1,,500.0,,<div class = centerbox><div class = fixation>+</div></div>,,,,152769,0.0,prompt_fixation,104,poldrack-single-stim,
105,450.0,400.0,400.0,500.0,<div class = bigbox><div class = centerbox><div class = starbox><img class = center src='/static/experiments/stop_signal_with_go_no_go/images/stopSignal.png'></img></div></div></div>,stop,,2000.0,,-1.0,1.0,0.0,35.0,stop_signal_with_go_no_go,,,,,,,nogo,0.0-0.0-105.0,-1.0,"[90, 77]",,-1,square,1000.0,outlined,<div class = bigbox><div class = centerbox><div class = gng_number><div class = cue-text><img class = center src='/static/experiments/stop_signal_with_go_no_go/images/outlined_square.png'></img></div></div></div></div>,1.0,stop,,154780,0.0,practice_trial,105,stop-signal,
106,,,,,,,,500.0,,,,,,stop_signal_with_go_no_go,,,,,,,,0.0-0.0-106.0,-1.0,none,,-1,,500.0,,"<div class = fb_box><div class = center-text><font size = 20>Correct!</font></div></div><div class = prompt_box><p class = center-block-text style = ""font-size:16px; line-height:80%%;"">square: Z key</p><p class = center-block-text style = ""font-size:16px; line-height:80%%;"">circle: M key</p><p class = center-block-text style = ""font-size:16px; line-height:80%%;"">Do not respond if a star appears!</p><p class = center-block-text style = ""font-size:16px; line-height:80%%;"">Do not respond if the shape is outlined!</p></div>",,,,155303,0.0,practice-stop-feedback,106,poldrack-single-stim,
107,,,,,,,,500.0,,,,,,stop_signal_with_go_no_go,,,,,,,,0.0-0.0-107.0,-1.0,none,,-1,,500.0,,<div class = centerbox><div class = fixation>+</div></div>,,,,155811,0.0,prompt_fixation,107,poldrack-single-stim,
108,450.0,450.0,450.0,500.0,<div class = bigbox><div class = centerbox><div class = starbox><img class = center src='/static/experiments/stop_signal_with_go_no_go/images/stopSignal.png'></img></div></div></div>,go,,2000.0,,90.0,1.0,0.0,36.0,stop_signal_with_go_no_go,,,,,,1.0,go,0.0-0.0-108.0,90.0,"[90, 77]",,734,square,1000.0,solid,<div class = bigbox><div class = centerbox><div class = gng_number><div class = cue-text><img class = center src='/static/experiments/stop_signal_with_go_no_go/images/solid_square.png'></img></div></div></div></div>,,go,,157833,0.0,practice_trial,108,stop-signal,
109,,,,,,,,500.0,,,,,,stop_signal_with_go_no_go,,,,,,,,0.0-0.0-109.0,-1.0,none,,-1,,500.0,,"<div class = fb_box><div class = center-text><font size = 20>Correct!</font></div></div><div class = prompt_box><p class = center-block-text style = ""font-size:16px; line-height:80%%;"">square: Z key</p><p class = center-block-text style = ""font-size:16px; line-height:80%%;"">circle: M key</p><p class = center-block-text style = ""font-size:16px; line-height:80%%;"">Do not respond if a star appears!</p><p class = center-block-text style = ""font-size:16px; line-height:80%%;"">Do not respond if the shape is outlined!</p></div>",,,,158341,0.0,practice-stop-feedback,109,poldrack-single-stim,
110,,,,,,,,500.0,,,,,,stop_signal_with_go_no_go,,,,,,,,0.0-0.0-110.0,-1.0,none,,-1,,500.0,,<div class = centerbox><div class = fixation>+</div></div>,,,,158849,0.0,prompt_fixation,110,poldrack-single-stim,
111,450.0,450.0,450.0,500.0,<div class = bigbox><div class = centerbox><div class = starbox><img class = center src='/static/experiments/stop_signal_with_go_no_go/images/stopSignal.png'></img></div></div></div>,go,,2000.0,,77.0,1.0,0.0,37.0,stop_signal_with_go_no_go,,,,,,1.0,go,0.0-0.0-111.0,77.0,"[90, 77]",,740,circle,1000.0,solid,<div class = bigbox><div class = centerbox><div class = gng_number><div class = cue-text><img class = center src='/static/experiments/stop_signal_with_go_no_go/images/solid_circle.png'></img></div></div></div></div>,,go,,160864,0.0,practice_trial,111,stop-signal,
112,,,,,,,,500.0,,,,,,stop_signal_with_go_no_go,,,,,,,,0.0-0.0-112.0,-1.0,none,,-1,,500.0,,"<div class = fb_box><div class = center-text><font size = 20>Correct!</font></div></div><div class = prompt_box><p class = center-block-text style = ""font-size:16px; line-height:80%%;"">square: Z key</p><p class = center-block-text style = ""font-size:16px; line-height:80%%;"">circle: M key</p><p class = center-block-text style = ""font-size:16px; line-height:80%%;"">Do not respond if a star appears!</p><p class = center-block-text style = ""font-size:16px; line-height:80%%;"">Do not respond if the shape is outlined!</p></div>",,,,161370,0.0,practice-stop-feedback,112,poldrack-single-stim,
113,,,,,,,,500.0,,,,,,stop_signal_with_go_no_go,,,,,,,,0.0-0.0-113.0,-1.0,none,,-1,,500.0,,<div class = centerbox><div class = fixation>+</div></div>,,,,161886,0.0,prompt_fixation,113,poldrack-single-stim,
114,450.0,450.0,450.0,500.0,<div class = bigbox><div class = centerbox><div class = starbox><img class = center src='/static/experiments/stop_signal_with_go_no_go/images/stopSignal.png'></img></div></div></div>,stop,,2000.0,,-1.0,1.0,0.0,38.0,stop_signal_with_go_no_go,,,,,,,go,0.0-0.0-114.0,-1.0,"[90, 77]",,-1,circle,1000.0,solid,<div class = bigbox><div class = centerbox><div class = gng_number><div class = cue-text><img class = center src='/static/experiments/stop_signal_with_go_no_go/images/solid_circle.png'></img></div></div></div></div>,1.0,stop,,163891,0.0,practice_trial,114,stop-signal,
115,,,,,,,,500.0,,,,,,stop_signal_with_go_no_go,,,,,,,,0.0-0.0-115.0,-1.0,none,,-1,,500.0,,"<div class = fb_box><div class = center-text><font size = 20>Correct!</font></div></div><div class = prompt_box><p class = center-block-text style = ""font-size:16px; line-height:80%%;"">square: Z key</p><p class = center-block-text style = ""font-size:16px; line-height:80%%;"">circle: M key</p><p class = center-block-text style = ""font-size:16px; line-height:80%%;"">Do not respond if a star appears!</p><p class = center-block-text style = ""font-size:16px; line-height:80%%;"">Do not respond if the shape is outlined!</p></div>",,,,164396,0.0,practice-stop-feedback,115,poldrack-single-stim,
116,,,,,,,,500.0,,,,,,stop_signal_with_go_no_go,,,,,,,,0.0-0.0-116.0,-1.0,none,,-1,,500.0,,<div class = centerbox><div class = fixation>+</div></div>,,,,164905,0.0,prompt_fixation,116,poldrack-single-stim,
117,500.0,450.0,500.0,500.0,<div class = bigbox><div class = centerbox><div class = starbox><img class = center src='/static/experiments/stop_signal_with_go_no_go/images/stopSignal.png'></img></div></div></div>,go,,2000.0,,90.0,1.0,0.0,39.0,stop_signal_with_go_no_go,,,,,,1.0,go,0.0-0.0-117.0,90.0,"[90, 77]",,512,square,1000.0,solid,<div class = bigbox><div class = centerbox><div class = gng_number><div class = cue-text><img class = center src='/static/experiments/stop_signal_with_go_no_go/images/solid_square.png'></img></div></div></div></div>,,go,,166922,0.0,practice_trial,117,stop-signal,
118,,,,,,,,500.0,,,,,,stop_signal_with_go_no_go,,,,,,,,0.0-0.0-118.0,-1.0,none,,-1,,500.0,,"<div class = fb_box><div class = center-text><font size = 20>Correct!</font></div></div><div class = prompt_box><p class = center-block-text style = ""font-size:16px; line-height:80%%;"">square: Z key</p><p class = center-block-text style = ""font-size:16px; line-height:80%%;"">circle: M key</p><p class = center-block-text style = ""font-size:16px; line-height:80%%;"">Do not respond if a star appears!</p><p class = center-block-text style = ""font-size:16px; line-height:80%%;"">Do not respond if the shape is outlined!</p></div>",,,,167428,0.0,practice-stop-feedback,118,poldrack-single-stim,
119,,,,,,,,500.0,,,,,,stop_signal_with_go_no_go,,,,,,,,0.0-0.0-119.0,-1.0,none,,-1,,500.0,,<div class = centerbox><div class = fixation>+</div></div>,,,,167946,0.0,prompt_fixation,119,poldrack-single-stim,
120,500.0,450.0,500.0,500.0,<div class = bigbox><div class = centerbox><div class = starbox><img class = center src='/static/experiments/stop_signal_with_go_no_go/images/stopSignal.png'></img></div></div></div>,go,,2000.0,,90.0,1.0,0.0,40.0,stop_signal_with_go_no_go,,,,,,1.0,go,0.0-0.0-120.0,90.0,"[90, 77]",,810,square,1000.0,solid,<div class = bigbox><div class = centerbox><div class = gng_number><div class = cue-text><img class = center src='/static/experiments/stop_signal_with_go_no_go/images/solid_square.png'></img></div></div></div></div>,,go,,169960,0.0,practice_trial,120,stop-signal,
121,,,,,,,,500.0,,,,,,stop_signal_with_go_no_go,,,,,,,,0.0-0.0-121.0,-1.0,none,,-1,,500.0,,"<div class = fb_box><div class = center-text><font size = 20>Correct!</font></div></div><div class = prompt_box><p class = center-block-text style = ""font-size:16px; line-height:80%%;"">square: Z key</p><p class = center-block-text style = ""font-size:16px; line-height:80%%;"">circle: M key</p><p class = center-block-text style = ""font-size:16px; line-height:80%%;"">Do not respond if a star appears!</p><p class = center-block-text style = ""font-size:16px; line-height:80%%;"">Do not respond if the shape is outlined!</p></div>",,,,170465,0.0,practice-stop-feedback,121,poldrack-single-stim,
122,,,,,,,,500.0,,,,,,stop_signal_with_go_no_go,,,,,,,,0.0-0.0-122.0,-1.0,none,,-1,,500.0,,<div class = centerbox><div class = fixation>+</div></div>,,,,170973,0.0,prompt_fixation,122,poldrack-single-stim,
123,500.0,450.0,500.0,500.0,<div class = bigbox><div class = centerbox><div class = starbox><img class = center src='/static/experiments/stop_signal_with_go_no_go/images/stopSignal.png'></img></div></div></div>,go,,2000.0,,77.0,1.0,0.0,41.0,stop_signal_with_go_no_go,,,,,,1.0,go,0.0-0.0-123.0,77.0,"[90, 77]",,477,circle,1000.0,solid,<div class = bigbox><div class = centerbox><div class = gng_number><div class = cue-text><img class = center src='/static/experiments/stop_signal_with_go_no_go/images/solid_circle.png'></img></div></div></div></div>,,go,,172989,0.0,practice_trial,123,stop-signal,
124,,,,,,,,500.0,,,,,,stop_signal_with_go_no_go,,,,,,,,0.0-0.0-124.0,-1.0,none,,-1,,500.0,,"<div class = fb_box><div class = center-text><font size = 20>Correct!</font></div></div><div class = prompt_box><p class = center-block-text style = ""font-size:16px; line-height:80%%;"">square: Z key</p><p class = center-block-text style = ""font-size:16px; line-height:80%%;"">circle: M key</p><p class = center-block-text style = ""font-size:16px; line-height:80%%;"">Do not respond if a star appears!</p><p class = center-block-text style = ""font-size:16px; line-height:80%%;"">Do not respond if the shape is outlined!</p></div>",,,,173497,0.0,practice-stop-feedback,124,poldrack-single-stim,
125,,,,,,,,500.0,,,,,,stop_signal_with_go_no_go,,,,,,,,0.0-0.0-125.0,-1.0,none,,-1,,500.0,,<div class = centerbox><div class = fixation>+</div></div>,,,,174010,0.0,prompt_fixation,125,poldrack-single-stim,
126,500.0,450.0,500.0,500.0,<div class = bigbox><div class = centerbox><div class = starbox><img class = center src='/static/experiments/stop_signal_with_go_no_go/images/stopSignal.png'></img></div></div></div>,stop,,2000.0,,-1.0,0.0,0.0,42.0,stop_signal_with_go_no_go,,,,,,,go,0.0-0.0-126.0,90.0,"[90, 77]",,516,square,1000.0,solid,<div class = bigbox><div class = centerbox><div class = gng_number><div class = cue-text><img class = center src='/static/experiments/stop_signal_with_go_no_go/images/solid_square.png'></img></div></div></div></div>,0.0,stop,,176018,0.0,practice_trial,126,stop-signal,
127,,,,,,,,500.0,,,,,,stop_signal_with_go_no_go,,,,,,,,0.0-0.0-127.0,-1.0,none,,-1,,500.0,,"<div class = fb_box><div class = center-text><font size = 20>There was a star.</font></div></div><div class = prompt_box><p class = center-block-text style = ""font-size:16px; line-height:80%%;"">square: Z key</p><p class = center-block-text style = ""font-size:16px; line-height:80%%;"">circle: M key</p><p class = center-block-text style = ""font-size:16px; line-height:80%%;"">Do not respond if a star appears!</p><p class = center-block-text style = ""font-size:16px; line-height:80%%;"">Do not respond if the shape is outlined!</p></div>",,,,176526,0.0,practice-stop-feedback,127,poldrack-single-stim,
128,,,,,,,,2322.0,,,,,,stop_signal_with_go_no_go,,,,,,,,0.0-1.0,13.0,[13],,2322,,2322.0,,"<div class = bigbox><div class = picture_box><p class = block-text><font color=""white""><br>Please take this time to read your feedback and to take a short break. Press enter to continue.</p><p class = block-text>Done with this practice.</font></p></div></div>",,,,178872,0.0,practice-no-stop-feedback,128,poldrack-single-stim,
129,,,,,,,,2312.0,,,,,,stop_signal_with_go_no_go,,,,,,,,0.0-2.0,13.0,[13],,2312,,2312.0,,"<div class = centerbox><p class = block-text>We will now begin the test portion.</p><p class = block-text>You will see a shape on every trial. Please respond to each shape as quickly and accurately as possible!</p><p class = block-text>If the shape is a square, press the Z key. If the shape is a circle, press the M key.</p><p class = block-text>Do not respond if you see a star! Do not respond if the shape is outlined!</p><p class = block-text>You will no longer receive the rule prompt, so remember the instructions before you continue. Press Enter to begin.</p></div>",,,,181187,0.0,test_intro,129,poldrack-single-stim,
130,,,,,,,,1875.0,,,,,,stop_signal_with_go_no_go,,,,,,,,0.0-3.0-0.0,13.0,[13],,1875,,1875.0,,"<div class = bigbox><div class = picture_box><p class = block-text><font color=""white"">We will now start the test session. Please concentrate on responding quickly and accurately to each stimulus.</font></p></div></div>",,,,183065,0.0,practice-no-stop-feedback,130,poldrack-single-stim,
131,,,,,,,,3450.0,True,77.0,,,,stop_signal_with_go_no_go,,,,,,,,0.0-3.0-1.0-0.0,77.0,[],,3450,,3450.0,,"<p>If (4 + 12) / 4 is greater than 3 press the ""M"" key. Otherwise press the ""Z"" key.</p>",,,,186520,200.0,attention_check,131,attention-check,
132,,,,,,,,500.0,,,,,,stop_signal_with_go_no_go,,,,,,,,0.0-3.0-2.0,-1.0,none,,-1,,500.0,,<div class = centerbox><div class = fixation>+</div></div>,,,,187229,0.0,fixation,132,poldrack-single-stim,
133,450.0,450.0,450.0,500.0,<div class = bigbox><div class = centerbox><div class = starbox><img class = center src='/static/experiments/stop_signal_with_go_no_go/images/stopSignal.png'></img></div></div></div>,go,,2000.0,,77.0,1.0,0.0,1.0,stop_signal_with_go_no_go,,,,,,1.0,go,0.0-3.0-3.0,77.0,"[90, 77]",,470,circle,1000.0,solid,<div class = bigbox><div class = centerbox><div class = gng_number><div class = cue-text><img class = center src='/static/experiments/stop_signal_with_go_no_go/images/solid_circle.png'></img></div></div></div></div>,,go,,189237,0.0,test_trial,133,stop-signal,
134,,,,,,,,500.0,,,,,,stop_signal_with_go_no_go,,,,,,,,0.0-3.0-4.0,-1.0,none,,-1,,500.0,,<div class = centerbox><div class = fixation>+</div></div>,,,,189757,0.0,fixation,134,poldrack-single-stim,
135,450.0,450.0,450.0,500.0,<div class = bigbox><div class = centerbox><div class = starbox><img class = center src='/static/experiments/stop_signal_with_go_no_go/images/stopSignal.png'></img></div></div></div>,go,,2000.0,,90.0,1.0,0.0,2.0,stop_signal_with_go_no_go,,,,,,1.0,go,0.0-3.0-5.0,90.0,"[90, 77]",,512,square,1000.0,solid,<div class = bigbox><div class = centerbox><div class = gng_number><div class = cue-text><img class = center src='/static/experiments/stop_signal_with_go_no_go/images/solid_square.png'></img></div></div></div></div>,,go,,191762,0.0,test_trial,135,stop-signal,
136,,,,,,,,500.0,,,,,,stop_signal_with_go_no_go,,,,,,,,0.0-3.0-6.0,-1.0,none,,-1,,500.0,,<div class = centerbox><div class = fixation>+</div></div>,,,,192268,0.0,fixation,136,poldrack-single-stim,
137,450.0,450.0,450.0,500.0,<div class = bigbox><div class = centerbox><div class = starbox><img class = center src='/static/experiments/stop_signal_with_go_no_go/images/stopSignal.png'></img></div></div></div>,go,,2000.0,,77.0,1.0,0.0,3.0,stop_signal_with_go_no_go,,,,,,1.0,go,0.0-3.0-7.0,77.0,"[90, 77]",,388,circle,1000.0,solid,<div class = bigbox><div class = centerbox><div class = gng_number><div class = cue-text><img class = center src='/static/experiments/stop_signal_with_go_no_go/images/solid_circle.png'></img></div></div></div></div>,,go,,194282,0.0,test_trial,137,stop-signal,
138,,,,,,,,500.0,,,,,,stop_signal_with_go_no_go,,,,,,,,0.0-3.0-8.0,-1.0,none,,-1,,500.0,,<div class = centerbox><div class = fixation>+</div></div>,,,,194797,0.0,fixation,138,poldrack-single-stim,
139,450.0,450.0,450.0,500.0,<div class = bigbox><div class = centerbox><div class = starbox><img class = center src='/static/experiments/stop_signal_with_go_no_go/images/stopSignal.png'></img></div></div></div>,stop,,2000.0,,-1.0,0.0,0.0,4.0,stop_signal_with_go_no_go,,,,,,,go,0.0-3.0-9.0,77.0,"[90, 77]",,336,circle,1000.0,solid,<div class = bigbox><div class = centerbox><div class = gng_number><div class = cue-text><img class = center src='/static/experiments/stop_signal_with_go_no_go/images/solid_circle.png'></img></div></div></div></div>,0.0,stop,,196802,0.0,test_trial,139,stop-signal,
140,,,,,,,,500.0,,,,,,stop_signal_with_go_no_go,,,,,,,,0.0-3.0-10.0,-1.0,none,,-1,,500.0,,<div class = centerbox><div class = fixation>+</div></div>,,,,197319,0.0,fixation,140,poldrack-single-stim,
141,400.0,450.0,450.0,500.0,<div class = bigbox><div class = centerbox><div class = starbox><img class = center src='/static/experiments/stop_signal_with_go_no_go/images/stopSignal.png'></img></div></div></div>,stop,,2000.0,,-1.0,1.0,0.0,5.0,stop_signal_with_go_no_go,,,,,,,nogo,0.0-3.0-11.0,-1.0,"[90, 77]",,-1,circle,1000.0,outlined,<div class = bigbox><div class = centerbox><div class = gng_number><div class = cue-text><img class = center src='/static/experiments/stop_signal_with_go_no_go/images/outlined_circle.png'></img></div></div></div></div>,1.0,stop,,199325,0.0,test_trial,141,stop-signal,
142,,,,,,,,500.0,,,,,,stop_signal_with_go_no_go,,,,,,,,0.0-3.0-12.0,-1.0,none,,-1,,500.0,,<div class = centerbox><div class = fixation>+</div></div>,,,,199833,0.0,fixation,142,poldrack-single-stim,
143,400.0,500.0,400.0,500.0,<div class = bigbox><div class = centerbox><div class = starbox><img class = center src='/static/experiments/stop_signal_with_go_no_go/images/stopSignal.png'></img></div></div></div>,go,,2000.0,,90.0,1.0,0.0,6.0,stop_signal_with_go_no_go,,,,,,1.0,go,0.0-3.0-13.0,90.0,"[90, 77]",,720,square,1000.0,solid,<div class = bigbox><div class = centerbox><div class = gng_number><div class = cue-text><img class = center src='/static/experiments/stop_signal_with_go_no_go/images/solid_square.png'></img></div></div></div></div>,,go,,201848,0.0,test_trial,143,stop-signal,
144,,,,,,,,500.0,,,,,,stop_signal_with_go_no_go,,,,,,,,0.0-3.0-14.0,-1.0,none,,-1,,500.0,,<div class = centerbox><div class = fixation>+</div></div>,,,,202355,0.0,fixation,144,poldrack-single-stim,
145,400.0,500.0,400.0,500.0,<div class = bigbox><div class = centerbox><div class = starbox><img class = center src='/static/experiments/stop_signal_with_go_no_go/images/stopSignal.png'></img></div></div></div>,go,,2000.0,,90.0,1.0,0.0,7.0,stop_signal_with_go_no_go,,,,,,1.0,go,0.0-3.0-15.0,90.0,"[90, 77]",,403,square,1000.0,solid,<div class = bigbox><div class = centerbox><div class = gng_number><div class = cue-text><img class = center src='/static/experiments/stop_signal_with_go_no_go/images/solid_square.png'></img></div></div></div></div>,,go,,204371,0.0,test_trial,145,stop-signal,
146,,,,,,,,500.0,,,,,,stop_signal_with_go_no_go,,,,,,,,0.0-3.0-16.0,-1.0,none,,-1,,500.0,,<div class = centerbox><div class = fixation>+</div></div>,,,,204879,0.0,fixation,146,poldrack-single-stim,
147,400.0,500.0,400.0,500.0,<div class = bigbox><div class = centerbox><div class = starbox><img class = center src='/static/experiments/stop_signal_with_go_no_go/images/stopSignal.png'></img></div></div></div>,go,,2000.0,,90.0,1.0,0.0,8.0,stop_signal_with_go_no_go,,,,,,1.0,go,0.0-3.0-17.0,90.0,"[90, 77]",,292,square,1000.0,solid,<div class = bigbox><div class = centerbox><div class = gng_number><div class = cue-text><img class = center src='/static/experiments/stop_signal_with_go_no_go/images/solid_square.png'></img></div></div></div></div>,,go,,206889,0.0,test_trial,147,stop-signal,
148,,,,,,,,500.0,,,,,,stop_signal_with_go_no_go,,,,,,,,0.0-3.0-18.0,-1.0,none,,-1,,500.0,,<div class = centerbox><div class = fixation>+</div></div>,,,,207396,0.0,fixation,148,poldrack-single-stim,
149,400.0,500.0,400.0,500.0,<div class = bigbox><div class = centerbox><div class = starbox><img class = center src='/static/experiments/stop_signal_with_go_no_go/images/stopSignal.png'></img></div></div></div>,go,,2000.0,,77.0,1.0,0.0,9.0,stop_signal_with_go_no_go,,,,,,1.0,go,0.0-3.0-19.0,77.0,"[90, 77]",,418,circle,1000.0,solid,<div class = bigbox><div class = centerbox><div class = gng_number><div class = cue-text><img class = center src='/static/experiments/stop_signal_with_go_no_go/images/solid_circle.png'></img></div></div></div></div>,,go,,209410,0.0,test_trial,149,stop-signal,
150,,,,,,,,500.0,,,,,,stop_signal_with_go_no_go,,,,,,,,0.0-3.0-20.0,-1.0,none,,-1,,500.0,,<div class = centerbox><div class = fixation>+</div></div>,,,,209918,0.0,fixation,150,poldrack-single-stim,
151,400.0,500.0,400.0,500.0,<div class = bigbox><div class = centerbox><div class = starbox><img class = center src='/static/experiments/stop_signal_with_go_no_go/images/stopSignal.png'></img></div></div></div>,stop,,2000.0,,-1.0,0.0,0.0,10.0,stop_signal_with_go_no_go,,,,,,,go,0.0-3.0-21.0,77.0,"[90, 77]",,384,circle,1000.0,solid,<div class = bigbox><div class = centerbox><div class = gng_number><div class = cue-text><img class = center src='/static/experiments/stop_signal_with_go_no_go/images/solid_circle.png'></img></div></div></div></div>,0.0,stop,,211929,0.0,test_trial,151,stop-signal,
152,,,,,,,,500.0,,,,,,stop_signal_with_go_no_go,,,,,,,,0.0-3.0-22.0,-1.0,none,,-1,,500.0,,<div class = centerbox><div class = fixation>+</div></div>,,,,212439,0.0,fixation,152,poldrack-single-stim,
153,350.0,500.0,500.0,500.0,<div class = bigbox><div class = centerbox><div class = starbox><img class = center src='/static/experiments/stop_signal_with_go_no_go/images/stopSignal.png'></img></div></div></div>,go,,2000.0,,-1.0,1.0,0.0,11.0,stop_signal_with_go_no_go,,,,,,1.0,nogo,0.0-3.0-23.0,-1.0,"[90, 77]",,-1,circle,1000.0,outlined,<div class = bigbox><div class = centerbox><div class = gng_number><div class = cue-text><img class = center src='/static/experiments/stop_signal_with_go_no_go/images/outlined_circle.png'></img></div></div></div></div>,,go,,214453,0.0,test_trial,153,stop-signal,
154,,,,,,,,500.0,,,,,,stop_signal_with_go_no_go,,,,,,,,0.0-3.0-24.0,-1.0,none,,-1,,500.0,,<div class = centerbox><div class = fixation>+</div></div>,,,,214963,0.0,fixation,154,poldrack-single-stim,
155,350.0,500.0,350.0,500.0,<div class = bigbox><div class = centerbox><div class = starbox><img class = center src='/static/experiments/stop_signal_with_go_no_go/images/stopSignal.png'></img></div></div></div>,go,,2000.0,,77.0,1.0,0.0,12.0,stop_signal_with_go_no_go,,,,,,1.0,go,0.0-3.0-25.0,77.0,"[90, 77]",,678,circle,1000.0,solid,<div class = bigbox><div class = centerbox><div class = gng_number><div class = cue-text><img class = center src='/static/experiments/stop_signal_with_go_no_go/images/solid_circle.png'></img></div></div></div></div>,,go,,216979,0.0,test_trial,155,stop-signal,
156,,,,,,,,500.0,,,,,,stop_signal_with_go_no_go,,,,,,,,0.0-3.0-26.0,-1.0,none,,-1,,500.0,,<div class = centerbox><div class = fixation>+</div></div>,,,,217484,0.0,fixation,156,poldrack-single-stim,
157,350.0,500.0,350.0,500.0,<div class = bigbox><div class = centerbox><div class = starbox><img class = center src='/static/experiments/stop_signal_with_go_no_go/images/stopSignal.png'></img></div></div></div>,go,,2000.0,,77.0,1.0,0.0,13.0,stop_signal_with_go_no_go,,,,,,1.0,go,0.0-3.0-27.0,77.0,"[90, 77]",,367,circle,1000.0,solid,<div class = bigbox><div class = centerbox><div class = gng_number><div class = cue-text><img class = center src='/static/experiments/stop_signal_with_go_no_go/images/solid_circle.png'></img></div></div></div></div>,,go,,219492,0.0,test_trial,157,stop-signal,
158,,,,,,,,500.0,,,,,,stop_signal_with_go_no_go,,,,,,,,0.0-3.0-28.0,-1.0,none,,-1,,500.0,,<div class = centerbox><div class = fixation>+</div></div>,,,,220000,0.0,fixation,158,poldrack-single-stim,
159,350.0,500.0,350.0,500.0,<div class = bigbox><div class = centerbox><div class = starbox><img class = center src='/static/experiments/stop_signal_with_go_no_go/images/stopSignal.png'></img></div></div></div>,stop,,2000.0,,-1.0,0.0,0.0,14.0,stop_signal_with_go_no_go,,,,,,,go,0.0-3.0-29.0,77.0,"[90, 77]",,436,circle,1000.0,solid,<div class = bigbox><div class = centerbox><div class = gng_number><div class = cue-text><img class = center src='/static/experiments/stop_signal_with_go_no_go/images/solid_circle.png'></img></div></div></div></div>,0.0,stop,,222010,0.0,test_trial,159,stop-signal,
160,,,,,,,,500.0,,,,,,stop_signal_with_go_no_go,,,,,,,,0.0-3.0-30.0,-1.0,none,,-1,,500.0,,<div class = centerbox><div class = fixation>+</div></div>,,,,222514,0.0,fixation,160,poldrack-single-stim,
161,300.0,500.0,300.0,500.0,<div class = bigbox><div class = centerbox><div class = starbox><img class = center src='/static/experiments/stop_signal_with_go_no_go/images/stopSignal.png'></img></div></div></div>,go,,2000.0,,77.0,1.0,0.0,15.0,stop_signal_with_go_no_go,,,,,,1.0,go,0.0-3.0-31.0,77.0,"[90, 77]",,584,circle,1000.0,solid,<div class = bigbox><div class = centerbox><div class = gng_number><div class = cue-text><img class = center src='/static/experiments/stop_signal_with_go_no_go/images/solid_circle.png'></img></div></div></div></div>,,go,,224519,0.0,test_trial,161,stop-signal,
162,,,,,,,,500.0,,,,,,stop_signal_with_go_no_go,,,,,,,,0.0-3.0-32.0,-1.0,none,,-1,,500.0,,<div class = centerbox><div class = fixation>+</div></div>,,,,225027,0.0,fixation,162,poldrack-single-stim,
163,300.0,500.0,300.0,500.0,<div class = bigbox><div class = centerbox><div class = starbox><img class = center src='/static/experiments/stop_signal_with_go_no_go/images/stopSignal.png'></img></div></div></div>,go,,2000.0,,90.0,1.0,0.0,16.0,stop_signal_with_go_no_go,,,,,,1.0,go,0.0-3.0-33.0,90.0,"[90, 77]",,557,square,1000.0,solid,<div class = bigbox><div class = centerbox><div class = gng_number><div class = cue-text><img class = center src='/static/experiments/stop_signal_with_go_no_go/images/solid_square.png'></img></div></div></div></div>,,go,,227035,0.0,test_trial,163,stop-signal,
164,,,,,,,,500.0,,,,,,stop_signal_with_go_no_go,,,,,,,,0.0-3.0-34.0,-1.0,none,,-1,,500.0,,<div class = centerbox><div class = fixation>+</div></div>,,,,227540,0.0,fixation,164,poldrack-single-stim,
165,300.0,500.0,500.0,500.0,<div class = bigbox><div class = centerbox><div class = starbox><img class = center src='/static/experiments/stop_signal_with_go_no_go/images/stopSignal.png'></img></div></div></div>,go,,2000.0,,-1.0,1.0,0.0,17.0,stop_signal_with_go_no_go,,,,,,1.0,nogo,0.0-3.0-35.0,-1.0,"[90, 77]",,-1,square,1000.0,outlined,<div class = bigbox><div class = centerbox><div class = gng_number><div class = cue-text><img class = center src='/static/experiments/stop_signal_with_go_no_go/images/outlined_square.png'></img></div></div></div></div>,,go,,229556,0.0,test_trial,165,stop-signal,
166,,,,,,,,500.0,,,,,,stop_signal_with_go_no_go,,,,,,,,0.0-3.0-36.0,-1.0,none,,-1,,500.0,,<div class = centerbox><div class = fixation>+</div></div>,,,,230061,0.0,fixation,166,poldrack-single-stim,
167,300.0,500.0,500.0,500.0,<div class = bigbox><div class = centerbox><div class = starbox><img class = center src='/static/experiments/stop_signal_with_go_no_go/images/stopSignal.png'></img></div></div></div>,go,,2000.0,,-1.0,1.0,0.0,18.0,stop_signal_with_go_no_go,,,,,,1.0,nogo,0.0-3.0-37.0,-1.0,"[90, 77]",,-1,square,1000.0,outlined,<div class = bigbox><div class = centerbox><div class = gng_number><div class = cue-text><img class = center src='/static/experiments/stop_signal_with_go_no_go/images/outlined_square.png'></img></div></div></div></div>,,go,,232076,0.0,test_trial,167,stop-signal,
168,,,,,,,,500.0,,,,,,stop_signal_with_go_no_go,,,,,,,,0.0-3.0-38.0,-1.0,none,,-1,,500.0,,<div class = centerbox><div class = fixation>+</div></div>,,,,232585,0.0,fixation,168,poldrack-single-stim,
169,300.0,500.0,500.0,500.0,<div class = bigbox><div class = centerbox><div class = starbox><img class = center src='/static/experiments/stop_signal_with_go_no_go/images/stopSignal.png'></img></div></div></div>,go,,2000.0,,-1.0,1.0,0.0,19.0,stop_signal_with_go_no_go,,,,,,1.0,nogo,0.0-3.0-39.0,-1.0,"[90, 77]",,-1,square,1000.0,outlined,<div class = bigbox><div class = centerbox><div class = gng_number><div class = cue-text><img class = center src='/static/experiments/stop_signal_with_go_no_go/images/outlined_square.png'></img></div></div></div></div>,,go,,234600,0.0,test_trial,169,stop-signal,
170,,,,,,,,500.0,,,,,,stop_signal_with_go_no_go,,,,,,,,0.0-3.0-40.0,-1.0,none,,-1,,500.0,,<div class = centerbox><div class = fixation>+</div></div>,,,,235107,0.0,fixation,170,poldrack-single-stim,
171,300.0,500.0,300.0,500.0,<div class = bigbox><div class = centerbox><div class = starbox><img class = center src='/static/experiments/stop_signal_with_go_no_go/images/stopSignal.png'></img></div></div></div>,go,,2000.0,,77.0,1.0,0.0,20.0,stop_signal_with_go_no_go,,,,,,1.0,go,0.0-3.0-41.0,77.0,"[90, 77]",,532,circle,1000.0,solid,<div class = bigbox><div class = centerbox><div class = gng_number><div class = cue-text><img class = center src='/static/experiments/stop_signal_with_go_no_go/images/solid_circle.png'></img></div></div></div></div>,,go,,237115,0.0,test_trial,171,stop-signal,
172,,,,,,,,500.0,,,,,,stop_signal_with_go_no_go,,,,,,,,0.0-3.0-42.0,-1.0,none,,-1,,500.0,,<div class = centerbox><div class = fixation>+</div></div>,,,,237620,0.0,fixation,172,poldrack-single-stim,
173,300.0,500.0,300.0,500.0,<div class = bigbox><div class = centerbox><div class = starbox><img class = center src='/static/experiments/stop_signal_with_go_no_go/images/stopSignal.png'></img></div></div></div>,go,,2000.0,,77.0,1.0,0.0,21.0,stop_signal_with_go_no_go,,,,,,1.0,go,0.0-3.0-43.0,77.0,"[90, 77]",,355,circle,1000.0,solid,<div class = bigbox><div class = centerbox><div class = gng_number><div class = cue-text><img class = center src='/static/experiments/stop_signal_with_go_no_go/images/solid_circle.png'></img></div></div></div></div>,,go,,239637,0.0,test_trial,173,stop-signal,
174,,,,,,,,500.0,,,,,,stop_signal_with_go_no_go,,,,,,,,0.0-3.0-44.0,-1.0,none,,-1,,500.0,,<div class = centerbox><div class = fixation>+</div></div>,,,,240146,0.0,fixation,174,poldrack-single-stim,
175,300.0,500.0,300.0,500.0,<div class = bigbox><div class = centerbox><div class = starbox><img class = center src='/static/experiments/stop_signal_with_go_no_go/images/stopSignal.png'></img></div></div></div>,go,,2000.0,,90.0,1.0,0.0,22.0,stop_signal_with_go_no_go,,,,,,1.0,go,0.0-3.0-45.0,90.0,"[90, 77]",,469,square,1000.0,solid,<div class = bigbox><div class = centerbox><div class = gng_number><div class = cue-text><img class = center src='/static/experiments/stop_signal_with_go_no_go/images/solid_square.png'></img></div></div></div></div>,,go,,242163,0.0,test_trial,175,stop-signal,
176,,,,,,,,500.0,,,,,,stop_signal_with_go_no_go,,,,,,,,0.0-3.0-46.0,-1.0,none,,-1,,500.0,,<div class = centerbox><div class = fixation>+</div></div>,,,,242668,0.0,fixation,176,poldrack-single-stim,
177,300.0,500.0,300.0,500.0,<div class = bigbox><div class = centerbox><div class = starbox><img class = center src='/static/experiments/stop_signal_with_go_no_go/images/stopSignal.png'></img></div></div></div>,stop,,2000.0,,-1.0,0.0,0.0,23.0,stop_signal_with_go_no_go,,,,,,,go,0.0-3.0-47.0,90.0,"[90, 77]",,356,square,1000.0,solid,<div class = bigbox><div class = centerbox><div class = gng_number><div class = cue-text><img class = center src='/static/experiments/stop_signal_with_go_no_go/images/solid_square.png'></img></div></div></div></div>,0.0,stop,,244684,0.0,test_trial,177,stop-signal,
178,,,,,,,,500.0,,,,,,stop_signal_with_go_no_go,,,,,,,,0.0-3.0-48.0,-1.0,none,,-1,,500.0,,<div class = centerbox><div class = fixation>+</div></div>,,,,245191,0.0,fixation,178,poldrack-single-stim,
179,250.0,500.0,250.0,500.0,<div class = bigbox><div class = centerbox><div class = starbox><img class = center src='/static/experiments/stop_signal_with_go_no_go/images/stopSignal.png'></img></div></div></div>,stop,,2000.0,,-1.0,1.0,0.0,24.0,stop_signal_with_go_no_go,,,,,,,go,0.0-3.0-49.0,-1.0,"[90, 77]",,-1,square,1000.0,solid,<div class = bigbox><div class = centerbox><div class = gng_number><div class = cue-text><img class = center src='/static/experiments/stop_signal_with_go_no_go/images/solid_square.png'></img></div></div></div></div>,1.0,stop,,247206,0.0,test_trial,179,stop-signal,
180,,,,,,,,500.0,,,,,,stop_signal_with_go_no_go,,,,,,,,0.0-3.0-50.0,-1.0,none,,-1,,500.0,,<div class = centerbox><div class = fixation>+</div></div>,,,,247713,0.0,fixation,180,poldrack-single-stim,
181,300.0,500.0,300.0,500.0,<div class = bigbox><div class = centerbox><div class = starbox><img class = center src='/static/experiments/stop_signal_with_go_no_go/images/stopSignal.png'></img></div></div></div>,go,,2000.0,,77.0,1.0,0.0,25.0,stop_signal_with_go_no_go,,,,,,1.0,go,0.0-3.0-51.0,77.0,"[90, 77]",,430,circle,1000.0,solid,<div class = bigbox><div class = centerbox><div class = gng_number><div class = cue-text><img class = center src='/static/experiments/stop_signal_with_go_no_go/images/solid_circle.png'></img></div></div></div></div>,,go,,249728,0.0,test_trial,181,stop-signal,
182,,,,,,,,500.0,,,,,,stop_signal_with_go_no_go,,,,,,,,0.0-3.0-52.0,-1.0,none,,-1,,500.0,,<div class = centerbox><div class = fixation>+</div></div>,,,,250234,0.0,fixation,182,poldrack-single-stim,
183,300.0,500.0,300.0,500.0,<div class = bigbox><div class = centerbox><div class = starbox><img class = center src='/static/experiments/stop_signal_with_go_no_go/images/stopSignal.png'></img></div></div></div>,go,,2000.0,,90.0,1.0,0.0,26.0,stop_signal_with_go_no_go,,,,,,1.0,go,0.0-3.0-53.0,90.0,"[90, 77]",,640,square,1000.0,solid,<div class = bigbox><div class = centerbox><div class = gng_number><div class = cue-text><img class = center src='/static/experiments/stop_signal_with_go_no_go/images/solid_square.png'></img></div></div></div></div>,,go,,252248,0.0,test_trial,183,stop-signal,
184,,,,,,,,500.0,,,,,,stop_signal_with_go_no_go,,,,,,,,0.0-3.0-54.0,-1.0,none,,-1,,500.0,,<div class = centerbox><div class = fixation>+</div></div>,,,,252753,0.0,fixation,184,poldrack-single-stim,
185,300.0,500.0,300.0,500.0,<div class = bigbox><div class = centerbox><div class = starbox><img class = center src='/static/experiments/stop_signal_with_go_no_go/images/stopSignal.png'></img></div></div></div>,stop,,2000.0,,-1.0,1.0,0.0,27.0,stop_signal_with_go_no_go,,,,,,,go,0.0-3.0-55.0,-1.0,"[90, 77]",,-1,square,1000.0,solid,<div class = bigbox><div class = centerbox><div class = gng_number><div class = cue-text><img class = center src='/static/experiments/stop_signal_with_go_no_go/images/solid_square.png'></img></div></div></div></div>,1.0,stop,,254767,0.0,test_trial,185,stop-signal,
186,,,,,,,,500.0,,,,,,stop_signal_with_go_no_go,,,,,,,,0.0-3.0-56.0,-1.0,none,,-1,,500.0,,<div class = centerbox><div class = fixation>+</div></div>,,,,255283,0.0,fixation,186,poldrack-single-stim,
187,350.0,500.0,350.0,500.0,<div class = bigbox><div class = centerbox><div class = starbox><img class = center src='/static/experiments/stop_signal_with_go_no_go/images/stopSignal.png'></img></div></div></div>,stop,,2000.0,,-1.0,0.0,0.0,28.0,stop_signal_with_go_no_go,,,,,,,go,0.0-3.0-57.0,77.0,"[90, 77]",,493,circle,1000.0,solid,<div class = bigbox><div class = centerbox><div class = gng_number><div class = cue-text><img class = center src='/static/experiments/stop_signal_with_go_no_go/images/solid_circle.png'></img></div></div></div></div>,0.0,stop,,257290,0.0,test_trial,187,stop-signal,
188,,,,,,,,500.0,,,,,,stop_signal_with_go_no_go,,,,,,,,0.0-3.0-58.0,-1.0,none,,-1,,500.0,,<div class = centerbox><div class = fixation>+</div></div>,,,,257794,0.0,fixation,188,poldrack-single-stim,
189,300.0,500.0,300.0,500.0,<div class = bigbox><div class = centerbox><div class = starbox><img class = center src='/static/experiments/stop_signal_with_go_no_go/images/stopSignal.png'></img></div></div></div>,go,,2000.0,,90.0,1.0,0.0,29.0,stop_signal_with_go_no_go,,,,,,1.0,go,0.0-3.0-59.0,90.0,"[90, 77]",,465,square,1000.0,solid,<div class = bigbox><div class = centerbox><div class = gng_number><div class = cue-text><img class = center src='/static/experiments/stop_signal_with_go_no_go/images/solid_square.png'></img></div></div></div></div>,,go,,259807,0.0,test_trial,189,stop-signal,
190,,,,,,,,500.0,,,,,,stop_signal_with_go_no_go,,,,,,,,0.0-3.0-60.0,-1.0,none,,-1,,500.0,,<div class = centerbox><div class = fixation>+</div></div>,,,,260315,0.0,fixation,190,poldrack-single-stim,
191,300.0,500.0,300.0,500.0,<div class = bigbox><div class = centerbox><div class = starbox><img class = center src='/static/experiments/stop_signal_with_go_no_go/images/stopSignal.png'></img></div></div></div>,stop,,2000.0,,-1.0,1.0,0.0,30.0,stop_signal_with_go_no_go,,,,,,,go,0.0-3.0-61.0,-1.0,"[90, 77]",,-1,square,1000.0,solid,<div class = bigbox><div class = centerbox><div class = gng_number><div class = cue-text><img class = center src='/static/experiments/stop_signal_with_go_no_go/images/solid_square.png'></img></div></div></div></div>,1.0,stop,,262327,0.0,test_trial,191,stop-signal,
192,,,,,,,,500.0,,,,,,stop_signal_with_go_no_go,,,,,,,,0.0-3.0-62.0,-1.0,none,,-1,,500.0,,<div class = centerbox><div class = fixation>+</div></div>,,,,262835,0.0,fixation,192,poldrack-single-stim,
193,350.0,500.0,350.0,500.0,<div class = bigbox><div class = centerbox><div class = starbox><img class = center src='/static/experiments/stop_signal_with_go_no_go/images/stopSignal.png'></img></div></div></div>,stop,,2000.0,,-1.0,1.0,0.0,31.0,stop_signal_with_go_no_go,,,,,,,go,0.0-3.0-63.0,-1.0,"[90, 77]",,-1,square,1000.0,solid,<div class = bigbox><div class = centerbox><div class = gng_number><div class = cue-text><img class = center src='/static/experiments/stop_signal_with_go_no_go/images/solid_square.png'></img></div></div></div></div>,1.0,stop,,264841,0.0,test_trial,193,stop-signal,
194,,,,,,,,500.0,,,,,,stop_signal_with_go_no_go,,,,,,,,0.0-3.0-64.0,-1.0,none,,-1,,500.0,,<div class = centerbox><div class = fixation>+</div></div>,,,,265349,0.0,fixation,194,poldrack-single-stim,
195,400.0,500.0,400.0,500.0,<div class = bigbox><div class = centerbox><div class = starbox><img class = center src='/static/experiments/stop_signal_with_go_no_go/images/stopSignal.png'></img></div></div></div>,go,,2000.0,,90.0,1.0,0.0,32.0,stop_signal_with_go_no_go,,,,,,1.0,go,0.0-3.0-65.0,90.0,"[90, 77]",,995,square,1000.0,solid,<div class = bigbox><div class = centerbox><div class = gng_number><div class = cue-text><img class = center src='/static/experiments/stop_signal_with_go_no_go/images/solid_square.png'></img></div></div></div></div>,,go,,267356,0.0,test_trial,195,stop-signal,
196,,,,,,,,500.0,,,,,,stop_signal_with_go_no_go,,,,,,,,0.0-3.0-66.0,-1.0,none,,-1,,500.0,,<div class = centerbox><div class = fixation>+</div></div>,,,,267864,0.0,fixation,196,poldrack-single-stim,
197,400.0,500.0,400.0,500.0,<div class = bigbox><div class = centerbox><div class = starbox><img class = center src='/static/experiments/stop_signal_with_go_no_go/images/stopSignal.png'></img></div></div></div>,go,,2000.0,,77.0,1.0,0.0,33.0,stop_signal_with_go_no_go,,,,,,1.0,go,0.0-3.0-67.0,77.0,"[90, 77]",,430,circle,1000.0,solid,<div class = bigbox><div class = centerbox><div class = gng_number><div class = cue-text><img class = center src='/static/experiments/stop_signal_with_go_no_go/images/solid_circle.png'></img></div></div></div></div>,,go,,269883,0.0,test_trial,197,stop-signal,
198,,,,,,,,500.0,,,,,,stop_signal_with_go_no_go,,,,,,,,0.0-3.0-68.0,-1.0,none,,-1,,500.0,,<div class = centerbox><div class = fixation>+</div></div>,,,,270389,0.0,fixation,198,poldrack-single-stim,
199,400.0,500.0,400.0,500.0,<div class = bigbox><div class = centerbox><div class = starbox><img class = center src='/static/experiments/stop_signal_with_go_no_go/images/stopSignal.png'></img></div></div></div>,go,,2000.0,,77.0,1.0,0.0,34.0,stop_signal_with_go_no_go,,,,,,1.0,go,0.0-3.0-69.0,77.0,"[90, 77]",,353,circle,1000.0,solid,<div class = bigbox><div class = centerbox><div class = gng_number><div class = cue-text><img class = center src='/static/experiments/stop_signal_with_go_no_go/images/solid_circle.png'></img></div></div></div></div>,,go,,272404,0.0,test_trial,199,stop-signal,
200,,,,,,,,500.0,,,,,,stop_signal_with_go_no_go,,,,,,,,0.0-3.0-70.0,-1.0,none,,-1,,500.0,,<div class = centerbox><div class = fixation>+</div></div>,,,,272911,0.0,fixation,200,poldrack-single-stim,
201,400.0,500.0,400.0,500.0,<div class = bigbox><div class = centerbox><div class = starbox><img class = center src='/static/experiments/stop_signal_with_go_no_go/images/stopSignal.png'></img></div></div></div>,go,,2000.0,,90.0,1.0,0.0,35.0,stop_signal_with_go_no_go,,,,,,1.0,go,0.0-3.0-71.0,90.0,"[90, 77]",,428,square,1000.0,solid,<div class = bigbox><div class = centerbox><div class = gng_number><div class = cue-text><img class = center src='/static/experiments/stop_signal_with_go_no_go/images/solid_square.png'></img></div></div></div></div>,,go,,274926,0.0,test_trial,201,stop-signal,
202,,,,,,,,500.0,,,,,,stop_signal_with_go_no_go,,,,,,,,0.0-3.0-72.0,-1.0,none,,-1,,500.0,,<div class = centerbox><div class = fixation>+</div></div>,,,,275432,0.0,fixation,202,poldrack-single-stim,
203,400.0,500.0,400.0,500.0,<div class = bigbox><div class = centerbox><div class = starbox><img class = center src='/static/experiments/stop_signal_with_go_no_go/images/stopSignal.png'></img></div></div></div>,go,,2000.0,,77.0,1.0,0.0,36.0,stop_signal_with_go_no_go,,,,,,1.0,go,0.0-3.0-73.0,77.0,"[90, 77]",,339,circle,1000.0,solid,<div class = bigbox><div class = centerbox><div class = gng_number><div class = cue-text><img class = center src='/static/experiments/stop_signal_with_go_no_go/images/solid_circle.png'></img></div></div></div></div>,,go,,277448,0.0,test_trial,203,stop-signal,
204,,,,,,,,500.0,,,,,,stop_signal_with_go_no_go,,,,,,,,0.0-3.0-74.0,-1.0,none,,-1,,500.0,,<div class = centerbox><div class = fixation>+</div></div>,,,,277959,0.0,fixation,204,poldrack-single-stim,
205,400.0,500.0,400.0,500.0,<div class = bigbox><div class = centerbox><div class = starbox><img class = center src='/static/experiments/stop_signal_with_go_no_go/images/stopSignal.png'></img></div></div></div>,go,,2000.0,,90.0,1.0,0.0,37.0,stop_signal_with_go_no_go,,,,,,1.0,go,0.0-3.0-75.0,90.0,"[90, 77]",,393,square,1000.0,solid,<div class = bigbox><div class = centerbox><div class = gng_number><div class = cue-text><img class = center src='/static/experiments/stop_signal_with_go_no_go/images/solid_square.png'></img></div></div></div></div>,,go,,279969,0.0,test_trial,205,stop-signal,
206,,,,,,,,500.0,,,,,,stop_signal_with_go_no_go,,,,,,,,0.0-3.0-76.0,-1.0,none,,-1,,500.0,,<div class = centerbox><div class = fixation>+</div></div>,,,,280474,0.0,fixation,206,poldrack-single-stim,
207,400.0,500.0,400.0,500.0,<div class = bigbox><div class = centerbox><div class = starbox><img class = center src='/static/experiments/stop_signal_with_go_no_go/images/stopSignal.png'></img></div></div></div>,stop,,2000.0,,-1.0,0.0,0.0,38.0,stop_signal_with_go_no_go,,,,,,,go,0.0-3.0-77.0,77.0,"[90, 77]",,457,circle,1000.0,solid,<div class = bigbox><div class = centerbox><div class = gng_number><div class = cue-text><img class = center src='/static/experiments/stop_signal_with_go_no_go/images/solid_circle.png'></img></div></div></div></div>,0.0,stop,,282489,0.0,test_trial,207,stop-signal,
208,,,,,,,,500.0,,,,,,stop_signal_with_go_no_go,,,,,,,,0.0-3.0-78.0,-1.0,none,,-1,,500.0,,<div class = centerbox><div class = fixation>+</div></div>,,,,282998,0.0,fixation,208,poldrack-single-stim,
209,350.0,500.0,350.0,500.0,<div class = bigbox><div class = centerbox><div class = starbox><img class = center src='/static/experiments/stop_signal_with_go_no_go/images/stopSignal.png'></img></div></div></div>,go,,2000.0,,77.0,1.0,0.0,39.0,stop_signal_with_go_no_go,,,,,,1.0,go,0.0-3.0-79.0,77.0,"[90, 77]",,471,circle,1000.0,solid,<div class = bigbox><div class = centerbox><div class = gng_number><div class = cue-text><img class = center src='/static/experiments/stop_signal_with_go_no_go/images/solid_circle.png'></img></div></div></div></div>,,go,,285008,0.0,test_trial,209,stop-signal,
210,,,,,,,,500.0,,,,,,stop_signal_with_go_no_go,,,,,,,,0.0-3.0-80.0,-1.0,none,,-1,,500.0,,<div class = centerbox><div class = fixation>+</div></div>,,,,285524,0.0,fixation,210,poldrack-single-stim,
211,350.0,500.0,500.0,500.0,<div class = bigbox><div class = centerbox><div class = starbox><img class = center src='/static/experiments/stop_signal_with_go_no_go/images/stopSignal.png'></img></div></div></div>,go,,2000.0,,-1.0,1.0,0.0,40.0,stop_signal_with_go_no_go,,,,,,1.0,nogo,0.0-3.0-81.0,-1.0,"[90, 77]",,-1,square,1000.0,outlined,<div class = bigbox><div class = centerbox><div class = gng_number><div class = cue-text><img class = center src='/static/experiments/stop_signal_with_go_no_go/images/outlined_square.png'></img></div></div></div></div>,,go,,287540,0.0,test_trial,211,stop-signal,
212,,,,,,,,500.0,,,,,,stop_signal_with_go_no_go,,,,,,,,0.0-3.0-82.0,-1.0,none,,-1,,500.0,,<div class = centerbox><div class = fixation>+</div></div>,,,,288049,0.0,fixation,212,poldrack-single-stim,
213,350.0,500.0,350.0,500.0,<div class = bigbox><div class = centerbox><div class = starbox><img class = center src='/static/experiments/stop_signal_with_go_no_go/images/stopSignal.png'></img></div></div></div>,stop,,2000.0,,-1.0,0.0,0.0,41.0,stop_signal_with_go_no_go,,,,,,,go,0.0-3.0-83.0,90.0,"[90, 77]",,457,square,1000.0,solid,<div class = bigbox><div class = centerbox><div class = gng_number><div class = cue-text><img class = center src='/static/experiments/stop_signal_with_go_no_go/images/solid_square.png'></img></div></div></div></div>,0.0,stop,,290063,0.0,test_trial,213,stop-signal,
214,,,,,,,,500.0,,,,,,stop_signal_with_go_no_go,,,,,,,,0.0-3.0-84.0,-1.0,none,,-1,,500.0,,<div class = centerbox><div class = fixation>+</div></div>,,,,290573,0.0,fixation,214,poldrack-single-stim,
215,300.0,500.0,300.0,500.0,<div class = bigbox><div class = centerbox><div class = starbox><img class = center src='/static/experiments/stop_signal_with_go_no_go/images/stopSignal.png'></img></div></div></div>,go,,2000.0,,77.0,1.0,0.0,42.0,stop_signal_with_go_no_go,,,,,,1.0,go,0.0-3.0-85.0,77.0,"[90, 77]",,412,circle,1000.0,solid,<div class = bigbox><div class = centerbox><div class = gng_number><div class = cue-text><img class = center src='/static/experiments/stop_signal_with_go_no_go/images/solid_circle.png'></img></div></div></div></div>,,go,,292592,0.0,test_trial,215,stop-signal,
216,,,,,,,,500.0,,,,,,stop_signal_with_go_no_go,,,,,,,,0.0-3.0-86.0,-1.0,none,,-1,,500.0,,<div class = centerbox><div class = fixation>+</div></div>,,,,293098,0.0,fixation,216,poldrack-single-stim,
217,300.0,500.0,300.0,500.0,<div class = bigbox><div class = centerbox><div class = starbox><img class = center src='/static/experiments/stop_signal_with_go_no_go/images/stopSignal.png'></img></div></div></div>,stop,,2000.0,,-1.0,0.0,0.0,43.0,stop_signal_with_go_no_go,,,,,,,go,0.0-3.0-87.0,77.0,"[90, 77]",,478,circle,1000.0,solid,<div class = bigbox><div class = centerbox><div class = gng_number><div class = cue-text><img class = center src='/static/experiments/stop_signal_with_go_no_go/images/solid_circle.png'></img></div></div></div></div>,0.0,stop,,295114,0.0,test_trial,217,stop-signal,
218,,,,,,,,500.0,,,,,,stop_signal_with_go_no_go,,,,,,,,0.0-3.0-88.0,-1.0,none,,-1,,500.0,,<div class = centerbox><div class = fixation>+</div></div>,,,,295618,0.0,fixation,218,poldrack-single-stim,
