,SSD_diff,SSD_neutral,SSD_same,SS_delay,SS_duration,SS_stimulus,SS_trial_type,att_check_percent,block_duration,correct,correct_response,correct_trial,current_block,current_trial,distractor,exp_id,final_accuracy,final_avg_rt,final_credit_var,final_missed_percent,final_responses_ok,internal_node_id,key_press,possible_responses,probe,responses,rt,shape_matching_condition,stim_duration,stimulus,stop_acc,stop_signal_condition,target,text,time_elapsed,timing_post_trial,trial_id,trial_index,trial_type,view_history
0,,,,,,,,,4398.0,,,,,,,stop_signal_with_shape_matching,,,,,,0.0-0.0-0.0,13.0,[13],,,4398,,4398.0,<div class = bigbox><div class = picture_box><p class = block-text>Welcome to the experiment. This experiment will take about 20 minutes. Press <i>enter</i> to begin.</p></div></div>,,,,,4400,0.0,feedback_block,0,poldrack-single-stim,
1,,,,,,,,,,,,,,,,stop_signal_with_shape_matching,,,,,,0.0-0.0-1.0,,,,,26856,,,,,,,,31258,,instruction,1,poldrack-instructions,"[{""page_index"":0,""viewing_time"":20047},{""page_index"":1,""viewing_time"":3163},{""page_index"":0,""viewing_time"":1455},{""page_index"":1,""viewing_time"":955},{""page_index"":2,""viewing_time"":1235}]"
2,,,,,,,,,500.0,,,,,,,stop_signal_with_shape_matching,,,,,,0.0-0.0-2.0,-1.0,none,,,-1,,500.0,"<div class = bigbox><div class = leftbox><img class = center src=""/static/experiments/stop_signal_with_shape_matching/images/mask.png""></img><div class = centerbox><div class = fixation>+</div></div></div><div class = rightbox><img class = center src=""/static/experiments/stop_signal_with_shape_matching/images/mask.png""></img><div class = centerbox><div class = fixation>+</div></div></div></div>",,,,,32763,0.0,practice_mask,2,poldrack-single-stim,
3,350.0,350.0,350.0,350.0,500.0,"<div class = starbox><img class = center src=""/static/experiments/stop_signal_with_shape_matching/images/stopSignal.png""></img></div>",go,,2000.0,,77.0,1.0,0.0,1.0,none,stop_signal_with_shape_matching,,,,,,0.0-0.0-3.0,77.0,"[77, 90]",3.0,,1356,SNN,1000.0,"<div class = bigbox><div class = leftbox><img class = center src=""/static/experiments/stop_signal_with_shape_matching/images/3_green.png""></img></div><div class = distractorbox></div><div class = rightbox><img class = center src=""/static/experiments/stop_signal_with_shape_matching/images/3_white.png""></img></div></div>",,go,3.0,,34766,0.0,practice_trial,3,stop-signal,
4,,,,,,,,,500.0,,,,,,,stop_signal_with_shape_matching,,,,,,0.0-0.0-4.0,-1.0,none,,,-1,,500.0,"<div class = fb_box><div class = center-text><font size = 20>Correct!</font></div></div><div class = prompt_box><p class = center-block-text style = ""font-size:16px; line-height:80%;"">Respond if the green and white shapes are the same or different!</p><p class = center-block-text style = ""font-size:16px; line-height:80%;"">Same: M Key</p><p class = center-block-text style = ""font-size:16px; line-height:80%;"">Different: Z Key</p><p class = center-block-text style = ""font-size:16px; line-height:80%;"">Do not respond if you see a star around the white shape</p><p class = center-block-text style = ""font-size:16px; line-height:80%;"">Do not slow down your responses to the shape to wait for the star.</p></div>",,,,,35274,0.0,practice-stop-feedback,4,poldrack-single-stim,
5,,,,,,,,,500.0,,,,,,,stop_signal_with_shape_matching,,,,,,0.0-0.0-5.0,-1.0,none,,,-1,,500.0,"<div class = bigbox><div class = leftbox><img class = center src=""/static/experiments/stop_signal_with_shape_matching/images/mask.png""></img><div class = centerbox><div class = fixation>+</div></div></div><div class = rightbox><img class = center src=""/static/experiments/stop_signal_with_shape_matching/images/mask.png""></img><div class = centerbox><div class = fixation>+</div></div></div></div>",,,,,35779,0.0,practice_mask,5,poldrack-single-stim,
6,350.0,350.0,350.0,350.0,500.0,"<div class = starbox><img class = center src=""/static/experiments/stop_signal_with_shape_matching/images/stopSignal.png""></img></div>",stop,,2000.0,,-1.0,0.0,0.0,2.0,9,stop_signal_with_shape_matching,,,,,,0.0-0.0-6.0,90.0,"[77, 90]",9.0,,1011,DDS,1000.0,"<div class = bigbox><div class = leftbox><img class = center src=""/static/experiments/stop_signal_with_shape_matching/images/1_green.png""></img></div><div class = distractorbox><img class = center src=""/static/experiments/stop_signal_with_shape_matching/images/9_red.png""></img></div><div class = rightbox><img class = center src=""/static/experiments/stop_signal_with_shape_matching/images/9_white.png""></img></div></div>",0.0,stop,1.0,,37786,0.0,practice_trial,6,stop-signal,
7,,,,,,,,,500.0,,,,,,,stop_signal_with_shape_matching,,,,,,0.0-0.0-7.0,-1.0,none,,,-1,,500.0,"<div class = fb_box><div class = center-text><font size = 20>There was a star.</font></div></div><div class = prompt_box><p class = center-block-text style = ""font-size:16px; line-height:80%;"">Respond if the green and white shapes are the same or different!</p><p class = center-block-text style = ""font-size:16px; line-height:80%;"">Same: M Key</p><p class = center-block-text style = ""font-size:16px; line-height:80%;"">Different: Z Key</p><p class = center-block-text style = ""font-size:16px; line-height:80%;"">Do not respond if you see a star around the white shape</p><p class = center-block-text style = ""font-size:16px; line-height:80%;"">Do not slow down your responses to the shape to wait for the star.</p></div>",,,,,38292,0.0,practice-stop-feedback,7,poldrack-single-stim,
8,,,,,,,,,500.0,,,,,,,stop_signal_with_shape_matching,,,,,,0.0-0.0-8.0,-1.0,none,,,-1,,500.0,"<div class = bigbox><div class = leftbox><img class = center src=""/static/experiments/stop_signal_with_shape_matching/images/mask.png""></img><div class = centerbox><div class = fixation>+</div></div></div><div class = rightbox><img class = center src=""/static/experiments/stop_signal_with_shape_matching/images/mask.png""></img><div class = centerbox><div class = fixation>+</div></div></div></div>",,,,,38798,0.0,practice_mask,8,poldrack-single-stim,
9,300.0,350.0,350.0,350.0,500.0,"<div class = starbox><img class = center src=""/static/experiments/stop_signal_with_shape_matching/images/stopSignal.png""></img></div>",go,,2000.0,,90.0,1.0,0.0,3.0,none,stop_signal_with_shape_matching,,,,,,0.0-0.0-9.0,90.0,"[77, 90]",5.0,,904,DNN,1000.0,"<div class = bigbox><div class = leftbox><img class = center src=""/static/experiments/stop_signal_with_shape_matching/images/9_green.png""></img></div><div class = distractorbox></div><div class = rightbox><img class = center src=""/static/experiments/stop_signal_with_shape_matching/images/5_white.png""></img></div></div>",,go,9.0,,40802,0.0,practice_trial,9,stop-signal,
10,,,,,,,,,500.0,,,,,,,stop_signal_with_shape_matching,,,,,,0.0-0.0-10.0,-1.0,none,,,-1,,500.0,"<div class = fb_box><div class = center-text><font size = 20>Correct!</font></div></div><div class = prompt_box><p class = center-block-text style = ""font-size:16px; line-height:80%;"">Respond if the green and white shapes are the same or different!</p><p class = center-block-text style = ""font-size:16px; line-height:80%;"">Same: M Key</p><p class = center-block-text style = ""font-size:16px; line-height:80%;"">Different: Z Key</p><p class = center-block-text style = ""font-size:16px; line-height:80%;"">Do not respond if you see a star around the white shape</p><p class = center-block-text style = ""font-size:16px; line-height:80%;"">Do not slow down your responses to the shape to wait for the star.</p></div>",,,,,41308,0.0,practice-stop-feedback,10,poldrack-single-stim,
11,,,,,,,,,500.0,,,,,,,stop_signal_with_shape_matching,,,,,,0.0-0.0-11.0,-1.0,none,,,-1,,500.0,"<div class = bigbox><div class = leftbox><img class = center src=""/static/experiments/stop_signal_with_shape_matching/images/mask.png""></img><div class = centerbox><div class = fixation>+</div></div></div><div class = rightbox><img class = center src=""/static/experiments/stop_signal_with_shape_matching/images/mask.png""></img><div class = centerbox><div class = fixation>+</div></div></div></div>",,,,,41813,0.0,practice_mask,11,poldrack-single-stim,
12,300.0,350.0,350.0,300.0,500.0,"<div class = starbox><img class = center src=""/static/experiments/stop_signal_with_shape_matching/images/stopSignal.png""></img></div>",go,,2000.0,,77.0,1.0,0.0,4.0,2,stop_signal_with_shape_matching,,,,,,0.0-0.0-12.0,77.0,"[77, 90]",3.0,,792,SDD,1000.0,"<div class = bigbox><div class = leftbox><img class = center src=""/static/experiments/stop_signal_with_shape_matching/images/3_green.png""></img></div><div class = distractorbox><img class = center src=""/static/experiments/stop_signal_with_shape_matching/images/2_red.png""></img></div><div class = rightbox><img class = center src=""/static/experiments/stop_signal_with_shape_matching/images/3_white.png""></img></div></div>",,go,3.0,,43818,0.0,practice_trial,12,stop-signal,
13,,,,,,,,,500.0,,,,,,,stop_signal_with_shape_matching,,,,,,0.0-0.0-13.0,-1.0,none,,,-1,,500.0,"<div class = fb_box><div class = center-text><font size = 20>Correct!</font></div></div><div class = prompt_box><p class = center-block-text style = ""font-size:16px; line-height:80%;"">Respond if the green and white shapes are the same or different!</p><p class = center-block-text style = ""font-size:16px; line-height:80%;"">Same: M Key</p><p class = center-block-text style = ""font-size:16px; line-height:80%;"">Different: Z Key</p><p class = center-block-text style = ""font-size:16px; line-height:80%;"">Do not respond if you see a star around the white shape</p><p class = center-block-text style = ""font-size:16px; line-height:80%;"">Do not slow down your responses to the shape to wait for the star.</p></div>",,,,,44325,0.0,practice-stop-feedback,13,poldrack-single-stim,
14,,,,,,,,,500.0,,,,,,,stop_signal_with_shape_matching,,,,,,0.0-0.0-14.0,-1.0,none,,,-1,,500.0,"<div class = bigbox><div class = leftbox><img class = center src=""/static/experiments/stop_signal_with_shape_matching/images/mask.png""></img><div class = centerbox><div class = fixation>+</div></div></div><div class = rightbox><img class = center src=""/static/experiments/stop_signal_with_shape_matching/images/mask.png""></img><div class = centerbox><div class = fixation>+</div></div></div></div>",,,,,44831,0.0,practice_mask,14,poldrack-single-stim,
15,300.0,350.0,350.0,350.0,500.0,"<div class = starbox><img class = center src=""/static/experiments/stop_signal_with_shape_matching/images/stopSignal.png""></img></div>",go,,2000.0,,90.0,1.0,0.0,5.0,6,stop_signal_with_shape_matching,,,,,,0.0-0.0-15.0,90.0,"[77, 90]",8.0,,688,DSD,1000.0,"<div class = bigbox><div class = leftbox><img class = center src=""/static/experiments/stop_signal_with_shape_matching/images/6_green.png""></img></div><div class = distractorbox><img class = center src=""/static/experiments/stop_signal_with_shape_matching/images/6_red.png""></img></div><div class = rightbox><img class = center src=""/static/experiments/stop_signal_with_shape_matching/images/8_white.png""></img></div></div>",,go,6.0,,46835,0.0,practice_trial,15,stop-signal,
16,,,,,,,,,500.0,,,,,,,stop_signal_with_shape_matching,,,,,,0.0-0.0-16.0,-1.0,none,,,-1,,500.0,"<div class = fb_box><div class = center-text><font size = 20>Correct!</font></div></div><div class = prompt_box><p class = center-block-text style = ""font-size:16px; line-height:80%;"">Respond if the green and white shapes are the same or different!</p><p class = center-block-text style = ""font-size:16px; line-height:80%;"">Same: M Key</p><p class = center-block-text style = ""font-size:16px; line-height:80%;"">Different: Z Key</p><p class = center-block-text style = ""font-size:16px; line-height:80%;"">Do not respond if you see a star around the white shape</p><p class = center-block-text style = ""font-size:16px; line-height:80%;"">Do not slow down your responses to the shape to wait for the star.</p></div>",,,,,47340,0.0,practice-stop-feedback,16,poldrack-single-stim,
17,,,,,,,,,500.0,,,,,,,stop_signal_with_shape_matching,,,,,,0.0-0.0-17.0,-1.0,none,,,-1,,500.0,"<div class = bigbox><div class = leftbox><img class = center src=""/static/experiments/stop_signal_with_shape_matching/images/mask.png""></img><div class = centerbox><div class = fixation>+</div></div></div><div class = rightbox><img class = center src=""/static/experiments/stop_signal_with_shape_matching/images/mask.png""></img><div class = centerbox><div class = fixation>+</div></div></div></div>",,,,,47845,0.0,practice_mask,17,poldrack-single-stim,
18,300.0,350.0,350.0,350.0,500.0,"<div class = starbox><img class = center src=""/static/experiments/stop_signal_with_shape_matching/images/stopSignal.png""></img></div>",go,,2000.0,,90.0,1.0,0.0,6.0,7,stop_signal_with_shape_matching,,,,,,0.0-0.0-18.0,90.0,"[77, 90]",8.0,,675,DSD,1000.0,"<div class = bigbox><div class = leftbox><img class = center src=""/static/experiments/stop_signal_with_shape_matching/images/7_green.png""></img></div><div class = distractorbox><img class = center src=""/static/experiments/stop_signal_with_shape_matching/images/7_red.png""></img></div><div class = rightbox><img class = center src=""/static/experiments/stop_signal_with_shape_matching/images/8_white.png""></img></div></div>",,go,7.0,,49849,0.0,practice_trial,18,stop-signal,
19,,,,,,,,,500.0,,,,,,,stop_signal_with_shape_matching,,,,,,0.0-0.0-19.0,-1.0,none,,,-1,,500.0,"<div class = fb_box><div class = center-text><font size = 20>Correct!</font></div></div><div class = prompt_box><p class = center-block-text style = ""font-size:16px; line-height:80%;"">Respond if the green and white shapes are the same or different!</p><p class = center-block-text style = ""font-size:16px; line-height:80%;"">Same: M Key</p><p class = center-block-text style = ""font-size:16px; line-height:80%;"">Different: Z Key</p><p class = center-block-text style = ""font-size:16px; line-height:80%;"">Do not respond if you see a star around the white shape</p><p class = center-block-text style = ""font-size:16px; line-height:80%;"">Do not slow down your responses to the shape to wait for the star.</p></div>",,,,,50358,0.0,practice-stop-feedback,19,poldrack-single-stim,
20,,,,,,,,,500.0,,,,,,,stop_signal_with_shape_matching,,,,,,0.0-0.0-20.0,-1.0,none,,,-1,,500.0,"<div class = bigbox><div class = leftbox><img class = center src=""/static/experiments/stop_signal_with_shape_matching/images/mask.png""></img><div class = centerbox><div class = fixation>+</div></div></div><div class = rightbox><img class = center src=""/static/experiments/stop_signal_with_shape_matching/images/mask.png""></img><div class = centerbox><div class = fixation>+</div></div></div></div>",,,,,50863,0.0,practice_mask,20,poldrack-single-stim,
21,300.0,350.0,350.0,350.0,500.0,"<div class = starbox><img class = center src=""/static/experiments/stop_signal_with_shape_matching/images/stopSignal.png""></img></div>",stop,,2000.0,,-1.0,1.0,0.0,7.0,1,stop_signal_with_shape_matching,,,,,,0.0-0.0-21.0,-1.0,"[77, 90]",5.0,,-1,DSD,1000.0,"<div class = bigbox><div class = leftbox><img class = center src=""/static/experiments/stop_signal_with_shape_matching/images/1_green.png""></img></div><div class = distractorbox><img class = center src=""/static/experiments/stop_signal_with_shape_matching/images/1_red.png""></img></div><div class = rightbox><img class = center src=""/static/experiments/stop_signal_with_shape_matching/images/5_white.png""></img></div></div>",1.0,stop,1.0,,52868,0.0,practice_trial,21,stop-signal,
22,,,,,,,,,500.0,,,,,,,stop_signal_with_shape_matching,,,,,,0.0-0.0-22.0,-1.0,none,,,-1,,500.0,"<div class = fb_box><div class = center-text><font size = 20>Correct!</font></div></div><div class = prompt_box><p class = center-block-text style = ""font-size:16px; line-height:80%;"">Respond if the green and white shapes are the same or different!</p><p class = center-block-text style = ""font-size:16px; line-height:80%;"">Same: M Key</p><p class = center-block-text style = ""font-size:16px; line-height:80%;"">Different: Z Key</p><p class = center-block-text style = ""font-size:16px; line-height:80%;"">Do not respond if you see a star around the white shape</p><p class = center-block-text style = ""font-size:16px; line-height:80%;"">Do not slow down your responses to the shape to wait for the star.</p></div>",,,,,53375,0.0,practice-stop-feedback,22,poldrack-single-stim,
23,,,,,,,,,500.0,,,,,,,stop_signal_with_shape_matching,,,,,,0.0-0.0-23.0,-1.0,none,,,-1,,500.0,"<div class = bigbox><div class = leftbox><img class = center src=""/static/experiments/stop_signal_with_shape_matching/images/mask.png""></img><div class = centerbox><div class = fixation>+</div></div></div><div class = rightbox><img class = center src=""/static/experiments/stop_signal_with_shape_matching/images/mask.png""></img><div class = centerbox><div class = fixation>+</div></div></div></div>",,,,,53880,0.0,practice_mask,23,poldrack-single-stim,
24,300.0,350.0,400.0,350.0,500.0,"<div class = starbox><img class = center src=""/static/experiments/stop_signal_with_shape_matching/images/stopSignal.png""></img></div>",stop,,2000.0,,-1.0,1.0,0.0,8.0,none,stop_signal_with_shape_matching,,,,,,0.0-0.0-24.0,-1.0,"[77, 90]",6.0,,-1,DNN,1000.0,"<div class = bigbox><div class = leftbox><img class = center src=""/static/experiments/stop_signal_with_shape_matching/images/9_green.png""></img></div><div class = distractorbox></div><div class = rightbox><img class = center src=""/static/experiments/stop_signal_with_shape_matching/images/6_white.png""></img></div></div>",1.0,stop,9.0,,55885,0.0,practice_trial,24,stop-signal,
25,,,,,,,,,500.0,,,,,,,stop_signal_with_shape_matching,,,,,,0.0-0.0-25.0,-1.0,none,,,-1,,500.0,"<div class = fb_box><div class = center-text><font size = 20>Correct!</font></div></div><div class = prompt_box><p class = center-block-text style = ""font-size:16px; line-height:80%;"">Respond if the green and white shapes are the same or different!</p><p class = center-block-text style = ""font-size:16px; line-height:80%;"">Same: M Key</p><p class = center-block-text style = ""font-size:16px; line-height:80%;"">Different: Z Key</p><p class = center-block-text style = ""font-size:16px; line-height:80%;"">Do not respond if you see a star around the white shape</p><p class = center-block-text style = ""font-size:16px; line-height:80%;"">Do not slow down your responses to the shape to wait for the star.</p></div>",,,,,56390,0.0,practice-stop-feedback,25,poldrack-single-stim,
26,,,,,,,,,500.0,,,,,,,stop_signal_with_shape_matching,,,,,,0.0-0.0-26.0,-1.0,none,,,-1,,500.0,"<div class = bigbox><div class = leftbox><img class = center src=""/static/experiments/stop_signal_with_shape_matching/images/mask.png""></img><div class = centerbox><div class = fixation>+</div></div></div><div class = rightbox><img class = center src=""/static/experiments/stop_signal_with_shape_matching/images/mask.png""></img><div class = centerbox><div class = fixation>+</div></div></div></div>",,,,,56894,0.0,practice_mask,26,poldrack-single-stim,
27,300.0,400.0,400.0,400.0,500.0,"<div class = starbox><img class = center src=""/static/experiments/stop_signal_with_shape_matching/images/stopSignal.png""></img></div>",go,,2000.0,,77.0,1.0,0.0,9.0,6,stop_signal_with_shape_matching,,,,,,0.0-0.0-27.0,77.0,"[77, 90]",6.0,,800,SSS,1000.0,"<div class = bigbox><div class = leftbox><img class = center src=""/static/experiments/stop_signal_with_shape_matching/images/6_green.png""></img></div><div class = distractorbox><img class = center src=""/static/experiments/stop_signal_with_shape_matching/images/6_red.png""></img></div><div class = rightbox><img class = center src=""/static/experiments/stop_signal_with_shape_matching/images/6_white.png""></img></div></div>",,go,6.0,,58899,0.0,practice_trial,27,stop-signal,
28,,,,,,,,,500.0,,,,,,,stop_signal_with_shape_matching,,,,,,0.0-0.0-28.0,-1.0,none,,,-1,,500.0,"<div class = fb_box><div class = center-text><font size = 20>Correct!</font></div></div><div class = prompt_box><p class = center-block-text style = ""font-size:16px; line-height:80%;"">Respond if the green and white shapes are the same or different!</p><p class = center-block-text style = ""font-size:16px; line-height:80%;"">Same: M Key</p><p class = center-block-text style = ""font-size:16px; line-height:80%;"">Different: Z Key</p><p class = center-block-text style = ""font-size:16px; line-height:80%;"">Do not respond if you see a star around the white shape</p><p class = center-block-text style = ""font-size:16px; line-height:80%;"">Do not slow down your responses to the shape to wait for the star.</p></div>",,,,,59403,0.0,practice-stop-feedback,28,poldrack-single-stim,
29,,,,,,,,,500.0,,,,,,,stop_signal_with_shape_matching,,,,,,0.0-0.0-29.0,-1.0,none,,,-1,,500.0,"<div class = bigbox><div class = leftbox><img class = center src=""/static/experiments/stop_signal_with_shape_matching/images/mask.png""></img><div class = centerbox><div class = fixation>+</div></div></div><div class = rightbox><img class = center src=""/static/experiments/stop_signal_with_shape_matching/images/mask.png""></img><div class = centerbox><div class = fixation>+</div></div></div></div>",,,,,59906,0.0,practice_mask,29,poldrack-single-stim,
30,300.0,400.0,400.0,300.0,500.0,"<div class = starbox><img class = center src=""/static/experiments/stop_signal_with_shape_matching/images/stopSignal.png""></img></div>",go,,2000.0,,90.0,1.0,0.0,10.0,10,stop_signal_with_shape_matching,,,,,,0.0-0.0-30.0,90.0,"[77, 90]",4.0,,727,DDD,1000.0,"<div class = bigbox><div class = leftbox><img class = center src=""/static/experiments/stop_signal_with_shape_matching/images/9_green.png""></img></div><div class = distractorbox><img class = center src=""/static/experiments/stop_signal_with_shape_matching/images/10_red.png""></img></div><div class = rightbox><img class = center src=""/static/experiments/stop_signal_with_shape_matching/images/4_white.png""></img></div></div>",,go,9.0,,61911,0.0,practice_trial,30,stop-signal,
31,,,,,,,,,500.0,,,,,,,stop_signal_with_shape_matching,,,,,,0.0-0.0-31.0,-1.0,none,,,-1,,500.0,"<div class = fb_box><div class = center-text><font size = 20>Correct!</font></div></div><div class = prompt_box><p class = center-block-text style = ""font-size:16px; line-height:80%;"">Respond if the green and white shapes are the same or different!</p><p class = center-block-text style = ""font-size:16px; line-height:80%;"">Same: M Key</p><p class = center-block-text style = ""font-size:16px; line-height:80%;"">Different: Z Key</p><p class = center-block-text style = ""font-size:16px; line-height:80%;"">Do not respond if you see a star around the white shape</p><p class = center-block-text style = ""font-size:16px; line-height:80%;"">Do not slow down your responses to the shape to wait for the star.</p></div>",,,,,62416,0.0,practice-stop-feedback,31,poldrack-single-stim,
32,,,,,,,,,500.0,,,,,,,stop_signal_with_shape_matching,,,,,,0.0-0.0-32.0,-1.0,none,,,-1,,500.0,"<div class = bigbox><div class = leftbox><img class = center src=""/static/experiments/stop_signal_with_shape_matching/images/mask.png""></img><div class = centerbox><div class = fixation>+</div></div></div><div class = rightbox><img class = center src=""/static/experiments/stop_signal_with_shape_matching/images/mask.png""></img><div class = centerbox><div class = fixation>+</div></div></div></div>",,,,,62921,0.0,practice_mask,32,poldrack-single-stim,
33,300.0,400.0,400.0,400.0,500.0,"<div class = starbox><img class = center src=""/static/experiments/stop_signal_with_shape_matching/images/stopSignal.png""></img></div>",stop,,2000.0,,-1.0,1.0,0.0,11.0,none,stop_signal_with_shape_matching,,,,,,0.0-0.0-33.0,-1.0,"[77, 90]",5.0,,-1,SNN,1000.0,"<div class = bigbox><div class = leftbox><img class = center src=""/static/experiments/stop_signal_with_shape_matching/images/5_green.png""></img></div><div class = distractorbox></div><div class = rightbox><img class = center src=""/static/experiments/stop_signal_with_shape_matching/images/5_white.png""></img></div></div>",1.0,stop,5.0,,64927,0.0,practice_trial,33,stop-signal,
34,,,,,,,,,500.0,,,,,,,stop_signal_with_shape_matching,,,,,,0.0-0.0-34.0,-1.0,none,,,-1,,500.0,"<div class = fb_box><div class = center-text><font size = 20>Correct!</font></div></div><div class = prompt_box><p class = center-block-text style = ""font-size:16px; line-height:80%;"">Respond if the green and white shapes are the same or different!</p><p class = center-block-text style = ""font-size:16px; line-height:80%;"">Same: M Key</p><p class = center-block-text style = ""font-size:16px; line-height:80%;"">Different: Z Key</p><p class = center-block-text style = ""font-size:16px; line-height:80%;"">Do not respond if you see a star around the white shape</p><p class = center-block-text style = ""font-size:16px; line-height:80%;"">Do not slow down your responses to the shape to wait for the star.</p></div>",,,,,65432,0.0,practice-stop-feedback,34,poldrack-single-stim,
35,,,,,,,,,500.0,,,,,,,stop_signal_with_shape_matching,,,,,,0.0-0.0-35.0,-1.0,none,,,-1,,500.0,"<div class = bigbox><div class = leftbox><img class = center src=""/static/experiments/stop_signal_with_shape_matching/images/mask.png""></img><div class = centerbox><div class = fixation>+</div></div></div><div class = rightbox><img class = center src=""/static/experiments/stop_signal_with_shape_matching/images/mask.png""></img><div class = centerbox><div class = fixation>+</div></div></div></div>",,,,,65936,0.0,practice_mask,35,poldrack-single-stim,
36,300.0,450.0,400.0,400.0,500.0,"<div class = starbox><img class = center src=""/static/experiments/stop_signal_with_shape_matching/images/stopSignal.png""></img></div>",stop,,2000.0,,-1.0,1.0,0.0,12.0,6,stop_signal_with_shape_matching,,,,,,0.0-0.0-36.0,-1.0,"[77, 90]",6.0,,-1,SSS,1000.0,"<div class = bigbox><div class = leftbox><img class = center src=""/static/experiments/stop_signal_with_shape_matching/images/6_green.png""></img></div><div class = distractorbox><img class = center src=""/static/experiments/stop_signal_with_shape_matching/images/6_red.png""></img></div><div class = rightbox><img class = center src=""/static/experiments/stop_signal_with_shape_matching/images/6_white.png""></img></div></div>",1.0,stop,6.0,,67942,0.0,practice_trial,36,stop-signal,
37,,,,,,,,,500.0,,,,,,,stop_signal_with_shape_matching,,,,,,0.0-0.0-37.0,-1.0,none,,,-1,,500.0,"<div class = fb_box><div class = center-text><font size = 20>Correct!</font></div></div><div class = prompt_box><p class = center-block-text style = ""font-size:16px; line-height:80%;"">Respond if the green and white shapes are the same or different!</p><p class = center-block-text style = ""font-size:16px; line-height:80%;"">Same: M Key</p><p class = center-block-text style = ""font-size:16px; line-height:80%;"">Different: Z Key</p><p class = center-block-text style = ""font-size:16px; line-height:80%;"">Do not respond if you see a star around the white shape</p><p class = center-block-text style = ""font-size:16px; line-height:80%;"">Do not slow down your responses to the shape to wait for the star.</p></div>",,,,,68445,0.0,practice-stop-feedback,37,poldrack-single-stim,
38,,,,,,,,,500.0,,,,,,,stop_signal_with_shape_matching,,,,,,0.0-0.0-38.0,-1.0,none,,,-1,,500.0,"<div class = bigbox><div class = leftbox><img class = center src=""/static/experiments/stop_signal_with_shape_matching/images/mask.png""></img><div class = centerbox><div class = fixation>+</div></div></div><div class = rightbox><img class = center src=""/static/experiments/stop_signal_with_shape_matching/images/mask.png""></img><div class = centerbox><div class = fixation>+</div></div></div></div>",,,,,68950,0.0,practice_mask,38,poldrack-single-stim,
39,300.0,450.0,450.0,450.0,500.0,"<div class = starbox><img class = center src=""/static/experiments/stop_signal_with_shape_matching/images/stopSignal.png""></img></div>",go,,2000.0,,77.0,1.0,0.0,13.0,none,stop_signal_with_shape_matching,,,,,,0.0-0.0-39.0,77.0,"[77, 90]",8.0,,802,SNN,1000.0,"<div class = bigbox><div class = leftbox><img class = center src=""/static/experiments/stop_signal_with_shape_matching/images/8_green.png""></img></div><div class = distractorbox></div><div class = rightbox><img class = center src=""/static/experiments/stop_signal_with_shape_matching/images/8_white.png""></img></div></div>",,go,8.0,,70955,0.0,practice_trial,39,stop-signal,
40,,,,,,,,,500.0,,,,,,,stop_signal_with_shape_matching,,,,,,0.0-0.0-40.0,-1.0,none,,,-1,,500.0,"<div class = fb_box><div class = center-text><font size = 20>Correct!</font></div></div><div class = prompt_box><p class = center-block-text style = ""font-size:16px; line-height:80%;"">Respond if the green and white shapes are the same or different!</p><p class = center-block-text style = ""font-size:16px; line-height:80%;"">Same: M Key</p><p class = center-block-text style = ""font-size:16px; line-height:80%;"">Different: Z Key</p><p class = center-block-text style = ""font-size:16px; line-height:80%;"">Do not respond if you see a star around the white shape</p><p class = center-block-text style = ""font-size:16px; line-height:80%;"">Do not slow down your responses to the shape to wait for the star.</p></div>",,,,,71462,0.0,practice-stop-feedback,40,poldrack-single-stim,
41,,,,,,,,,500.0,,,,,,,stop_signal_with_shape_matching,,,,,,0.0-0.0-41.0,-1.0,none,,,-1,,500.0,"<div class = bigbox><div class = leftbox><img class = center src=""/static/experiments/stop_signal_with_shape_matching/images/mask.png""></img><div class = centerbox><div class = fixation>+</div></div></div><div class = rightbox><img class = center src=""/static/experiments/stop_signal_with_shape_matching/images/mask.png""></img><div class = centerbox><div class = fixation>+</div></div></div></div>",,,,,71968,0.0,practice_mask,41,poldrack-single-stim,
42,300.0,450.0,450.0,450.0,500.0,"<div class = starbox><img class = center src=""/static/experiments/stop_signal_with_shape_matching/images/stopSignal.png""></img></div>",go,,2000.0,,90.0,1.0,0.0,14.0,none,stop_signal_with_shape_matching,,,,,,0.0-0.0-42.0,90.0,"[77, 90]",8.0,,849,DNN,1000.0,"<div class = bigbox><div class = leftbox><img class = center src=""/static/experiments/stop_signal_with_shape_matching/images/4_green.png""></img></div><div class = distractorbox></div><div class = rightbox><img class = center src=""/static/experiments/stop_signal_with_shape_matching/images/8_white.png""></img></div></div>",,go,4.0,,73973,0.0,practice_trial,42,stop-signal,
43,,,,,,,,,500.0,,,,,,,stop_signal_with_shape_matching,,,,,,0.0-0.0-43.0,-1.0,none,,,-1,,500.0,"<div class = fb_box><div class = center-text><font size = 20>Correct!</font></div></div><div class = prompt_box><p class = center-block-text style = ""font-size:16px; line-height:80%;"">Respond if the green and white shapes are the same or different!</p><p class = center-block-text style = ""font-size:16px; line-height:80%;"">Same: M Key</p><p class = center-block-text style = ""font-size:16px; line-height:80%;"">Different: Z Key</p><p class = center-block-text style = ""font-size:16px; line-height:80%;"">Do not respond if you see a star around the white shape</p><p class = center-block-text style = ""font-size:16px; line-height:80%;"">Do not slow down your responses to the shape to wait for the star.</p></div>",,,,,74478,0.0,practice-stop-feedback,43,poldrack-single-stim,
44,,,,,,,,,500.0,,,,,,,stop_signal_with_shape_matching,,,,,,0.0-0.0-44.0,-1.0,none,,,-1,,500.0,"<div class = bigbox><div class = leftbox><img class = center src=""/static/experiments/stop_signal_with_shape_matching/images/mask.png""></img><div class = centerbox><div class = fixation>+</div></div></div><div class = rightbox><img class = center src=""/static/experiments/stop_signal_with_shape_matching/images/mask.png""></img><div class = centerbox><div class = fixation>+</div></div></div></div>",,,,,74984,0.0,practice_mask,44,poldrack-single-stim,
45,300.0,450.0,450.0,300.0,500.0,"<div class = starbox><img class = center src=""/static/experiments/stop_signal_with_shape_matching/images/stopSignal.png""></img></div>",go,,2000.0,,90.0,1.0,0.0,15.0,2,stop_signal_with_shape_matching,,,,,,0.0-0.0-45.0,90.0,"[77, 90]",2.0,,880,DDS,1000.0,"<div class = bigbox><div class = leftbox><img class = center src=""/static/experiments/stop_signal_with_shape_matching/images/4_green.png""></img></div><div class = distractorbox><img class = center src=""/static/experiments/stop_signal_with_shape_matching/images/2_red.png""></img></div><div class = rightbox><img class = center src=""/static/experiments/stop_signal_with_shape_matching/images/2_white.png""></img></div></div>",,go,4.0,,76989,0.0,practice_trial,45,stop-signal,
46,,,,,,,,,500.0,,,,,,,stop_signal_with_shape_matching,,,,,,0.0-0.0-46.0,-1.0,none,,,-1,,500.0,"<div class = fb_box><div class = center-text><font size = 20>Correct!</font></div></div><div class = prompt_box><p class = center-block-text style = ""font-size:16px; line-height:80%;"">Respond if the green and white shapes are the same or different!</p><p class = center-block-text style = ""font-size:16px; line-height:80%;"">Same: M Key</p><p class = center-block-text style = ""font-size:16px; line-height:80%;"">Different: Z Key</p><p class = center-block-text style = ""font-size:16px; line-height:80%;"">Do not respond if you see a star around the white shape</p><p class = center-block-text style = ""font-size:16px; line-height:80%;"">Do not slow down your responses to the shape to wait for the star.</p></div>",,,,,77493,0.0,practice-stop-feedback,46,poldrack-single-stim,
47,,,,,,,,,500.0,,,,,,,stop_signal_with_shape_matching,,,,,,0.0-0.0-47.0,-1.0,none,,,-1,,500.0,"<div class = bigbox><div class = leftbox><img class = center src=""/static/experiments/stop_signal_with_shape_matching/images/mask.png""></img><div class = centerbox><div class = fixation>+</div></div></div><div class = rightbox><img class = center src=""/static/experiments/stop_signal_with_shape_matching/images/mask.png""></img><div class = centerbox><div class = fixation>+</div></div></div></div>",,,,,77999,0.0,practice_mask,47,poldrack-single-stim,
48,300.0,450.0,450.0,300.0,500.0,"<div class = starbox><img class = center src=""/static/experiments/stop_signal_with_shape_matching/images/stopSignal.png""></img></div>",go,,2000.0,,90.0,1.0,0.0,16.0,6,stop_signal_with_shape_matching,,,,,,0.0-0.0-48.0,90.0,"[77, 90]",6.0,,1010,DDS,1000.0,"<div class = bigbox><div class = leftbox><img class = center src=""/static/experiments/stop_signal_with_shape_matching/images/5_green.png""></img></div><div class = distractorbox><img class = center src=""/static/experiments/stop_signal_with_shape_matching/images/6_red.png""></img></div><div class = rightbox><img class = center src=""/static/experiments/stop_signal_with_shape_matching/images/6_white.png""></img></div></div>",,go,5.0,,80006,0.0,practice_trial,48,stop-signal,
49,,,,,,,,,500.0,,,,,,,stop_signal_with_shape_matching,,,,,,0.0-0.0-49.0,-1.0,none,,,-1,,500.0,"<div class = fb_box><div class = center-text><font size = 20>Correct!</font></div></div><div class = prompt_box><p class = center-block-text style = ""font-size:16px; line-height:80%;"">Respond if the green and white shapes are the same or different!</p><p class = center-block-text style = ""font-size:16px; line-height:80%;"">Same: M Key</p><p class = center-block-text style = ""font-size:16px; line-height:80%;"">Different: Z Key</p><p class = center-block-text style = ""font-size:16px; line-height:80%;"">Do not respond if you see a star around the white shape</p><p class = center-block-text style = ""font-size:16px; line-height:80%;"">Do not slow down your responses to the shape to wait for the star.</p></div>",,,,,80510,0.0,practice-stop-feedback,49,poldrack-single-stim,
50,,,,,,,,,500.0,,,,,,,stop_signal_with_shape_matching,,,,,,0.0-0.0-50.0,-1.0,none,,,-1,,500.0,"<div class = bigbox><div class = leftbox><img class = center src=""/static/experiments/stop_signal_with_shape_matching/images/mask.png""></img><div class = centerbox><div class = fixation>+</div></div></div><div class = rightbox><img class = center src=""/static/experiments/stop_signal_with_shape_matching/images/mask.png""></img><div class = centerbox><div class = fixation>+</div></div></div></div>",,,,,81015,0.0,practice_mask,50,poldrack-single-stim,
51,300.0,450.0,450.0,300.0,500.0,"<div class = starbox><img class = center src=""/static/experiments/stop_signal_with_shape_matching/images/stopSignal.png""></img></div>",go,,2000.0,,90.0,1.0,0.0,17.0,6,stop_signal_with_shape_matching,,,,,,0.0-0.0-51.0,90.0,"[77, 90]",5.0,,713,DDD,1000.0,"<div class = bigbox><div class = leftbox><img class = center src=""/static/experiments/stop_signal_with_shape_matching/images/3_green.png""></img></div><div class = distractorbox><img class = center src=""/static/experiments/stop_signal_with_shape_matching/images/6_red.png""></img></div><div class = rightbox><img class = center src=""/static/experiments/stop_signal_with_shape_matching/images/5_white.png""></img></div></div>",,go,3.0,,83020,0.0,practice_trial,51,stop-signal,
52,,,,,,,,,500.0,,,,,,,stop_signal_with_shape_matching,,,,,,0.0-0.0-52.0,-1.0,none,,,-1,,500.0,"<div class = fb_box><div class = center-text><font size = 20>Correct!</font></div></div><div class = prompt_box><p class = center-block-text style = ""font-size:16px; line-height:80%;"">Respond if the green and white shapes are the same or different!</p><p class = center-block-text style = ""font-size:16px; line-height:80%;"">Same: M Key</p><p class = center-block-text style = ""font-size:16px; line-height:80%;"">Different: Z Key</p><p class = center-block-text style = ""font-size:16px; line-height:80%;"">Do not respond if you see a star around the white shape</p><p class = center-block-text style = ""font-size:16px; line-height:80%;"">Do not slow down your responses to the shape to wait for the star.</p></div>",,,,,83524,0.0,practice-stop-feedback,52,poldrack-single-stim,
53,,,,,,,,,500.0,,,,,,,stop_signal_with_shape_matching,,,,,,0.0-0.0-53.0,-1.0,none,,,-1,,500.0,"<div class = bigbox><div class = leftbox><img class = center src=""/static/experiments/stop_signal_with_shape_matching/images/mask.png""></img><div class = centerbox><div class = fixation>+</div></div></div><div class = rightbox><img class = center src=""/static/experiments/stop_signal_with_shape_matching/images/mask.png""></img><div class = centerbox><div class = fixation>+</div></div></div></div>",,,,,84030,0.0,practice_mask,53,poldrack-single-stim,
54,300.0,450.0,450.0,300.0,500.0,"<div class = starbox><img class = center src=""/static/experiments/stop_signal_with_shape_matching/images/stopSignal.png""></img></div>",stop,,2000.0,,-1.0,1.0,0.0,18.0,7,stop_signal_with_shape_matching,,,,,,0.0-0.0-54.0,-1.0,"[77, 90]",4.0,,-1,DDD,1000.0,"<div class = bigbox><div class = leftbox><img class = center src=""/static/experiments/stop_signal_with_shape_matching/images/10_green.png""></img></div><div class = distractorbox><img class = center src=""/static/experiments/stop_signal_with_shape_matching/images/7_red.png""></img></div><div class = rightbox><img class = center src=""/static/experiments/stop_signal_with_shape_matching/images/4_white.png""></img></div></div>",1.0,stop,10.0,,86035,0.0,practice_trial,54,stop-signal,
55,,,,,,,,,500.0,,,,,,,stop_signal_with_shape_matching,,,,,,0.0-0.0-55.0,-1.0,none,,,-1,,500.0,"<div class = fb_box><div class = center-text><font size = 20>Correct!</font></div></div><div class = prompt_box><p class = center-block-text style = ""font-size:16px; line-height:80%;"">Respond if the green and white shapes are the same or different!</p><p class = center-block-text style = ""font-size:16px; line-height:80%;"">Same: M Key</p><p class = center-block-text style = ""font-size:16px; line-height:80%;"">Different: Z Key</p><p class = center-block-text style = ""font-size:16px; line-height:80%;"">Do not respond if you see a star around the white shape</p><p class = center-block-text style = ""font-size:16px; line-height:80%;"">Do not slow down your responses to the shape to wait for the star.</p></div>",,,,,86541,0.0,practice-stop-feedback,55,poldrack-single-stim,
56,,,,,,,,,500.0,,,,,,,stop_signal_with_shape_matching,,,,,,0.0-0.0-56.0,-1.0,none,,,-1,,500.0,"<div class = bigbox><div class = leftbox><img class = center src=""/static/experiments/stop_signal_with_shape_matching/images/mask.png""></img><div class = centerbox><div class = fixation>+</div></div></div><div class = rightbox><img class = center src=""/static/experiments/stop_signal_with_shape_matching/images/mask.png""></img><div class = centerbox><div class = fixation>+</div></div></div></div>",,,,,87046,0.0,practice_mask,56,poldrack-single-stim,
57,350.0,450.0,450.0,450.0,500.0,"<div class = starbox><img class = center src=""/static/experiments/stop_signal_with_shape_matching/images/stopSignal.png""></img></div>",go,,2000.0,,77.0,1.0,0.0,19.0,8,stop_signal_with_shape_matching,,,,,,0.0-0.0-57.0,77.0,"[77, 90]",8.0,,747,SSS,1000.0,"<div class = bigbox><div class = leftbox><img class = center src=""/static/experiments/stop_signal_with_shape_matching/images/8_green.png""></img></div><div class = distractorbox><img class = center src=""/static/experiments/stop_signal_with_shape_matching/images/8_red.png""></img></div><div class = rightbox><img class = center src=""/static/experiments/stop_signal_with_shape_matching/images/8_white.png""></img></div></div>",,go,8.0,,89052,0.0,practice_trial,57,stop-signal,
58,,,,,,,,,500.0,,,,,,,stop_signal_with_shape_matching,,,,,,0.0-0.0-58.0,-1.0,none,,,-1,,500.0,"<div class = fb_box><div class = center-text><font size = 20>Correct!</font></div></div><div class = prompt_box><p class = center-block-text style = ""font-size:16px; line-height:80%;"">Respond if the green and white shapes are the same or different!</p><p class = center-block-text style = ""font-size:16px; line-height:80%;"">Same: M Key</p><p class = center-block-text style = ""font-size:16px; line-height:80%;"">Different: Z Key</p><p class = center-block-text style = ""font-size:16px; line-height:80%;"">Do not respond if you see a star around the white shape</p><p class = center-block-text style = ""font-size:16px; line-height:80%;"">Do not slow down your responses to the shape to wait for the star.</p></div>",,,,,89555,0.0,practice-stop-feedback,58,poldrack-single-stim,
59,,,,,,,,,500.0,,,,,,,stop_signal_with_shape_matching,,,,,,0.0-0.0-59.0,-1.0,none,,,-1,,500.0,"<div class = bigbox><div class = leftbox><img class = center src=""/static/experiments/stop_signal_with_shape_matching/images/mask.png""></img><div class = centerbox><div class = fixation>+</div></div></div><div class = rightbox><img class = center src=""/static/experiments/stop_signal_with_shape_matching/images/mask.png""></img><div class = centerbox><div class = fixation>+</div></div></div></div>",,,,,90061,0.0,practice_mask,59,poldrack-single-stim,
60,350.0,450.0,450.0,350.0,500.0,"<div class = starbox><img class = center src=""/static/experiments/stop_signal_with_shape_matching/images/stopSignal.png""></img></div>",stop,,2000.0,,-1.0,1.0,0.0,20.0,10,stop_signal_with_shape_matching,,,,,,0.0-0.0-60.0,-1.0,"[77, 90]",4.0,,-1,SDD,1000.0,"<div class = bigbox><div class = leftbox><img class = center src=""/static/experiments/stop_signal_with_shape_matching/images/4_green.png""></img></div><div class = distractorbox><img class = center src=""/static/experiments/stop_signal_with_shape_matching/images/10_red.png""></img></div><div class = rightbox><img class = center src=""/static/experiments/stop_signal_with_shape_matching/images/4_white.png""></img></div></div>",1.0,stop,4.0,,92066,0.0,practice_trial,60,stop-signal,
61,,,,,,,,,500.0,,,,,,,stop_signal_with_shape_matching,,,,,,0.0-0.0-61.0,-1.0,none,,,-1,,500.0,"<div class = fb_box><div class = center-text><font size = 20>Correct!</font></div></div><div class = prompt_box><p class = center-block-text style = ""font-size:16px; line-height:80%;"">Respond if the green and white shapes are the same or different!</p><p class = center-block-text style = ""font-size:16px; line-height:80%;"">Same: M Key</p><p class = center-block-text style = ""font-size:16px; line-height:80%;"">Different: Z Key</p><p class = center-block-text style = ""font-size:16px; line-height:80%;"">Do not respond if you see a star around the white shape</p><p class = center-block-text style = ""font-size:16px; line-height:80%;"">Do not slow down your responses to the shape to wait for the star.</p></div>",,,,,92571,0.0,practice-stop-feedback,61,poldrack-single-stim,
62,,,,,,,,,500.0,,,,,,,stop_signal_with_shape_matching,,,,,,0.0-0.0-62.0,-1.0,none,,,-1,,500.0,"<div class = bigbox><div class = leftbox><img class = center src=""/static/experiments/stop_signal_with_shape_matching/images/mask.png""></img><div class = centerbox><div class = fixation>+</div></div></div><div class = rightbox><img class = center src=""/static/experiments/stop_signal_with_shape_matching/images/mask.png""></img><div class = centerbox><div class = fixation>+</div></div></div></div>",,,,,93075,0.0,practice_mask,62,poldrack-single-stim,
63,400.0,450.0,450.0,400.0,500.0,"<div class = starbox><img class = center src=""/static/experiments/stop_signal_with_shape_matching/images/stopSignal.png""></img></div>",go,,2000.0,,77.0,1.0,0.0,21.0,1,stop_signal_with_shape_matching,,,,,,0.0-0.0-63.0,77.0,"[77, 90]",3.0,,718,SDD,1000.0,"<div class = bigbox><div class = leftbox><img class = center src=""/static/experiments/stop_signal_with_shape_matching/images/3_green.png""></img></div><div class = distractorbox><img class = center src=""/static/experiments/stop_signal_with_shape_matching/images/1_red.png""></img></div><div class = rightbox><img class = center src=""/static/experiments/stop_signal_with_shape_matching/images/3_white.png""></img></div></div>",,go,3.0,,95081,0.0,practice_trial,63,stop-signal,
64,,,,,,,,,500.0,,,,,,,stop_signal_with_shape_matching,,,,,,0.0-0.0-64.0,-1.0,none,,,-1,,500.0,"<div class = fb_box><div class = center-text><font size = 20>Correct!</font></div></div><div class = prompt_box><p class = center-block-text style = ""font-size:16px; line-height:80%;"">Respond if the green and white shapes are the same or different!</p><p class = center-block-text style = ""font-size:16px; line-height:80%;"">Same: M Key</p><p class = center-block-text style = ""font-size:16px; line-height:80%;"">Different: Z Key</p><p class = center-block-text style = ""font-size:16px; line-height:80%;"">Do not respond if you see a star around the white shape</p><p class = center-block-text style = ""font-size:16px; line-height:80%;"">Do not slow down your responses to the shape to wait for the star.</p></div>",,,,,95587,0.0,practice-stop-feedback,64,poldrack-single-stim,
65,,,,,,,,,1399.0,,,,,,,stop_signal_with_shape_matching,,,,,,0.0-1.0,13.0,[13],,,1399,,1399.0,<div class = bigbox><div class = picture_box><p class = block-text><br>Please take this time to read your feedback and to take a short break! Press enter to continue</p><p class = block-text>Done with this practice. Press Enter to continue.</p></div></div>,,,,,96997,0.0,feedback_block,65,poldrack-single-stim,
66,,,,,,,,,6199.0,,,,,,,stop_signal_with_shape_matching,,,,,,0.0-2.0,13.0,,,,6199,,,,,,,"<div class = centerbox><p class = block-text>We will now start the test portion</p><p class = block-text>In this experiment you will see at least green shape on the left side of the screen, and a white shape on the right.</p> <p class = block-text>You will be asked to judge whether the green shape on the left is the same the white shape on the right.</p><p class = block-text>If the shapes are the same, please press the M Key.  If the shapes are different, press the Z Key.</p><p class = block-text>On some trials, a red shape will overlap the green shape. Ignore this red shape, your job is to match the green shape to the white shape.</p><p class = block-text>On some trials, you will see a star appear at the same time, or shortly after, the shapes appear. Do not respond if you see a star.</p><p class = block-text>If the star appears on a trial, and you try your best to withhold your response, you will find that you will be able to stop sometimes but not always.</p><p class = block-text>Do not slow down your responses to the shapes in order to wait for the star.</p><p class = block-text>You will no longer receive the rule prompt, so remember the instructions before you continue. Press Enter to begin.</p></div>",103197,1000.0,instruction,66,poldrack-text,
67,,,,,,,,,2046.0,,,,,,,stop_signal_with_shape_matching,,,,,,0.0-3.0-0.0,13.0,[13],,,2046,,2046.0,<div class = bigbox><div class = picture_box><p class = block-text>We will now start the test portion. Press enter to begin.</p></div></div>,,,,,106245,0.0,feedback_block,67,poldrack-single-stim,
68,,,,,,,,,2030.0,True,39.0,,,,,stop_signal_with_shape_matching,,,,,,0.0-3.0-1.0-0.0,39.0,[],,,2030,,2030.0,<p>Press the Right Arrow</p>,,,,,108279,200.0,attention_check,68,attention-check,
69,,,,,,,,,500.0,,,,,,,stop_signal_with_shape_matching,,,,,,0.0-3.0-2.0,-1.0,none,,,-1,,500.0,"<div class = bigbox><div class = leftbox><img class = center src=""/static/experiments/stop_signal_with_shape_matching/images/mask.png""></img><div class = centerbox><div class = fixation>+</div></div></div><div class = rightbox><img class = center src=""/static/experiments/stop_signal_with_shape_matching/images/mask.png""></img><div class = centerbox><div class = fixation>+</div></div></div></div>",,,,,108985,0.0,test_mask,69,poldrack-single-stim,
70,400.0,450.0,450.0,450.0,500.0,"<div class = starbox><img class = center src=""/static/experiments/stop_signal_with_shape_matching/images/stopSignal.png""></img></div>",go,,2000.0,,90.0,1.0,0.0,1.0,3,stop_signal_with_shape_matching,,,,,,0.0-3.0-3.0,90.0,"[77, 90]",2.0,,745,DSD,1000.0,"<div class = bigbox><div class = leftbox><img class = center src=""/static/experiments/stop_signal_with_shape_matching/images/3_green.png""></img></div><div class = distractorbox><img class = center src=""/static/experiments/stop_signal_with_shape_matching/images/3_red.png""></img></div><div class = rightbox><img class = center src=""/static/experiments/stop_signal_with_shape_matching/images/2_white.png""></img></div></div>",,go,3.0,,110990,0.0,test_trial,70,stop-signal,
71,,,,,,,,,500.0,,,,,,,stop_signal_with_shape_matching,,,,,,0.0-3.0-4.0,-1.0,none,,,-1,,500.0,"<div class = bigbox><div class = leftbox><img class = center src=""/static/experiments/stop_signal_with_shape_matching/images/mask.png""></img><div class = centerbox><div class = fixation>+</div></div></div><div class = rightbox><img class = center src=""/static/experiments/stop_signal_with_shape_matching/images/mask.png""></img><div class = centerbox><div class = fixation>+</div></div></div></div>",,,,,111496,0.0,test_mask,71,poldrack-single-stim,
72,400.0,450.0,450.0,450.0,500.0,"<div class = starbox><img class = center src=""/static/experiments/stop_signal_with_shape_matching/images/stopSignal.png""></img></div>",go,,2000.0,,77.0,1.0,0.0,2.0,4,stop_signal_with_shape_matching,,,,,,0.0-3.0-5.0,77.0,"[77, 90]",4.0,,540,SSS,1000.0,"<div class = bigbox><div class = leftbox><img class = center src=""/static/experiments/stop_signal_with_shape_matching/images/4_green.png""></img></div><div class = distractorbox><img class = center src=""/static/experiments/stop_signal_with_shape_matching/images/4_red.png""></img></div><div class = rightbox><img class = center src=""/static/experiments/stop_signal_with_shape_matching/images/4_white.png""></img></div></div>",,go,4.0,,113500,0.0,test_trial,72,stop-signal,
73,,,,,,,,,500.0,,,,,,,stop_signal_with_shape_matching,,,,,,0.0-3.0-6.0,-1.0,none,,,-1,,500.0,"<div class = bigbox><div class = leftbox><img class = center src=""/static/experiments/stop_signal_with_shape_matching/images/mask.png""></img><div class = centerbox><div class = fixation>+</div></div></div><div class = rightbox><img class = center src=""/static/experiments/stop_signal_with_shape_matching/images/mask.png""></img><div class = centerbox><div class = fixation>+</div></div></div></div>",,,,,114005,0.0,test_mask,73,poldrack-single-stim,
74,400.0,450.0,450.0,450.0,500.0,"<div class = starbox><img class = center src=""/static/experiments/stop_signal_with_shape_matching/images/stopSignal.png""></img></div>",go,,2000.0,,90.0,1.0,0.0,3.0,8,stop_signal_with_shape_matching,,,,,,0.0-3.0-7.0,90.0,"[77, 90]",10.0,,670,DSD,1000.0,"<div class = bigbox><div class = leftbox><img class = center src=""/static/experiments/stop_signal_with_shape_matching/images/8_green.png""></img></div><div class = distractorbox><img class = center src=""/static/experiments/stop_signal_with_shape_matching/images/8_red.png""></img></div><div class = rightbox><img class = center src=""/static/experiments/stop_signal_with_shape_matching/images/10_white.png""></img></div></div>",,go,8.0,,116010,0.0,test_trial,74,stop-signal,
75,,,,,,,,,500.0,,,,,,,stop_signal_with_shape_matching,,,,,,0.0-3.0-8.0,-1.0,none,,,-1,,500.0,"<div class = bigbox><div class = leftbox><img class = center src=""/static/experiments/stop_signal_with_shape_matching/images/mask.png""></img><div class = centerbox><div class = fixation>+</div></div></div><div class = rightbox><img class = center src=""/static/experiments/stop_signal_with_shape_matching/images/mask.png""></img><div class = centerbox><div class = fixation>+</div></div></div></div>",,,,,116514,0.0,test_mask,75,poldrack-single-stim,
76,400.0,450.0,450.0,450.0,500.0,"<div class = starbox><img class = center src=""/static/experiments/stop_signal_with_shape_matching/images/stopSignal.png""></img></div>",go,,2000.0,,90.0,1.0,0.0,4.0,7,stop_signal_with_shape_matching,,,,,,0.0-3.0-9.0,90.0,"[77, 90]",10.0,,681,DSD,1000.0,"<div class = bigbox><div class = leftbox><img class = center src=""/static/experiments/stop_signal_with_shape_matching/images/7_green.png""></img></div><div class = distractorbox><img class = center src=""/static/experiments/stop_signal_with_shape_matching/images/7_red.png""></img></div><div class = rightbox><img class = center src=""/static/experiments/stop_signal_with_shape_matching/images/10_white.png""></img></div></div>",,go,7.0,,118518,0.0,test_trial,76,stop-signal,
77,,,,,,,,,500.0,,,,,,,stop_signal_with_shape_matching,,,,,,0.0-3.0-10.0,-1.0,none,,,-1,,500.0,"<div class = bigbox><div class = leftbox><img class = center src=""/static/experiments/stop_signal_with_shape_matching/images/mask.png""></img><div class = centerbox><div class = fixation>+</div></div></div><div class = rightbox><img class = center src=""/static/experiments/stop_signal_with_shape_matching/images/mask.png""></img><div class = centerbox><div class = fixation>+</div></div></div></div>",,,,,119026,0.0,test_mask,77,poldrack-single-stim,
78,400.0,450.0,450.0,400.0,500.0,"<div class = starbox><img class = center src=""/static/experiments/stop_signal_with_shape_matching/images/stopSignal.png""></img></div>",stop,,2000.0,,-1.0,1.0,0.0,5.0,1,stop_signal_with_shape_matching,,,,,,0.0-3.0-11.0,-1.0,"[77, 90]",1.0,,-1,DDS,1000.0,"<div class = bigbox><div class = leftbox><img class = center src=""/static/experiments/stop_signal_with_shape_matching/images/5_green.png""></img></div><div class = distractorbox><img class = center src=""/static/experiments/stop_signal_with_shape_matching/images/1_red.png""></img></div><div class = rightbox><img class = center src=""/static/experiments/stop_signal_with_shape_matching/images/1_white.png""></img></div></div>",1.0,stop,5.0,,121030,0.0,test_trial,78,stop-signal,
79,,,,,,,,,500.0,,,,,,,stop_signal_with_shape_matching,,,,,,0.0-3.0-12.0,-1.0,none,,,-1,,500.0,"<div class = bigbox><div class = leftbox><img class = center src=""/static/experiments/stop_signal_with_shape_matching/images/mask.png""></img><div class = centerbox><div class = fixation>+</div></div></div><div class = rightbox><img class = center src=""/static/experiments/stop_signal_with_shape_matching/images/mask.png""></img><div class = centerbox><div class = fixation>+</div></div></div></div>",,,,,121536,0.0,test_mask,79,poldrack-single-stim,
80,450.0,450.0,450.0,450.0,500.0,"<div class = starbox><img class = center src=""/static/experiments/stop_signal_with_shape_matching/images/stopSignal.png""></img></div>",go,,2000.0,,90.0,1.0,0.0,6.0,6,stop_signal_with_shape_matching,,,,,,0.0-3.0-13.0,90.0,"[77, 90]",6.0,,644,DDS,1000.0,"<div class = bigbox><div class = leftbox><img class = center src=""/static/experiments/stop_signal_with_shape_matching/images/4_green.png""></img></div><div class = distractorbox><img class = center src=""/static/experiments/stop_signal_with_shape_matching/images/6_red.png""></img></div><div class = rightbox><img class = center src=""/static/experiments/stop_signal_with_shape_matching/images/6_white.png""></img></div></div>",,go,4.0,,123540,0.0,test_trial,80,stop-signal,
81,,,,,,,,,500.0,,,,,,,stop_signal_with_shape_matching,,,,,,0.0-3.0-14.0,-1.0,none,,,-1,,500.0,"<div class = bigbox><div class = leftbox><img class = center src=""/static/experiments/stop_signal_with_shape_matching/images/mask.png""></img><div class = centerbox><div class = fixation>+</div></div></div><div class = rightbox><img class = center src=""/static/experiments/stop_signal_with_shape_matching/images/mask.png""></img><div class = centerbox><div class = fixation>+</div></div></div></div>",,,,,124045,0.0,test_mask,81,poldrack-single-stim,
82,450.0,450.0,450.0,450.0,500.0,"<div class = starbox><img class = center src=""/static/experiments/stop_signal_with_shape_matching/images/stopSignal.png""></img></div>",go,,2000.0,,77.0,1.0,0.0,7.0,8,stop_signal_with_shape_matching,,,,,,0.0-3.0-15.0,77.0,"[77, 90]",2.0,,790,SDD,1000.0,"<div class = bigbox><div class = leftbox><img class = center src=""/static/experiments/stop_signal_with_shape_matching/images/2_green.png""></img></div><div class = distractorbox><img class = center src=""/static/experiments/stop_signal_with_shape_matching/images/8_red.png""></img></div><div class = rightbox><img class = center src=""/static/experiments/stop_signal_with_shape_matching/images/2_white.png""></img></div></div>",,go,2.0,,126051,0.0,test_trial,82,stop-signal,
83,,,,,,,,,500.0,,,,,,,stop_signal_with_shape_matching,,,,,,0.0-3.0-16.0,-1.0,none,,,-1,,500.0,"<div class = bigbox><div class = leftbox><img class = center src=""/static/experiments/stop_signal_with_shape_matching/images/mask.png""></img><div class = centerbox><div class = fixation>+</div></div></div><div class = rightbox><img class = center src=""/static/experiments/stop_signal_with_shape_matching/images/mask.png""></img><div class = centerbox><div class = fixation>+</div></div></div></div>",,,,,126556,0.0,test_mask,83,poldrack-single-stim,
84,450.0,450.0,450.0,450.0,500.0,"<div class = starbox><img class = center src=""/static/experiments/stop_signal_with_shape_matching/images/stopSignal.png""></img></div>",go,,2000.0,,90.0,1.0,0.0,8.0,6,stop_signal_with_shape_matching,,,,,,0.0-3.0-17.0,90.0,"[77, 90]",2.0,,616,DDD,1000.0,"<div class = bigbox><div class = leftbox><img class = center src=""/static/experiments/stop_signal_with_shape_matching/images/3_green.png""></img></div><div class = distractorbox><img class = center src=""/static/experiments/stop_signal_with_shape_matching/images/6_red.png""></img></div><div class = rightbox><img class = center src=""/static/experiments/stop_signal_with_shape_matching/images/2_white.png""></img></div></div>",,go,3.0,,128561,0.0,test_trial,84,stop-signal,
85,,,,,,,,,500.0,,,,,,,stop_signal_with_shape_matching,,,,,,0.0-3.0-18.0,-1.0,none,,,-1,,500.0,"<div class = bigbox><div class = leftbox><img class = center src=""/static/experiments/stop_signal_with_shape_matching/images/mask.png""></img><div class = centerbox><div class = fixation>+</div></div></div><div class = rightbox><img class = center src=""/static/experiments/stop_signal_with_shape_matching/images/mask.png""></img><div class = centerbox><div class = fixation>+</div></div></div></div>",,,,,129068,0.0,test_mask,85,poldrack-single-stim,
86,450.0,450.0,450.0,450.0,500.0,"<div class = starbox><img class = center src=""/static/experiments/stop_signal_with_shape_matching/images/stopSignal.png""></img></div>",stop,,2000.0,,-1.0,1.0,0.0,9.0,6,stop_signal_with_shape_matching,,,,,,0.0-3.0-19.0,-1.0,"[77, 90]",9.0,,-1,SDD,1000.0,"<div class = bigbox><div class = leftbox><img class = center src=""/static/experiments/stop_signal_with_shape_matching/images/9_green.png""></img></div><div class = distractorbox><img class = center src=""/static/experiments/stop_signal_with_shape_matching/images/6_red.png""></img></div><div class = rightbox><img class = center src=""/static/experiments/stop_signal_with_shape_matching/images/9_white.png""></img></div></div>",1.0,stop,9.0,,131073,0.0,test_trial,86,stop-signal,
87,,,,,,,,,500.0,,,,,,,stop_signal_with_shape_matching,,,,,,0.0-3.0-20.0,-1.0,none,,,-1,,500.0,"<div class = bigbox><div class = leftbox><img class = center src=""/static/experiments/stop_signal_with_shape_matching/images/mask.png""></img><div class = centerbox><div class = fixation>+</div></div></div><div class = rightbox><img class = center src=""/static/experiments/stop_signal_with_shape_matching/images/mask.png""></img><div class = centerbox><div class = fixation>+</div></div></div></div>",,,,,131579,0.0,test_mask,87,poldrack-single-stim,
88,500.0,450.0,450.0,500.0,500.0,"<div class = starbox><img class = center src=""/static/experiments/stop_signal_with_shape_matching/images/stopSignal.png""></img></div>",go,,2000.0,,90.0,1.0,0.0,10.0,5,stop_signal_with_shape_matching,,,,,,0.0-3.0-21.0,90.0,"[77, 90]",5.0,,579,DDS,1000.0,"<div class = bigbox><div class = leftbox><img class = center src=""/static/experiments/stop_signal_with_shape_matching/images/1_green.png""></img></div><div class = distractorbox><img class = center src=""/static/experiments/stop_signal_with_shape_matching/images/5_red.png""></img></div><div class = rightbox><img class = center src=""/static/experiments/stop_signal_with_shape_matching/images/5_white.png""></img></div></div>",,go,1.0,,133581,0.0,test_trial,88,stop-signal,
89,,,,,,,,,500.0,,,,,,,stop_signal_with_shape_matching,,,,,,0.0-3.0-22.0,-1.0,none,,,-1,,500.0,"<div class = bigbox><div class = leftbox><img class = center src=""/static/experiments/stop_signal_with_shape_matching/images/mask.png""></img><div class = centerbox><div class = fixation>+</div></div></div><div class = rightbox><img class = center src=""/static/experiments/stop_signal_with_shape_matching/images/mask.png""></img><div class = centerbox><div class = fixation>+</div></div></div></div>",,,,,134086,0.0,test_mask,89,poldrack-single-stim,
90,500.0,450.0,450.0,450.0,500.0,"<div class = starbox><img class = center src=""/static/experiments/stop_signal_with_shape_matching/images/stopSignal.png""></img></div>",go,,2000.0,,77.0,1.0,0.0,11.0,none,stop_signal_with_shape_matching,,,,,,0.0-3.0-23.0,77.0,"[77, 90]",6.0,,625,SNN,1000.0,"<div class = bigbox><div class = leftbox><img class = center src=""/static/experiments/stop_signal_with_shape_matching/images/6_green.png""></img></div><div class = distractorbox></div><div class = rightbox><img class = center src=""/static/experiments/stop_signal_with_shape_matching/images/6_white.png""></img></div></div>",,go,6.0,,136090,0.0,test_trial,90,stop-signal,
91,,,,,,,,,500.0,,,,,,,stop_signal_with_shape_matching,,,,,,0.0-3.0-24.0,-1.0,none,,,-1,,500.0,"<div class = bigbox><div class = leftbox><img class = center src=""/static/experiments/stop_signal_with_shape_matching/images/mask.png""></img><div class = centerbox><div class = fixation>+</div></div></div><div class = rightbox><img class = center src=""/static/experiments/stop_signal_with_shape_matching/images/mask.png""></img><div class = centerbox><div class = fixation>+</div></div></div></div>",,,,,136593,0.0,test_mask,91,poldrack-single-stim,
92,500.0,450.0,450.0,500.0,500.0,"<div class = starbox><img class = center src=""/static/experiments/stop_signal_with_shape_matching/images/stopSignal.png""></img></div>",stop,,2000.0,,-1.0,0.0,0.0,12.0,9,stop_signal_with_shape_matching,,,,,,0.0-3.0-25.0,90.0,"[77, 90]",2.0,,676,DDD,1000.0,"<div class = bigbox><div class = leftbox><img class = center src=""/static/experiments/stop_signal_with_shape_matching/images/8_green.png""></img></div><div class = distractorbox><img class = center src=""/static/experiments/stop_signal_with_shape_matching/images/9_red.png""></img></div><div class = rightbox><img class = center src=""/static/experiments/stop_signal_with_shape_matching/images/2_white.png""></img></div></div>",0.0,stop,8.0,,138597,0.0,test_trial,92,stop-signal,
93,,,,,,,,,500.0,,,,,,,stop_signal_with_shape_matching,,,,,,0.0-3.0-26.0,-1.0,none,,,-1,,500.0,"<div class = bigbox><div class = leftbox><img class = center src=""/static/experiments/stop_signal_with_shape_matching/images/mask.png""></img><div class = centerbox><div class = fixation>+</div></div></div><div class = rightbox><img class = center src=""/static/experiments/stop_signal_with_shape_matching/images/mask.png""></img><div class = centerbox><div class = fixation>+</div></div></div></div>",,,,,139102,0.0,test_mask,93,poldrack-single-stim,
94,450.0,450.0,450.0,450.0,500.0,"<div class = starbox><img class = center src=""/static/experiments/stop_signal_with_shape_matching/images/stopSignal.png""></img></div>",go,,2000.0,,77.0,1.0,0.0,13.0,8,stop_signal_with_shape_matching,,,,,,0.0-3.0-27.0,77.0,"[77, 90]",1.0,,790,SDD,1000.0,"<div class = bigbox><div class = leftbox><img class = center src=""/static/experiments/stop_signal_with_shape_matching/images/1_green.png""></img></div><div class = distractorbox><img class = center src=""/static/experiments/stop_signal_with_shape_matching/images/8_red.png""></img></div><div class = rightbox><img class = center src=""/static/experiments/stop_signal_with_shape_matching/images/1_white.png""></img></div></div>",,go,1.0,,141107,0.0,test_trial,94,stop-signal,
95,,,,,,,,,500.0,,,,,,,stop_signal_with_shape_matching,,,,,,0.0-3.0-28.0,-1.0,none,,,-1,,500.0,"<div class = bigbox><div class = leftbox><img class = center src=""/static/experiments/stop_signal_with_shape_matching/images/mask.png""></img><div class = centerbox><div class = fixation>+</div></div></div><div class = rightbox><img class = center src=""/static/experiments/stop_signal_with_shape_matching/images/mask.png""></img><div class = centerbox><div class = fixation>+</div></div></div></div>",,,,,141612,0.0,test_mask,95,poldrack-single-stim,
96,450.0,450.0,450.0,450.0,500.0,"<div class = starbox><img class = center src=""/static/experiments/stop_signal_with_shape_matching/images/stopSignal.png""></img></div>",stop,,2000.0,,-1.0,1.0,0.0,14.0,4,stop_signal_with_shape_matching,,,,,,0.0-3.0-29.0,-1.0,"[77, 90]",4.0,,-1,SSS,1000.0,"<div class = bigbox><div class = leftbox><img class = center src=""/static/experiments/stop_signal_with_shape_matching/images/4_green.png""></img></div><div class = distractorbox><img class = center src=""/static/experiments/stop_signal_with_shape_matching/images/4_red.png""></img></div><div class = rightbox><img class = center src=""/static/experiments/stop_signal_with_shape_matching/images/4_white.png""></img></div></div>",1.0,stop,4.0,,143617,0.0,test_trial,96,stop-signal,
97,,,,,,,,,500.0,,,,,,,stop_signal_with_shape_matching,,,,,,0.0-3.0-30.0,-1.0,none,,,-1,,500.0,"<div class = bigbox><div class = leftbox><img class = center src=""/static/experiments/stop_signal_with_shape_matching/images/mask.png""></img><div class = centerbox><div class = fixation>+</div></div></div><div class = rightbox><img class = center src=""/static/experiments/stop_signal_with_shape_matching/images/mask.png""></img><div class = centerbox><div class = fixation>+</div></div></div></div>",,,,,144123,0.0,test_mask,97,poldrack-single-stim,
98,450.0,450.0,500.0,500.0,500.0,"<div class = starbox><img class = center src=""/static/experiments/stop_signal_with_shape_matching/images/stopSignal.png""></img></div>",go,,2000.0,,90.0,1.0,0.0,15.0,5,stop_signal_with_shape_matching,,,,,,0.0-3.0-31.0,90.0,"[77, 90]",4.0,,674,DSD,1000.0,"<div class = bigbox><div class = leftbox><img class = center src=""/static/experiments/stop_signal_with_shape_matching/images/5_green.png""></img></div><div class = distractorbox><img class = center src=""/static/experiments/stop_signal_with_shape_matching/images/5_red.png""></img></div><div class = rightbox><img class = center src=""/static/experiments/stop_signal_with_shape_matching/images/4_white.png""></img></div></div>",,go,5.0,,146128,0.0,test_trial,98,stop-signal,
99,,,,,,,,,500.0,,,,,,,stop_signal_with_shape_matching,,,,,,0.0-3.0-32.0,-1.0,none,,,-1,,500.0,"<div class = bigbox><div class = leftbox><img class = center src=""/static/experiments/stop_signal_with_shape_matching/images/mask.png""></img><div class = centerbox><div class = fixation>+</div></div></div><div class = rightbox><img class = center src=""/static/experiments/stop_signal_with_shape_matching/images/mask.png""></img><div class = centerbox><div class = fixation>+</div></div></div></div>",,,,,146633,0.0,test_mask,99,poldrack-single-stim,
100,450.0,450.0,500.0,500.0,500.0,"<div class = starbox><img class = center src=""/static/experiments/stop_signal_with_shape_matching/images/stopSignal.png""></img></div>",go,,2000.0,,90.0,1.0,0.0,16.0,6,stop_signal_with_shape_matching,,,,,,0.0-3.0-33.0,90.0,"[77, 90]",3.0,,804,DSD,1000.0,"<div class = bigbox><div class = leftbox><img class = center src=""/static/experiments/stop_signal_with_shape_matching/images/6_green.png""></img></div><div class = distractorbox><img class = center src=""/static/experiments/stop_signal_with_shape_matching/images/6_red.png""></img></div><div class = rightbox><img class = center src=""/static/experiments/stop_signal_with_shape_matching/images/3_white.png""></img></div></div>",,go,6.0,,148637,0.0,test_trial,100,stop-signal,
101,,,,,,,,,500.0,,,,,,,stop_signal_with_shape_matching,,,,,,0.0-3.0-34.0,-1.0,none,,,-1,,500.0,"<div class = bigbox><div class = leftbox><img class = center src=""/static/experiments/stop_signal_with_shape_matching/images/mask.png""></img><div class = centerbox><div class = fixation>+</div></div></div><div class = rightbox><img class = center src=""/static/experiments/stop_signal_with_shape_matching/images/mask.png""></img><div class = centerbox><div class = fixation>+</div></div></div></div>",,,,,149142,0.0,test_mask,101,poldrack-single-stim,
102,450.0,450.0,500.0,450.0,500.0,"<div class = starbox><img class = center src=""/static/experiments/stop_signal_with_shape_matching/images/stopSignal.png""></img></div>",stop,,2000.0,,-1.0,1.0,0.0,17.0,6,stop_signal_with_shape_matching,,,,,,0.0-3.0-35.0,-1.0,"[77, 90]",6.0,,-1,DDS,1000.0,"<div class = bigbox><div class = leftbox><img class = center src=""/static/experiments/stop_signal_with_shape_matching/images/2_green.png""></img></div><div class = distractorbox><img class = center src=""/static/experiments/stop_signal_with_shape_matching/images/6_red.png""></img></div><div class = rightbox><img class = center src=""/static/experiments/stop_signal_with_shape_matching/images/6_white.png""></img></div></div>",1.0,stop,2.0,,151147,0.0,test_trial,102,stop-signal,
103,,,,,,,,,500.0,,,,,,,stop_signal_with_shape_matching,,,,,,0.0-3.0-36.0,-1.0,none,,,-1,,500.0,"<div class = bigbox><div class = leftbox><img class = center src=""/static/experiments/stop_signal_with_shape_matching/images/mask.png""></img><div class = centerbox><div class = fixation>+</div></div></div><div class = rightbox><img class = center src=""/static/experiments/stop_signal_with_shape_matching/images/mask.png""></img><div class = centerbox><div class = fixation>+</div></div></div></div>",,,,,151653,0.0,test_mask,103,poldrack-single-stim,
104,500.0,450.0,500.0,450.0,500.0,"<div class = starbox><img class = center src=""/static/experiments/stop_signal_with_shape_matching/images/stopSignal.png""></img></div>",go,,2000.0,,77.0,1.0,0.0,18.0,none,stop_signal_with_shape_matching,,,,,,0.0-3.0-37.0,77.0,"[77, 90]",2.0,,744,SNN,1000.0,"<div class = bigbox><div class = leftbox><img class = center src=""/static/experiments/stop_signal_with_shape_matching/images/2_green.png""></img></div><div class = distractorbox></div><div class = rightbox><img class = center src=""/static/experiments/stop_signal_with_shape_matching/images/2_white.png""></img></div></div>",,go,2.0,,153658,0.0,test_trial,104,stop-signal,
105,,,,,,,,,500.0,,,,,,,stop_signal_with_shape_matching,,,,,,0.0-3.0-38.0,-1.0,none,,,-1,,500.0,"<div class = bigbox><div class = leftbox><img class = center src=""/static/experiments/stop_signal_with_shape_matching/images/mask.png""></img><div class = centerbox><div class = fixation>+</div></div></div><div class = rightbox><img class = center src=""/static/experiments/stop_signal_with_shape_matching/images/mask.png""></img><div class = centerbox><div class = fixation>+</div></div></div></div>",,,,,154164,0.0,test_mask,105,poldrack-single-stim,
106,500.0,450.0,500.0,500.0,500.0,"<div class = starbox><img class = center src=""/static/experiments/stop_signal_with_shape_matching/images/stopSignal.png""></img></div>",go,,2000.0,,90.0,1.0,0.0,19.0,7,stop_signal_with_shape_matching,,,,,,0.0-3.0-39.0,90.0,"[77, 90]",1.0,,658,DSD,1000.0,"<div class = bigbox><div class = leftbox><img class = center src=""/static/experiments/stop_signal_with_shape_matching/images/7_green.png""></img></div><div class = distractorbox><img class = center src=""/static/experiments/stop_signal_with_shape_matching/images/7_red.png""></img></div><div class = rightbox><img class = center src=""/static/experiments/stop_signal_with_shape_matching/images/1_white.png""></img></div></div>",,go,7.0,,156169,0.0,test_trial,106,stop-signal,
107,,,,,,,,,500.0,,,,,,,stop_signal_with_shape_matching,,,,,,0.0-3.0-40.0,-1.0,none,,,-1,,500.0,"<div class = bigbox><div class = leftbox><img class = center src=""/static/experiments/stop_signal_with_shape_matching/images/mask.png""></img><div class = centerbox><div class = fixation>+</div></div></div><div class = rightbox><img class = center src=""/static/experiments/stop_signal_with_shape_matching/images/mask.png""></img><div class = centerbox><div class = fixation>+</div></div></div></div>",,,,,156674,0.0,test_mask,107,poldrack-single-stim,
108,500.0,450.0,500.0,450.0,500.0,"<div class = starbox><img class = center src=""/static/experiments/stop_signal_with_shape_matching/images/stopSignal.png""></img></div>",stop,,2000.0,,-1.0,1.0,0.0,20.0,none,stop_signal_with_shape_matching,,,,,,0.0-3.0-41.0,-1.0,"[77, 90]",6.0,,-1,DNN,1000.0,"<div class = bigbox><div class = leftbox><img class = center src=""/static/experiments/stop_signal_with_shape_matching/images/1_green.png""></img></div><div class = distractorbox></div><div class = rightbox><img class = center src=""/static/experiments/stop_signal_with_shape_matching/images/6_white.png""></img></div></div>",1.0,stop,1.0,,158679,0.0,test_trial,108,stop-signal,
109,,,,,,,,,500.0,,,,,,,stop_signal_with_shape_matching,,,,,,0.0-3.0-42.0,-1.0,none,,,-1,,500.0,"<div class = bigbox><div class = leftbox><img class = center src=""/static/experiments/stop_signal_with_shape_matching/images/mask.png""></img><div class = centerbox><div class = fixation>+</div></div></div><div class = rightbox><img class = center src=""/static/experiments/stop_signal_with_shape_matching/images/mask.png""></img><div class = centerbox><div class = fixation>+</div></div></div></div>",,,,,159185,0.0,test_mask,109,poldrack-single-stim,
110,500.0,500.0,500.0,500.0,500.0,"<div class = starbox><img class = center src=""/static/experiments/stop_signal_with_shape_matching/images/stopSignal.png""></img></div>",go,,2000.0,,77.0,1.0,0.0,21.0,6,stop_signal_with_shape_matching,,,,,,0.0-3.0-43.0,77.0,"[77, 90]",6.0,,725,SSS,1000.0,"<div class = bigbox><div class = leftbox><img class = center src=""/static/experiments/stop_signal_with_shape_matching/images/6_green.png""></img></div><div class = distractorbox><img class = center src=""/static/experiments/stop_signal_with_shape_matching/images/6_red.png""></img></div><div class = rightbox><img class = center src=""/static/experiments/stop_signal_with_shape_matching/images/6_white.png""></img></div></div>",,go,6.0,,161191,0.0,test_trial,110,stop-signal,
111,,,,,,,,,500.0,,,,,,,stop_signal_with_shape_matching,,,,,,0.0-3.0-44.0,-1.0,none,,,-1,,500.0,"<div class = bigbox><div class = leftbox><img class = center src=""/static/experiments/stop_signal_with_shape_matching/images/mask.png""></img><div class = centerbox><div class = fixation>+</div></div></div><div class = rightbox><img class = center src=""/static/experiments/stop_signal_with_shape_matching/images/mask.png""></img><div class = centerbox><div class = fixation>+</div></div></div></div>",,,,,161696,0.0,test_mask,111,poldrack-single-stim,
112,500.0,500.0,500.0,500.0,500.0,"<div class = starbox><img class = center src=""/static/experiments/stop_signal_with_shape_matching/images/stopSignal.png""></img></div>",go,,2000.0,,77.0,1.0,0.0,22.0,1,stop_signal_with_shape_matching,,,,,,0.0-3.0-45.0,77.0,"[77, 90]",4.0,,703,SDD,1000.0,"<div class = bigbox><div class = leftbox><img class = center src=""/static/experiments/stop_signal_with_shape_matching/images/4_green.png""></img></div><div class = distractorbox><img class = center src=""/static/experiments/stop_signal_with_shape_matching/images/1_red.png""></img></div><div class = rightbox><img class = center src=""/static/experiments/stop_signal_with_shape_matching/images/4_white.png""></img></div></div>",,go,4.0,,163701,0.0,test_trial,112,stop-signal,
113,,,,,,,,,500.0,,,,,,,stop_signal_with_shape_matching,,,,,,0.0-3.0-46.0,-1.0,none,,,-1,,500.0,"<div class = bigbox><div class = leftbox><img class = center src=""/static/experiments/stop_signal_with_shape_matching/images/mask.png""></img><div class = centerbox><div class = fixation>+</div></div></div><div class = rightbox><img class = center src=""/static/experiments/stop_signal_with_shape_matching/images/mask.png""></img><div class = centerbox><div class = fixation>+</div></div></div></div>",,,,,164206,0.0,test_mask,113,poldrack-single-stim,
114,500.0,500.0,500.0,500.0,500.0,"<div class = starbox><img class = center src=""/static/experiments/stop_signal_with_shape_matching/images/stopSignal.png""></img></div>",go,,2000.0,,90.0,1.0,0.0,23.0,none,stop_signal_with_shape_matching,,,,,,0.0-3.0-47.0,90.0,"[77, 90]",8.0,,986,DNN,1000.0,"<div class = bigbox><div class = leftbox><img class = center src=""/static/experiments/stop_signal_with_shape_matching/images/1_green.png""></img></div><div class = distractorbox></div><div class = rightbox><img class = center src=""/static/experiments/stop_signal_with_shape_matching/images/8_white.png""></img></div></div>",,go,1.0,,166210,0.0,test_trial,114,stop-signal,
115,,,,,,,,,500.0,,,,,,,stop_signal_with_shape_matching,,,,,,0.0-3.0-48.0,-1.0,none,,,-1,,500.0,"<div class = bigbox><div class = leftbox><img class = center src=""/static/experiments/stop_signal_with_shape_matching/images/mask.png""></img><div class = centerbox><div class = fixation>+</div></div></div><div class = rightbox><img class = center src=""/static/experiments/stop_signal_with_shape_matching/images/mask.png""></img><div class = centerbox><div class = fixation>+</div></div></div></div>",,,,,166720,0.0,test_mask,115,poldrack-single-stim,
116,500.0,500.0,500.0,500.0,500.0,"<div class = starbox><img class = center src=""/static/experiments/stop_signal_with_shape_matching/images/stopSignal.png""></img></div>",stop,,2000.0,,-1.0,1.0,0.0,24.0,10,stop_signal_with_shape_matching,,,,,,0.0-3.0-49.0,-1.0,"[77, 90]",5.0,,-1,SDD,1000.0,"<div class = bigbox><div class = leftbox><img class = center src=""/static/experiments/stop_signal_with_shape_matching/images/5_green.png""></img></div><div class = distractorbox><img class = center src=""/static/experiments/stop_signal_with_shape_matching/images/10_red.png""></img></div><div class = rightbox><img class = center src=""/static/experiments/stop_signal_with_shape_matching/images/5_white.png""></img></div></div>",1.0,stop,5.0,,168726,0.0,test_trial,116,stop-signal,
117,,,,,,,,,500.0,,,,,,,stop_signal_with_shape_matching,,,,,,0.0-3.0-50.0,-1.0,none,,,-1,,500.0,"<div class = bigbox><div class = leftbox><img class = center src=""/static/experiments/stop_signal_with_shape_matching/images/mask.png""></img><div class = centerbox><div class = fixation>+</div></div></div><div class = rightbox><img class = center src=""/static/experiments/stop_signal_with_shape_matching/images/mask.png""></img><div class = centerbox><div class = fixation>+</div></div></div></div>",,,,,169230,0.0,test_mask,117,poldrack-single-stim,
118,550.0,500.0,500.0,500.0,500.0,"<div class = starbox><img class = center src=""/static/experiments/stop_signal_with_shape_matching/images/stopSignal.png""></img></div>",go,,2000.0,,77.0,1.0,0.0,25.0,10,stop_signal_with_shape_matching,,,,,,0.0-3.0-51.0,77.0,"[77, 90]",10.0,,753,SSS,1000.0,"<div class = bigbox><div class = leftbox><img class = center src=""/static/experiments/stop_signal_with_shape_matching/images/10_green.png""></img></div><div class = distractorbox><img class = center src=""/static/experiments/stop_signal_with_shape_matching/images/10_red.png""></img></div><div class = rightbox><img class = center src=""/static/experiments/stop_signal_with_shape_matching/images/10_white.png""></img></div></div>",,go,10.0,,171235,0.0,test_trial,118,stop-signal,
119,,,,,,,,,500.0,,,,,,,stop_signal_with_shape_matching,,,,,,0.0-3.0-52.0,-1.0,none,,,-1,,500.0,"<div class = bigbox><div class = leftbox><img class = center src=""/static/experiments/stop_signal_with_shape_matching/images/mask.png""></img><div class = centerbox><div class = fixation>+</div></div></div><div class = rightbox><img class = center src=""/static/experiments/stop_signal_with_shape_matching/images/mask.png""></img><div class = centerbox><div class = fixation>+</div></div></div></div>",,,,,171741,0.0,test_mask,119,poldrack-single-stim,
120,550.0,500.0,500.0,500.0,500.0,"<div class = starbox><img class = center src=""/static/experiments/stop_signal_with_shape_matching/images/stopSignal.png""></img></div>",stop,,2000.0,,-1.0,1.0,0.0,26.0,none,stop_signal_with_shape_matching,,,,,,0.0-3.0-53.0,-1.0,"[77, 90]",9.0,,-1,SNN,1000.0,"<div class = bigbox><div class = leftbox><img class = center src=""/static/experiments/stop_signal_with_shape_matching/images/9_green.png""></img></div><div class = distractorbox></div><div class = rightbox><img class = center src=""/static/experiments/stop_signal_with_shape_matching/images/9_white.png""></img></div></div>",1.0,stop,9.0,,173745,0.0,test_trial,120,stop-signal,
121,,,,,,,,,500.0,,,,,,,stop_signal_with_shape_matching,,,,,,0.0-3.0-54.0,-1.0,none,,,-1,,500.0,"<div class = bigbox><div class = leftbox><img class = center src=""/static/experiments/stop_signal_with_shape_matching/images/mask.png""></img><div class = centerbox><div class = fixation>+</div></div></div><div class = rightbox><img class = center src=""/static/experiments/stop_signal_with_shape_matching/images/mask.png""></img><div class = centerbox><div class = fixation>+</div></div></div></div>",,,,,174250,0.0,test_mask,121,poldrack-single-stim,
122,550.0,550.0,500.0,550.0,500.0,"<div class = starbox><img class = center src=""/static/experiments/stop_signal_with_shape_matching/images/stopSignal.png""></img></div>",stop,,2000.0,,-1.0,0.0,0.0,27.0,1,stop_signal_with_shape_matching,,,,,,0.0-3.0-55.0,77.0,"[77, 90]",7.0,,630,SDD,1000.0,"<div class = bigbox><div class = leftbox><img class = center src=""/static/experiments/stop_signal_with_shape_matching/images/7_green.png""></img></div><div class = distractorbox><img class = center src=""/static/experiments/stop_signal_with_shape_matching/images/1_red.png""></img></div><div class = rightbox><img class = center src=""/static/experiments/stop_signal_with_shape_matching/images/7_white.png""></img></div></div>",0.0,stop,7.0,,176255,0.0,test_trial,122,stop-signal,
123,,,,,,,,,500.0,,,,,,,stop_signal_with_shape_matching,,,,,,0.0-3.0-56.0,-1.0,none,,,-1,,500.0,"<div class = bigbox><div class = leftbox><img class = center src=""/static/experiments/stop_signal_with_shape_matching/images/mask.png""></img><div class = centerbox><div class = fixation>+</div></div></div><div class = rightbox><img class = center src=""/static/experiments/stop_signal_with_shape_matching/images/mask.png""></img><div class = centerbox><div class = fixation>+</div></div></div></div>",,,,,176760,0.0,test_mask,123,poldrack-single-stim,
124,500.0,550.0,500.0,500.0,500.0,"<div class = starbox><img class = center src=""/static/experiments/stop_signal_with_shape_matching/images/stopSignal.png""></img></div>",stop,,2000.0,,-1.0,1.0,0.0,28.0,2,stop_signal_with_shape_matching,,,,,,0.0-3.0-57.0,-1.0,"[77, 90]",9.0,,-1,DDD,1000.0,"<div class = bigbox><div class = leftbox><img class = center src=""/static/experiments/stop_signal_with_shape_matching/images/3_green.png""></img></div><div class = distractorbox><img class = center src=""/static/experiments/stop_signal_with_shape_matching/images/2_red.png""></img></div><div class = rightbox><img class = center src=""/static/experiments/stop_signal_with_shape_matching/images/9_white.png""></img></div></div>",1.0,stop,3.0,,178764,0.0,test_trial,124,stop-signal,
125,,,,,,,,,500.0,,,,,,,stop_signal_with_shape_matching,,,,,,0.0-3.0-58.0,-1.0,none,,,-1,,500.0,"<div class = bigbox><div class = leftbox><img class = center src=""/static/experiments/stop_signal_with_shape_matching/images/mask.png""></img><div class = centerbox><div class = fixation>+</div></div></div><div class = rightbox><img class = center src=""/static/experiments/stop_signal_with_shape_matching/images/mask.png""></img><div class = centerbox><div class = fixation>+</div></div></div></div>",,,,,179270,0.0,test_mask,125,poldrack-single-stim,
126,550.0,550.0,500.0,550.0,500.0,"<div class = starbox><img class = center src=""/static/experiments/stop_signal_with_shape_matching/images/stopSignal.png""></img></div>",stop,,2000.0,,-1.0,0.0,0.0,29.0,none,stop_signal_with_shape_matching,,,,,,0.0-3.0-59.0,90.0,"[77, 90]",4.0,,691,DNN,1000.0,"<div class = bigbox><div class = leftbox><img class = center src=""/static/experiments/stop_signal_with_shape_matching/images/2_green.png""></img></div><div class = distractorbox></div><div class = rightbox><img class = center src=""/static/experiments/stop_signal_with_shape_matching/images/4_white.png""></img></div></div>",0.0,stop,2.0,,181274,0.0,test_trial,126,stop-signal,
127,,,,,,,,,500.0,,,,,,,stop_signal_with_shape_matching,,,,,,0.0-3.0-60.0,-1.0,none,,,-1,,500.0,"<div class = bigbox><div class = leftbox><img class = center src=""/static/experiments/stop_signal_with_shape_matching/images/mask.png""></img><div class = centerbox><div class = fixation>+</div></div></div><div class = rightbox><img class = center src=""/static/experiments/stop_signal_with_shape_matching/images/mask.png""></img><div class = centerbox><div class = fixation>+</div></div></div></div>",,,,,181780,0.0,test_mask,127,poldrack-single-stim,
128,550.0,500.0,500.0,550.0,500.0,"<div class = starbox><img class = center src=""/static/experiments/stop_signal_with_shape_matching/images/stopSignal.png""></img></div>",go,,2000.0,,90.0,1.0,0.0,30.0,9,stop_signal_with_shape_matching,,,,,,0.0-3.0-61.0,90.0,"[77, 90]",8.0,,781,DDD,1000.0,"<div class = bigbox><div class = leftbox><img class = center src=""/static/experiments/stop_signal_with_shape_matching/images/2_green.png""></img></div><div class = distractorbox><img class = center src=""/static/experiments/stop_signal_with_shape_matching/images/9_red.png""></img></div><div class = rightbox><img class = center src=""/static/experiments/stop_signal_with_shape_matching/images/8_white.png""></img></div></div>",,go,2.0,,183785,0.0,test_trial,128,stop-signal,
129,,,,,,,,,500.0,,,,,,,stop_signal_with_shape_matching,,,,,,0.0-3.0-62.0,-1.0,none,,,-1,,500.0,"<div class = bigbox><div class = leftbox><img class = center src=""/static/experiments/stop_signal_with_shape_matching/images/mask.png""></img><div class = centerbox><div class = fixation>+</div></div></div><div class = rightbox><img class = center src=""/static/experiments/stop_signal_with_shape_matching/images/mask.png""></img><div class = centerbox><div class = fixation>+</div></div></div></div>",,,,,184290,0.0,test_mask,129,poldrack-single-stim,
130,550.0,500.0,500.0,500.0,500.0,"<div class = starbox><img class = center src=""/static/experiments/stop_signal_with_shape_matching/images/stopSignal.png""></img></div>",stop,,2000.0,,-1.0,0.0,0.0,31.0,none,stop_signal_with_shape_matching,,,,,,0.0-3.0-63.0,77.0,"[77, 90]",4.0,,663,SNN,1000.0,"<div class = bigbox><div class = leftbox><img class = center src=""/static/experiments/stop_signal_with_shape_matching/images/4_green.png""></img></div><div class = distractorbox></div><div class = rightbox><img class = center src=""/static/experiments/stop_signal_with_shape_matching/images/4_white.png""></img></div></div>",0.0,stop,4.0,,186295,0.0,test_trial,130,stop-signal,
131,,,,,,,,,500.0,,,,,,,stop_signal_with_shape_matching,,,,,,0.0-3.0-64.0,-1.0,none,,,-1,,500.0,"<div class = bigbox><div class = leftbox><img class = center src=""/static/experiments/stop_signal_with_shape_matching/images/mask.png""></img><div class = centerbox><div class = fixation>+</div></div></div><div class = rightbox><img class = center src=""/static/experiments/stop_signal_with_shape_matching/images/mask.png""></img><div class = centerbox><div class = fixation>+</div></div></div></div>",,,,,186800,0.0,test_mask,131,poldrack-single-stim,
132,550.0,450.0,500.0,450.0,500.0,"<div class = starbox><img class = center src=""/static/experiments/stop_signal_with_shape_matching/images/stopSignal.png""></img></div>",go,,2000.0,,90.0,1.0,0.0,32.0,none,stop_signal_with_shape_matching,,,,,,0.0-3.0-65.0,90.0,"[77, 90]",1.0,,777,DNN,1000.0,"<div class = bigbox><div class = leftbox><img class = center src=""/static/experiments/stop_signal_with_shape_matching/images/2_green.png""></img></div><div class = distractorbox></div><div class = rightbox><img class = center src=""/static/experiments/stop_signal_with_shape_matching/images/1_white.png""></img></div></div>",,go,2.0,,188805,0.0,test_trial,132,stop-signal,
133,,,,,,,,,500.0,,,,,,,stop_signal_with_shape_matching,,,,,,0.0-3.0-66.0,-1.0,none,,,-1,,500.0,"<div class = bigbox><div class = leftbox><img class = center src=""/static/experiments/stop_signal_with_shape_matching/images/mask.png""></img><div class = centerbox><div class = fixation>+</div></div></div><div class = rightbox><img class = center src=""/static/experiments/stop_signal_with_shape_matching/images/mask.png""></img><div class = centerbox><div class = fixation>+</div></div></div></div>",,,,,189310,0.0,test_mask,133,poldrack-single-stim,
134,550.0,450.0,500.0,450.0,500.0,"<div class = starbox><img class = center src=""/static/experiments/stop_signal_with_shape_matching/images/stopSignal.png""></img></div>",go,,2000.0,,77.0,1.0,0.0,33.0,none,stop_signal_with_shape_matching,,,,,,0.0-3.0-67.0,77.0,"[77, 90]",2.0,,717,SNN,1000.0,"<div class = bigbox><div class = leftbox><img class = center src=""/static/experiments/stop_signal_with_shape_matching/images/2_green.png""></img></div><div class = distractorbox></div><div class = rightbox><img class = center src=""/static/experiments/stop_signal_with_shape_matching/images/2_white.png""></img></div></div>",,go,2.0,,191314,0.0,test_trial,134,stop-signal,
135,,,,,,,,,500.0,,,,,,,stop_signal_with_shape_matching,,,,,,0.0-3.0-68.0,-1.0,none,,,-1,,500.0,"<div class = bigbox><div class = leftbox><img class = center src=""/static/experiments/stop_signal_with_shape_matching/images/mask.png""></img><div class = centerbox><div class = fixation>+</div></div></div><div class = rightbox><img class = center src=""/static/experiments/stop_signal_with_shape_matching/images/mask.png""></img><div class = centerbox><div class = fixation>+</div></div></div></div>",,,,,191820,0.0,test_mask,135,poldrack-single-stim,
136,550.0,450.0,500.0,450.0,500.0,"<div class = starbox><img class = center src=""/static/experiments/stop_signal_with_shape_matching/images/stopSignal.png""></img></div>",stop,,2000.0,,-1.0,1.0,0.0,34.0,none,stop_signal_with_shape_matching,,,,,,0.0-3.0-69.0,-1.0,"[77, 90]",9.0,,-1,DNN,1000.0,"<div class = bigbox><div class = leftbox><img class = center src=""/static/experiments/stop_signal_with_shape_matching/images/2_green.png""></img></div><div class = distractorbox></div><div class = rightbox><img class = center src=""/static/experiments/stop_signal_with_shape_matching/images/9_white.png""></img></div></div>",1.0,stop,2.0,,193823,0.0,test_trial,136,stop-signal,
137,,,,,,,,,500.0,,,,,,,stop_signal_with_shape_matching,,,,,,0.0-3.0-70.0,-1.0,none,,,-1,,500.0,"<div class = bigbox><div class = leftbox><img class = center src=""/static/experiments/stop_signal_with_shape_matching/images/mask.png""></img><div class = centerbox><div class = fixation>+</div></div></div><div class = rightbox><img class = center src=""/static/experiments/stop_signal_with_shape_matching/images/mask.png""></img><div class = centerbox><div class = fixation>+</div></div></div></div>",,,,,194329,0.0,test_mask,137,poldrack-single-stim,
138,550.0,500.0,500.0,500.0,500.0,"<div class = starbox><img class = center src=""/static/experiments/stop_signal_with_shape_matching/images/stopSignal.png""></img></div>",stop,,2000.0,,-1.0,1.0,0.0,35.0,10,stop_signal_with_shape_matching,,,,,,0.0-3.0-71.0,-1.0,"[77, 90]",5.0,,-1,DSD,1000.0,"<div class = bigbox><div class = leftbox><img class = center src=""/static/experiments/stop_signal_with_shape_matching/images/10_green.png""></img></div><div class = distractorbox><img class = center src=""/static/experiments/stop_signal_with_shape_matching/images/10_red.png""></img></div><div class = rightbox><img class = center src=""/static/experiments/stop_signal_with_shape_matching/images/5_white.png""></img></div></div>",1.0,stop,10.0,,196334,0.0,test_trial,138,stop-signal,
139,,,,,,,,,500.0,,,,,,,stop_signal_with_shape_matching,,,,,,0.0-3.0-72.0,-1.0,none,,,-1,,500.0,"<div class = bigbox><div class = leftbox><img class = center src=""/static/experiments/stop_signal_with_shape_matching/images/mask.png""></img><div class = centerbox><div class = fixation>+</div></div></div><div class = rightbox><img class = center src=""/static/experiments/stop_signal_with_shape_matching/images/mask.png""></img><div class = centerbox><div class = fixation>+</div></div></div></div>",,,,,196841,0.0,test_mask,139,poldrack-single-stim,
140,550.0,500.0,550.0,550.0,500.0,"<div class = starbox><img class = center src=""/static/experiments/stop_signal_with_shape_matching/images/stopSignal.png""></img></div>",go,,2000.0,,90.0,1.0,0.0,36.0,5,stop_signal_with_shape_matching,,,,,,0.0-3.0-73.0,90.0,"[77, 90]",5.0,,639,DDS,1000.0,"<div class = bigbox><div class = leftbox><img class = center src=""/static/experiments/stop_signal_with_shape_matching/images/9_green.png""></img></div><div class = distractorbox><img class = center src=""/static/experiments/stop_signal_with_shape_matching/images/5_red.png""></img></div><div class = rightbox><img class = center src=""/static/experiments/stop_signal_with_shape_matching/images/5_white.png""></img></div></div>",,go,9.0,,198846,0.0,test_trial,140,stop-signal,
141,,,,,,,,,500.0,,,,,,,stop_signal_with_shape_matching,,,,,,0.0-3.0-74.0,-1.0,none,,,-1,,500.0,"<div class = bigbox><div class = leftbox><img class = center src=""/static/experiments/stop_signal_with_shape_matching/images/mask.png""></img><div class = centerbox><div class = fixation>+</div></div></div><div class = rightbox><img class = center src=""/static/experiments/stop_signal_with_shape_matching/images/mask.png""></img><div class = centerbox><div class = fixation>+</div></div></div></div>",,,,,199352,0.0,test_mask,141,poldrack-single-stim,
142,550.0,500.0,550.0,550.0,500.0,"<div class = starbox><img class = center src=""/static/experiments/stop_signal_with_shape_matching/images/stopSignal.png""></img></div>",go,,2000.0,,77.0,1.0,0.0,37.0,5,stop_signal_with_shape_matching,,,,,,0.0-3.0-75.0,77.0,"[77, 90]",5.0,,698,SSS,1000.0,"<div class = bigbox><div class = leftbox><img class = center src=""/static/experiments/stop_signal_with_shape_matching/images/5_green.png""></img></div><div class = distractorbox><img class = center src=""/static/experiments/stop_signal_with_shape_matching/images/5_red.png""></img></div><div class = rightbox><img class = center src=""/static/experiments/stop_signal_with_shape_matching/images/5_white.png""></img></div></div>",,go,5.0,,201357,0.0,test_trial,142,stop-signal,
143,,,,,,,,,500.0,,,,,,,stop_signal_with_shape_matching,,,,,,0.0-3.0-76.0,-1.0,none,,,-1,,500.0,"<div class = bigbox><div class = leftbox><img class = center src=""/static/experiments/stop_signal_with_shape_matching/images/mask.png""></img><div class = centerbox><div class = fixation>+</div></div></div><div class = rightbox><img class = center src=""/static/experiments/stop_signal_with_shape_matching/images/mask.png""></img><div class = centerbox><div class = fixation>+</div></div></div></div>",,,,,201862,0.0,test_mask,143,poldrack-single-stim,
144,550.0,500.0,550.0,550.0,500.0,"<div class = starbox><img class = center src=""/static/experiments/stop_signal_with_shape_matching/images/stopSignal.png""></img></div>",stop,,2000.0,,-1.0,0.0,0.0,38.0,3,stop_signal_with_shape_matching,,,,,,0.0-3.0-77.0,77.0,"[77, 90]",7.0,,684,SDD,1000.0,"<div class = bigbox><div class = leftbox><img class = center src=""/static/experiments/stop_signal_with_shape_matching/images/7_green.png""></img></div><div class = distractorbox><img class = center src=""/static/experiments/stop_signal_with_shape_matching/images/3_red.png""></img></div><div class = rightbox><img class = center src=""/static/experiments/stop_signal_with_shape_matching/images/7_white.png""></img></div></div>",0.0,stop,7.0,,203866,0.0,test_trial,144,stop-signal,
145,,,,,,,,,500.0,,,,,,,stop_signal_with_shape_matching,,,,,,0.0-3.0-78.0,-1.0,none,,,-1,,500.0,"<div class = bigbox><div class = leftbox><img class = center src=""/static/experiments/stop_signal_with_shape_matching/images/mask.png""></img><div class = centerbox><div class = fixation>+</div></div></div><div class = rightbox><img class = center src=""/static/experiments/stop_signal_with_shape_matching/images/mask.png""></img><div class = centerbox><div class = fixation>+</div></div></div></div>",,,,,204372,0.0,test_mask,145,poldrack-single-stim,
146,500.0,500.0,550.0,500.0,500.0,"<div class = starbox><img class = center src=""/static/experiments/stop_signal_with_shape_matching/images/stopSignal.png""></img></div>",go,,2000.0,,90.0,1.0,0.0,39.0,none,stop_signal_with_shape_matching,,,,,,0.0-3.0-79.0,90.0,"[77, 90]",3.0,,910,DNN,1000.0,"<div class = bigbox><div class = leftbox><img class = center src=""/static/experiments/stop_signal_with_shape_matching/images/2_green.png""></img></div><div class = distractorbox></div><div class = rightbox><img class = center src=""/static/experiments/stop_signal_with_shape_matching/images/3_white.png""></img></div></div>",,go,2.0,,206377,0.0,test_trial,146,stop-signal,
