,SS_delay,SS_duration,SS_stimulus,SS_trial_type,att_check_percent,block_duration,correct,correct_response,correct_trial,current_block,current_trial,exp_id,final_accuracy,final_avg_rt,final_credit_var,final_missed_percent,final_responses_ok,go_acc,internal_node_id,key_press,possible_responses,responses,rt,stim,stim_duration,stimulus,stop_acc,stop_signal_condition,text,time_elapsed,timing_post_trial,trial_id,trial_index,trial_type,view_history
0,,,,,,2951.0,,,,,,stop_signal_single_task_network,,,,,,,0.0-0.0-0.0,13.0,[13],,2951,,2951.0,"<div class = bigbox><div class = picture_box><p class = block-text><font color=""white"">Welcome to the experiment. This experiment will take about 10 minutes. Press <i>enter</i> to begin.</font></p></div></div>",,,,2953,0.0,practice-no-stop-feedback,0,poldrack-single-stim,
1,,,,,,,,,,,,stop_signal_single_task_network,,,,,,,0.0-0.0-1.0,,,,20845,,,,,,,23800,,instruction,1,poldrack-instructions,"[{""page_index"":0,""viewing_time"":12888},{""page_index"":1,""viewing_time"":5736},{""page_index"":2,""viewing_time"":2221}]"
2,,,,,,500.0,,,,,,stop_signal_single_task_network,,,,,,,0.0-0.0-2.0,-1.0,none,,-1,,500.0,<div class = centerbox><div class = fixation>+</div></div>,,,,24307,0.0,prompt_fixation,2,poldrack-single-stim,
3,350.0,500.0,<img class = center src='/static/experiments/stop_signal_single_task_network/images/stopSignal.png'></img>,stop,,2000.0,,-1.0,1.0,0.0,1.0,stop_signal_single_task_network,,,,,,,0.0-0.0-3.0,-1.0,"[90, 77]",,-1,square,1000.0,<div class = bigbox><div class = centerbox><div class = gng_number><div class = cue-text><img class = center src='/static/experiments/stop_signal_single_task_network/images/square.png'></img></div>,1.0,stop,,26314,0.0,practice_trial,3,stop-signal,
4,,,,,,500.0,,,,,,stop_signal_single_task_network,,,,,,,0.0-0.0-4.0,-1.0,none,,-1,,500.0,"<div class = fb_box><div class = center-text><font size = 20>Correct!</font></div></div><div class = prompt_box><p class = center-block-text style = ""font-size:16px; line-height:80%%;"">circle: Z key</p><p class = center-block-text style = ""font-size:16px; line-height:80%%;"">square: M key</p><p class = center-block-text style = ""font-size:16px; line-height:80%%;"">Do not respond if a star appears!</p></div>",,,,26821,0.0,practice-stop-feedback,4,poldrack-single-stim,
5,,,,,,500.0,,,,,,stop_signal_single_task_network,,,,,,,0.0-0.0-5.0,-1.0,none,,-1,,500.0,<div class = centerbox><div class = fixation>+</div></div>,,,,27325,0.0,prompt_fixation,5,poldrack-single-stim,
6,400.0,500.0,<img class = center src='/static/experiments/stop_signal_single_task_network/images/stopSignal.png'></img>,go,,2000.0,,77.0,1.0,0.0,2.0,stop_signal_single_task_network,,,,,,1.0,0.0-0.0-6.0,77.0,"[90, 77]",,1026,square,1000.0,<div class = bigbox><div class = centerbox><div class = gng_number><div class = cue-text><img class = center src='/static/experiments/stop_signal_single_task_network/images/square.png'></img></div>,,go,,29330,0.0,practice_trial,6,stop-signal,
7,,,,,,500.0,,,,,,stop_signal_single_task_network,,,,,,,0.0-0.0-7.0,-1.0,none,,-1,,500.0,"<div class = fb_box><div class = center-text><font size = 20>Correct!</font></div></div><div class = prompt_box><p class = center-block-text style = ""font-size:16px; line-height:80%%;"">circle: Z key</p><p class = center-block-text style = ""font-size:16px; line-height:80%%;"">square: M key</p><p class = center-block-text style = ""font-size:16px; line-height:80%%;"">Do not respond if a star appears!</p></div>",,,,29835,0.0,practice-stop-feedback,7,poldrack-single-stim,
8,,,,,,500.0,,,,,,stop_signal_single_task_network,,,,,,,0.0-0.0-8.0,-1.0,none,,-1,,500.0,<div class = centerbox><div class = fixation>+</div></div>,,,,30339,0.0,prompt_fixation,8,poldrack-single-stim,
9,400.0,500.0,<img class = center src='/static/experiments/stop_signal_single_task_network/images/stopSignal.png'></img>,stop,,2000.0,,-1.0,0.0,0.0,3.0,stop_signal_single_task_network,,,,,,,0.0-0.0-9.0,90.0,"[90, 77]",,629,circle,1000.0,<div class = bigbox><div class = centerbox><div class = gng_number><div class = cue-text><img class = center src='/static/experiments/stop_signal_single_task_network/images/circle.png'></img></div>,0.0,stop,,32343,0.0,practice_trial,9,stop-signal,
10,,,,,,500.0,,,,,,stop_signal_single_task_network,,,,,,,0.0-0.0-10.0,-1.0,none,,-1,,500.0,"<div class = fb_box><div class = center-text><font size = 20>There was a star.</font></div></div><div class = prompt_box><p class = center-block-text style = ""font-size:16px; line-height:80%%;"">circle: Z key</p><p class = center-block-text style = ""font-size:16px; line-height:80%%;"">square: M key</p><p class = center-block-text style = ""font-size:16px; line-height:80%%;"">Do not respond if a star appears!</p></div>",,,,32849,0.0,practice-stop-feedback,10,poldrack-single-stim,
11,,,,,,500.0,,,,,,stop_signal_single_task_network,,,,,,,0.0-0.0-11.0,-1.0,none,,-1,,500.0,<div class = centerbox><div class = fixation>+</div></div>,,,,33352,0.0,prompt_fixation,11,poldrack-single-stim,
12,350.0,500.0,<img class = center src='/static/experiments/stop_signal_single_task_network/images/stopSignal.png'></img>,go,,2000.0,,77.0,1.0,0.0,4.0,stop_signal_single_task_network,,,,,,1.0,0.0-0.0-12.0,77.0,"[90, 77]",,798,square,1000.0,<div class = bigbox><div class = centerbox><div class = gng_number><div class = cue-text><img class = center src='/static/experiments/stop_signal_single_task_network/images/square.png'></img></div>,,go,,35357,0.0,practice_trial,12,stop-signal,
13,,,,,,500.0,,,,,,stop_signal_single_task_network,,,,,,,0.0-0.0-13.0,-1.0,none,,-1,,500.0,"<div class = fb_box><div class = center-text><font size = 20>Correct!</font></div></div><div class = prompt_box><p class = center-block-text style = ""font-size:16px; line-height:80%%;"">circle: Z key</p><p class = center-block-text style = ""font-size:16px; line-height:80%%;"">square: M key</p><p class = center-block-text style = ""font-size:16px; line-height:80%%;"">Do not respond if a star appears!</p></div>",,,,35861,0.0,practice-stop-feedback,13,poldrack-single-stim,
14,,,,,,500.0,,,,,,stop_signal_single_task_network,,,,,,,0.0-0.0-14.0,-1.0,none,,-1,,500.0,<div class = centerbox><div class = fixation>+</div></div>,,,,36368,0.0,prompt_fixation,14,poldrack-single-stim,
15,350.0,500.0,<img class = center src='/static/experiments/stop_signal_single_task_network/images/stopSignal.png'></img>,go,,2000.0,,90.0,1.0,0.0,5.0,stop_signal_single_task_network,,,,,,1.0,0.0-0.0-15.0,90.0,"[90, 77]",,671,circle,1000.0,<div class = bigbox><div class = centerbox><div class = gng_number><div class = cue-text><img class = center src='/static/experiments/stop_signal_single_task_network/images/circle.png'></img></div>,,go,,38372,0.0,practice_trial,15,stop-signal,
16,,,,,,500.0,,,,,,stop_signal_single_task_network,,,,,,,0.0-0.0-16.0,-1.0,none,,-1,,500.0,"<div class = fb_box><div class = center-text><font size = 20>Correct!</font></div></div><div class = prompt_box><p class = center-block-text style = ""font-size:16px; line-height:80%%;"">circle: Z key</p><p class = center-block-text style = ""font-size:16px; line-height:80%%;"">square: M key</p><p class = center-block-text style = ""font-size:16px; line-height:80%%;"">Do not respond if a star appears!</p></div>",,,,38876,0.0,practice-stop-feedback,16,poldrack-single-stim,
17,,,,,,500.0,,,,,,stop_signal_single_task_network,,,,,,,0.0-0.0-17.0,-1.0,none,,-1,,500.0,<div class = centerbox><div class = fixation>+</div></div>,,,,39379,0.0,prompt_fixation,17,poldrack-single-stim,
18,350.0,500.0,<img class = center src='/static/experiments/stop_signal_single_task_network/images/stopSignal.png'></img>,stop,,2000.0,,-1.0,1.0,0.0,6.0,stop_signal_single_task_network,,,,,,,0.0-0.0-18.0,-1.0,"[90, 77]",,-1,square,1000.0,<div class = bigbox><div class = centerbox><div class = gng_number><div class = cue-text><img class = center src='/static/experiments/stop_signal_single_task_network/images/square.png'></img></div>,1.0,stop,,41385,0.0,practice_trial,18,stop-signal,
19,,,,,,500.0,,,,,,stop_signal_single_task_network,,,,,,,0.0-0.0-19.0,-1.0,none,,-1,,500.0,"<div class = fb_box><div class = center-text><font size = 20>Correct!</font></div></div><div class = prompt_box><p class = center-block-text style = ""font-size:16px; line-height:80%%;"">circle: Z key</p><p class = center-block-text style = ""font-size:16px; line-height:80%%;"">square: M key</p><p class = center-block-text style = ""font-size:16px; line-height:80%%;"">Do not respond if a star appears!</p></div>",,,,41887,0.0,practice-stop-feedback,19,poldrack-single-stim,
20,,,,,,500.0,,,,,,stop_signal_single_task_network,,,,,,,0.0-0.0-20.0,-1.0,none,,-1,,500.0,<div class = centerbox><div class = fixation>+</div></div>,,,,42392,0.0,prompt_fixation,20,poldrack-single-stim,
21,400.0,500.0,<img class = center src='/static/experiments/stop_signal_single_task_network/images/stopSignal.png'></img>,go,,2000.0,,90.0,0.0,0.0,7.0,stop_signal_single_task_network,,,,,,0.0,0.0-0.0-21.0,77.0,"[90, 77]",,594,circle,1000.0,<div class = bigbox><div class = centerbox><div class = gng_number><div class = cue-text><img class = center src='/static/experiments/stop_signal_single_task_network/images/circle.png'></img></div>,,go,,44396,0.0,practice_trial,21,stop-signal,
22,,,,,,500.0,,,,,,stop_signal_single_task_network,,,,,,,0.0-0.0-22.0,-1.0,none,,-1,,500.0,"<div class = fb_box><div class = center-text><font size = 20>Incorrect</font></div></div><div class = prompt_box><p class = center-block-text style = ""font-size:16px; line-height:80%%;"">circle: Z key</p><p class = center-block-text style = ""font-size:16px; line-height:80%%;"">square: M key</p><p class = center-block-text style = ""font-size:16px; line-height:80%%;"">Do not respond if a star appears!</p></div>",,,,44900,0.0,practice-stop-feedback,22,poldrack-single-stim,
23,,,,,,500.0,,,,,,stop_signal_single_task_network,,,,,,,0.0-0.0-23.0,-1.0,none,,-1,,500.0,<div class = centerbox><div class = fixation>+</div></div>,,,,45404,0.0,prompt_fixation,23,poldrack-single-stim,
24,400.0,500.0,<img class = center src='/static/experiments/stop_signal_single_task_network/images/stopSignal.png'></img>,go,,2000.0,,77.0,1.0,0.0,8.0,stop_signal_single_task_network,,,,,,1.0,0.0-0.0-24.0,77.0,"[90, 77]",,885,square,1000.0,<div class = bigbox><div class = centerbox><div class = gng_number><div class = cue-text><img class = center src='/static/experiments/stop_signal_single_task_network/images/square.png'></img></div>,,go,,47409,0.0,practice_trial,24,stop-signal,
25,,,,,,500.0,,,,,,stop_signal_single_task_network,,,,,,,0.0-0.0-25.0,-1.0,none,,-1,,500.0,"<div class = fb_box><div class = center-text><font size = 20>Correct!</font></div></div><div class = prompt_box><p class = center-block-text style = ""font-size:16px; line-height:80%%;"">circle: Z key</p><p class = center-block-text style = ""font-size:16px; line-height:80%%;"">square: M key</p><p class = center-block-text style = ""font-size:16px; line-height:80%%;"">Do not respond if a star appears!</p></div>",,,,47913,0.0,practice-stop-feedback,25,poldrack-single-stim,
26,,,,,,500.0,,,,,,stop_signal_single_task_network,,,,,,,0.0-0.0-26.0,-1.0,none,,-1,,500.0,<div class = centerbox><div class = fixation>+</div></div>,,,,48418,0.0,prompt_fixation,26,poldrack-single-stim,
27,400.0,500.0,<img class = center src='/static/experiments/stop_signal_single_task_network/images/stopSignal.png'></img>,go,,2000.0,,90.0,1.0,0.0,9.0,stop_signal_single_task_network,,,,,,1.0,0.0-0.0-27.0,90.0,"[90, 77]",,734,circle,1000.0,<div class = bigbox><div class = centerbox><div class = gng_number><div class = cue-text><img class = center src='/static/experiments/stop_signal_single_task_network/images/circle.png'></img></div>,,go,,50424,0.0,practice_trial,27,stop-signal,
28,,,,,,500.0,,,,,,stop_signal_single_task_network,,,,,,,0.0-0.0-28.0,-1.0,none,,-1,,500.0,"<div class = fb_box><div class = center-text><font size = 20>Correct!</font></div></div><div class = prompt_box><p class = center-block-text style = ""font-size:16px; line-height:80%%;"">circle: Z key</p><p class = center-block-text style = ""font-size:16px; line-height:80%%;"">square: M key</p><p class = center-block-text style = ""font-size:16px; line-height:80%%;"">Do not respond if a star appears!</p></div>",,,,50929,0.0,practice-stop-feedback,28,poldrack-single-stim,
29,,,,,,500.0,,,,,,stop_signal_single_task_network,,,,,,,0.0-0.0-29.0,-1.0,none,,-1,,500.0,<div class = centerbox><div class = fixation>+</div></div>,,,,51433,0.0,prompt_fixation,29,poldrack-single-stim,
30,400.0,500.0,<img class = center src='/static/experiments/stop_signal_single_task_network/images/stopSignal.png'></img>,stop,,2000.0,,-1.0,1.0,0.0,10.0,stop_signal_single_task_network,,,,,,,0.0-0.0-30.0,-1.0,"[90, 77]",,-1,circle,1000.0,<div class = bigbox><div class = centerbox><div class = gng_number><div class = cue-text><img class = center src='/static/experiments/stop_signal_single_task_network/images/circle.png'></img></div>,1.0,stop,,53438,0.0,practice_trial,30,stop-signal,
31,,,,,,500.0,,,,,,stop_signal_single_task_network,,,,,,,0.0-0.0-31.0,-1.0,none,,-1,,500.0,"<div class = fb_box><div class = center-text><font size = 20>Correct!</font></div></div><div class = prompt_box><p class = center-block-text style = ""font-size:16px; line-height:80%%;"">circle: Z key</p><p class = center-block-text style = ""font-size:16px; line-height:80%%;"">square: M key</p><p class = center-block-text style = ""font-size:16px; line-height:80%%;"">Do not respond if a star appears!</p></div>",,,,53942,0.0,practice-stop-feedback,31,poldrack-single-stim,
32,,,,,,500.0,,,,,,stop_signal_single_task_network,,,,,,,0.0-0.0-32.0,-1.0,none,,-1,,500.0,<div class = centerbox><div class = fixation>+</div></div>,,,,54446,0.0,prompt_fixation,32,poldrack-single-stim,
33,450.0,500.0,<img class = center src='/static/experiments/stop_signal_single_task_network/images/stopSignal.png'></img>,go,,2000.0,,90.0,1.0,0.0,11.0,stop_signal_single_task_network,,,,,,1.0,0.0-0.0-33.0,90.0,"[90, 77]",,676,circle,1000.0,<div class = bigbox><div class = centerbox><div class = gng_number><div class = cue-text><img class = center src='/static/experiments/stop_signal_single_task_network/images/circle.png'></img></div>,,go,,56452,0.0,practice_trial,33,stop-signal,
34,,,,,,500.0,,,,,,stop_signal_single_task_network,,,,,,,0.0-0.0-34.0,-1.0,none,,-1,,500.0,"<div class = fb_box><div class = center-text><font size = 20>Correct!</font></div></div><div class = prompt_box><p class = center-block-text style = ""font-size:16px; line-height:80%%;"">circle: Z key</p><p class = center-block-text style = ""font-size:16px; line-height:80%%;"">square: M key</p><p class = center-block-text style = ""font-size:16px; line-height:80%%;"">Do not respond if a star appears!</p></div>",,,,56956,0.0,practice-stop-feedback,34,poldrack-single-stim,
35,,,,,,500.0,,,,,,stop_signal_single_task_network,,,,,,,0.0-0.0-35.0,-1.0,none,,-1,,500.0,<div class = centerbox><div class = fixation>+</div></div>,,,,57461,0.0,prompt_fixation,35,poldrack-single-stim,
36,450.0,500.0,<img class = center src='/static/experiments/stop_signal_single_task_network/images/stopSignal.png'></img>,stop,,2000.0,,-1.0,1.0,0.0,12.0,stop_signal_single_task_network,,,,,,,0.0-0.0-36.0,-1.0,"[90, 77]",,-1,circle,1000.0,<div class = bigbox><div class = centerbox><div class = gng_number><div class = cue-text><img class = center src='/static/experiments/stop_signal_single_task_network/images/circle.png'></img></div>,1.0,stop,,59466,0.0,practice_trial,36,stop-signal,
37,,,,,,500.0,,,,,,stop_signal_single_task_network,,,,,,,0.0-0.0-37.0,-1.0,none,,-1,,500.0,"<div class = fb_box><div class = center-text><font size = 20>Correct!</font></div></div><div class = prompt_box><p class = center-block-text style = ""font-size:16px; line-height:80%%;"">circle: Z key</p><p class = center-block-text style = ""font-size:16px; line-height:80%%;"">square: M key</p><p class = center-block-text style = ""font-size:16px; line-height:80%%;"">Do not respond if a star appears!</p></div>",,,,59969,0.0,practice-stop-feedback,37,poldrack-single-stim,
38,,,,,,500.0,,,,,,stop_signal_single_task_network,,,,,,,0.0-0.0-38.0,-1.0,none,,-1,,500.0,<div class = centerbox><div class = fixation>+</div></div>,,,,60473,0.0,prompt_fixation,38,poldrack-single-stim,
39,500.0,500.0,<img class = center src='/static/experiments/stop_signal_single_task_network/images/stopSignal.png'></img>,go,,2000.0,,77.0,1.0,0.0,13.0,stop_signal_single_task_network,,,,,,1.0,0.0-0.0-39.0,77.0,"[90, 77]",,601,square,1000.0,<div class = bigbox><div class = centerbox><div class = gng_number><div class = cue-text><img class = center src='/static/experiments/stop_signal_single_task_network/images/square.png'></img></div>,,go,,62477,0.0,practice_trial,39,stop-signal,
40,,,,,,500.0,,,,,,stop_signal_single_task_network,,,,,,,0.0-0.0-40.0,-1.0,none,,-1,,500.0,"<div class = fb_box><div class = center-text><font size = 20>Correct!</font></div></div><div class = prompt_box><p class = center-block-text style = ""font-size:16px; line-height:80%%;"">circle: Z key</p><p class = center-block-text style = ""font-size:16px; line-height:80%%;"">square: M key</p><p class = center-block-text style = ""font-size:16px; line-height:80%%;"">Do not respond if a star appears!</p></div>",,,,62981,0.0,practice-stop-feedback,40,poldrack-single-stim,
41,,,,,,500.0,,,,,,stop_signal_single_task_network,,,,,,,0.0-0.0-41.0,-1.0,none,,-1,,500.0,<div class = centerbox><div class = fixation>+</div></div>,,,,63485,0.0,prompt_fixation,41,poldrack-single-stim,
42,500.0,500.0,<img class = center src='/static/experiments/stop_signal_single_task_network/images/stopSignal.png'></img>,go,,2000.0,,90.0,1.0,0.0,14.0,stop_signal_single_task_network,,,,,,1.0,0.0-0.0-42.0,90.0,"[90, 77]",,829,circle,1000.0,<div class = bigbox><div class = centerbox><div class = gng_number><div class = cue-text><img class = center src='/static/experiments/stop_signal_single_task_network/images/circle.png'></img></div>,,go,,65489,0.0,practice_trial,42,stop-signal,
43,,,,,,500.0,,,,,,stop_signal_single_task_network,,,,,,,0.0-0.0-43.0,-1.0,none,,-1,,500.0,"<div class = fb_box><div class = center-text><font size = 20>Correct!</font></div></div><div class = prompt_box><p class = center-block-text style = ""font-size:16px; line-height:80%%;"">circle: Z key</p><p class = center-block-text style = ""font-size:16px; line-height:80%%;"">square: M key</p><p class = center-block-text style = ""font-size:16px; line-height:80%%;"">Do not respond if a star appears!</p></div>",,,,65992,0.0,practice-stop-feedback,43,poldrack-single-stim,
44,,,,,,500.0,,,,,,stop_signal_single_task_network,,,,,,,0.0-0.0-44.0,-1.0,none,,-1,,500.0,<div class = centerbox><div class = fixation>+</div></div>,,,,66496,0.0,prompt_fixation,44,poldrack-single-stim,
45,500.0,500.0,<img class = center src='/static/experiments/stop_signal_single_task_network/images/stopSignal.png'></img>,go,,2000.0,,90.0,1.0,0.0,15.0,stop_signal_single_task_network,,,,,,1.0,0.0-0.0-45.0,90.0,"[90, 77]",,819,circle,1000.0,<div class = bigbox><div class = centerbox><div class = gng_number><div class = cue-text><img class = center src='/static/experiments/stop_signal_single_task_network/images/circle.png'></img></div>,,go,,68501,0.0,practice_trial,45,stop-signal,
46,,,,,,500.0,,,,,,stop_signal_single_task_network,,,,,,,0.0-0.0-46.0,-1.0,none,,-1,,500.0,"<div class = fb_box><div class = center-text><font size = 20>Correct!</font></div></div><div class = prompt_box><p class = center-block-text style = ""font-size:16px; line-height:80%%;"">circle: Z key</p><p class = center-block-text style = ""font-size:16px; line-height:80%%;"">square: M key</p><p class = center-block-text style = ""font-size:16px; line-height:80%%;"">Do not respond if a star appears!</p></div>",,,,69004,0.0,practice-stop-feedback,46,poldrack-single-stim,
47,,,,,,500.0,,,,,,stop_signal_single_task_network,,,,,,,0.0-0.0-47.0,-1.0,none,,-1,,500.0,<div class = centerbox><div class = fixation>+</div></div>,,,,69507,0.0,prompt_fixation,47,poldrack-single-stim,
48,500.0,500.0,<img class = center src='/static/experiments/stop_signal_single_task_network/images/stopSignal.png'></img>,go,,2000.0,,90.0,1.0,0.0,16.0,stop_signal_single_task_network,,,,,,1.0,0.0-0.0-48.0,90.0,"[90, 77]",,871,circle,1000.0,<div class = bigbox><div class = centerbox><div class = gng_number><div class = cue-text><img class = center src='/static/experiments/stop_signal_single_task_network/images/circle.png'></img></div>,,go,,71512,0.0,practice_trial,48,stop-signal,
49,,,,,,500.0,,,,,,stop_signal_single_task_network,,,,,,,0.0-0.0-49.0,-1.0,none,,-1,,500.0,"<div class = fb_box><div class = center-text><font size = 20>Correct!</font></div></div><div class = prompt_box><p class = center-block-text style = ""font-size:16px; line-height:80%%;"">circle: Z key</p><p class = center-block-text style = ""font-size:16px; line-height:80%%;"">square: M key</p><p class = center-block-text style = ""font-size:16px; line-height:80%%;"">Do not respond if a star appears!</p></div>",,,,72017,0.0,practice-stop-feedback,49,poldrack-single-stim,
50,,,,,,500.0,,,,,,stop_signal_single_task_network,,,,,,,0.0-0.0-50.0,-1.0,none,,-1,,500.0,<div class = centerbox><div class = fixation>+</div></div>,,,,72520,0.0,prompt_fixation,50,poldrack-single-stim,
51,500.0,500.0,<img class = center src='/static/experiments/stop_signal_single_task_network/images/stopSignal.png'></img>,go,,2000.0,,90.0,1.0,0.0,17.0,stop_signal_single_task_network,,,,,,1.0,0.0-0.0-51.0,90.0,"[90, 77]",,850,circle,1000.0,<div class = bigbox><div class = centerbox><div class = gng_number><div class = cue-text><img class = center src='/static/experiments/stop_signal_single_task_network/images/circle.png'></img></div>,,go,,74525,0.0,practice_trial,51,stop-signal,
52,,,,,,500.0,,,,,,stop_signal_single_task_network,,,,,,,0.0-0.0-52.0,-1.0,none,,-1,,500.0,"<div class = fb_box><div class = center-text><font size = 20>Correct!</font></div></div><div class = prompt_box><p class = center-block-text style = ""font-size:16px; line-height:80%%;"">circle: Z key</p><p class = center-block-text style = ""font-size:16px; line-height:80%%;"">square: M key</p><p class = center-block-text style = ""font-size:16px; line-height:80%%;"">Do not respond if a star appears!</p></div>",,,,75032,0.0,practice-stop-feedback,52,poldrack-single-stim,
53,,,,,,500.0,,,,,,stop_signal_single_task_network,,,,,,,0.0-0.0-53.0,-1.0,none,,-1,,500.0,<div class = centerbox><div class = fixation>+</div></div>,,,,75535,0.0,prompt_fixation,53,poldrack-single-stim,
54,500.0,500.0,<img class = center src='/static/experiments/stop_signal_single_task_network/images/stopSignal.png'></img>,go,,2000.0,,77.0,1.0,0.0,18.0,stop_signal_single_task_network,,,,,,1.0,0.0-0.0-54.0,77.0,"[90, 77]",,635,square,1000.0,<div class = bigbox><div class = centerbox><div class = gng_number><div class = cue-text><img class = center src='/static/experiments/stop_signal_single_task_network/images/square.png'></img></div>,,go,,77541,0.0,practice_trial,54,stop-signal,
55,,,,,,500.0,,,,,,stop_signal_single_task_network,,,,,,,0.0-0.0-55.0,-1.0,none,,-1,,500.0,"<div class = fb_box><div class = center-text><font size = 20>Correct!</font></div></div><div class = prompt_box><p class = center-block-text style = ""font-size:16px; line-height:80%%;"">circle: Z key</p><p class = center-block-text style = ""font-size:16px; line-height:80%%;"">square: M key</p><p class = center-block-text style = ""font-size:16px; line-height:80%%;"">Do not respond if a star appears!</p></div>",,,,78044,0.0,practice-stop-feedback,55,poldrack-single-stim,
56,,,,,,500.0,,,,,,stop_signal_single_task_network,,,,,,,0.0-0.0-56.0,-1.0,none,,-1,,500.0,<div class = centerbox><div class = fixation>+</div></div>,,,,78548,0.0,prompt_fixation,56,poldrack-single-stim,
57,500.0,500.0,<img class = center src='/static/experiments/stop_signal_single_task_network/images/stopSignal.png'></img>,go,,2000.0,,90.0,1.0,0.0,19.0,stop_signal_single_task_network,,,,,,1.0,0.0-0.0-57.0,90.0,"[90, 77]",,695,circle,1000.0,<div class = bigbox><div class = centerbox><div class = gng_number><div class = cue-text><img class = center src='/static/experiments/stop_signal_single_task_network/images/circle.png'></img></div>,,go,,80553,0.0,practice_trial,57,stop-signal,
58,,,,,,500.0,,,,,,stop_signal_single_task_network,,,,,,,0.0-0.0-58.0,-1.0,none,,-1,,500.0,"<div class = fb_box><div class = center-text><font size = 20>Correct!</font></div></div><div class = prompt_box><p class = center-block-text style = ""font-size:16px; line-height:80%%;"">circle: Z key</p><p class = center-block-text style = ""font-size:16px; line-height:80%%;"">square: M key</p><p class = center-block-text style = ""font-size:16px; line-height:80%%;"">Do not respond if a star appears!</p></div>",,,,81058,0.0,practice-stop-feedback,58,poldrack-single-stim,
59,,,,,,500.0,,,,,,stop_signal_single_task_network,,,,,,,0.0-0.0-59.0,-1.0,none,,-1,,500.0,<div class = centerbox><div class = fixation>+</div></div>,,,,81562,0.0,prompt_fixation,59,poldrack-single-stim,
60,500.0,500.0,<img class = center src='/static/experiments/stop_signal_single_task_network/images/stopSignal.png'></img>,go,,2000.0,,90.0,1.0,0.0,20.0,stop_signal_single_task_network,,,,,,1.0,0.0-0.0-60.0,90.0,"[90, 77]",,673,circle,1000.0,<div class = bigbox><div class = centerbox><div class = gng_number><div class = cue-text><img class = center src='/static/experiments/stop_signal_single_task_network/images/circle.png'></img></div>,,go,,83566,0.0,practice_trial,60,stop-signal,
61,,,,,,500.0,,,,,,stop_signal_single_task_network,,,,,,,0.0-0.0-61.0,-1.0,none,,-1,,500.0,"<div class = fb_box><div class = center-text><font size = 20>Correct!</font></div></div><div class = prompt_box><p class = center-block-text style = ""font-size:16px; line-height:80%%;"">circle: Z key</p><p class = center-block-text style = ""font-size:16px; line-height:80%%;"">square: M key</p><p class = center-block-text style = ""font-size:16px; line-height:80%%;"">Do not respond if a star appears!</p></div>",,,,84070,0.0,practice-stop-feedback,61,poldrack-single-stim,
62,,,,,,500.0,,,,,,stop_signal_single_task_network,,,,,,,0.0-0.0-62.0,-1.0,none,,-1,,500.0,<div class = centerbox><div class = fixation>+</div></div>,,,,84574,0.0,prompt_fixation,62,poldrack-single-stim,
63,500.0,500.0,<img class = center src='/static/experiments/stop_signal_single_task_network/images/stopSignal.png'></img>,go,,2000.0,,77.0,1.0,0.0,21.0,stop_signal_single_task_network,,,,,,1.0,0.0-0.0-63.0,77.0,"[90, 77]",,677,square,1000.0,<div class = bigbox><div class = centerbox><div class = gng_number><div class = cue-text><img class = center src='/static/experiments/stop_signal_single_task_network/images/square.png'></img></div>,,go,,86579,0.0,practice_trial,63,stop-signal,
64,,,,,,500.0,,,,,,stop_signal_single_task_network,,,,,,,0.0-0.0-64.0,-1.0,none,,-1,,500.0,"<div class = fb_box><div class = center-text><font size = 20>Correct!</font></div></div><div class = prompt_box><p class = center-block-text style = ""font-size:16px; line-height:80%%;"">circle: Z key</p><p class = center-block-text style = ""font-size:16px; line-height:80%%;"">square: M key</p><p class = center-block-text style = ""font-size:16px; line-height:80%%;"">Do not respond if a star appears!</p></div>",,,,87083,0.0,practice-stop-feedback,64,poldrack-single-stim,
65,,,,,,500.0,,,,,,stop_signal_single_task_network,,,,,,,0.0-0.0-65.0,-1.0,none,,-1,,500.0,<div class = centerbox><div class = fixation>+</div></div>,,,,87587,0.0,prompt_fixation,65,poldrack-single-stim,
66,500.0,500.0,<img class = center src='/static/experiments/stop_signal_single_task_network/images/stopSignal.png'></img>,stop,,2000.0,,-1.0,1.0,0.0,22.0,stop_signal_single_task_network,,,,,,,0.0-0.0-66.0,-1.0,"[90, 77]",,-1,square,1000.0,<div class = bigbox><div class = centerbox><div class = gng_number><div class = cue-text><img class = center src='/static/experiments/stop_signal_single_task_network/images/square.png'></img></div>,1.0,stop,,89591,0.0,practice_trial,66,stop-signal,
67,,,,,,500.0,,,,,,stop_signal_single_task_network,,,,,,,0.0-0.0-67.0,-1.0,none,,-1,,500.0,"<div class = fb_box><div class = center-text><font size = 20>Correct!</font></div></div><div class = prompt_box><p class = center-block-text style = ""font-size:16px; line-height:80%%;"">circle: Z key</p><p class = center-block-text style = ""font-size:16px; line-height:80%%;"">square: M key</p><p class = center-block-text style = ""font-size:16px; line-height:80%%;"">Do not respond if a star appears!</p></div>",,,,90095,0.0,practice-stop-feedback,67,poldrack-single-stim,
68,,,,,,500.0,,,,,,stop_signal_single_task_network,,,,,,,0.0-0.0-68.0,-1.0,none,,-1,,500.0,<div class = centerbox><div class = fixation>+</div></div>,,,,90600,0.0,prompt_fixation,68,poldrack-single-stim,
69,550.0,500.0,<img class = center src='/static/experiments/stop_signal_single_task_network/images/stopSignal.png'></img>,go,,2000.0,,77.0,1.0,0.0,23.0,stop_signal_single_task_network,,,,,,1.0,0.0-0.0-69.0,77.0,"[90, 77]",,887,square,1000.0,<div class = bigbox><div class = centerbox><div class = gng_number><div class = cue-text><img class = center src='/static/experiments/stop_signal_single_task_network/images/square.png'></img></div>,,go,,92605,0.0,practice_trial,69,stop-signal,
70,,,,,,500.0,,,,,,stop_signal_single_task_network,,,,,,,0.0-0.0-70.0,-1.0,none,,-1,,500.0,"<div class = fb_box><div class = center-text><font size = 20>Correct!</font></div></div><div class = prompt_box><p class = center-block-text style = ""font-size:16px; line-height:80%%;"">circle: Z key</p><p class = center-block-text style = ""font-size:16px; line-height:80%%;"">square: M key</p><p class = center-block-text style = ""font-size:16px; line-height:80%%;"">Do not respond if a star appears!</p></div>",,,,93110,0.0,practice-stop-feedback,70,poldrack-single-stim,
71,,,,,,500.0,,,,,,stop_signal_single_task_network,,,,,,,0.0-0.0-71.0,-1.0,none,,-1,,500.0,<div class = centerbox><div class = fixation>+</div></div>,,,,93613,0.0,prompt_fixation,71,poldrack-single-stim,
72,550.0,500.0,<img class = center src='/static/experiments/stop_signal_single_task_network/images/stopSignal.png'></img>,go,,2000.0,,77.0,1.0,0.0,24.0,stop_signal_single_task_network,,,,,,1.0,0.0-0.0-72.0,77.0,"[90, 77]",,751,square,1000.0,<div class = bigbox><div class = centerbox><div class = gng_number><div class = cue-text><img class = center src='/static/experiments/stop_signal_single_task_network/images/square.png'></img></div>,,go,,95617,0.0,practice_trial,72,stop-signal,
73,,,,,,500.0,,,,,,stop_signal_single_task_network,,,,,,,0.0-0.0-73.0,-1.0,none,,-1,,500.0,"<div class = fb_box><div class = center-text><font size = 20>Correct!</font></div></div><div class = prompt_box><p class = center-block-text style = ""font-size:16px; line-height:80%%;"">circle: Z key</p><p class = center-block-text style = ""font-size:16px; line-height:80%%;"">square: M key</p><p class = center-block-text style = ""font-size:16px; line-height:80%%;"">Do not respond if a star appears!</p></div>",,,,96121,0.0,practice-stop-feedback,73,poldrack-single-stim,
74,,,,,,2657.0,,,,,,stop_signal_single_task_network,,,,,,,0.0-1.0,13.0,[13],,2657,,2657.0,"<div class = bigbox><div class = picture_box><p class = block-text><font color=""white""><br>Please take this time to read your feedback and to take a short break. Press enter to continue.</p><p class = block-text>Done with this practice.</font></p></div></div>",,,,98783,0.0,practice-no-stop-feedback,74,poldrack-single-stim,
75,,,,,,2294.0,,,,,,stop_signal_single_task_network,,,,,,,0.0-2.0,13.0,[13],,2294,,2294.0,"<div class = centerbox><p class = block-text>We will now begin the test portion.</p><p class = block-text>You will see a shape on every trial. Please respond to each shape as quickly and accurately as possible!</p><p class = block-text>If the shape is a circle, press the Z key.</p><p class = block-text>If the shape is a square, press the M key.</p><p class = block-text>Do not respond if you see a star.</p><p class = block-text>You will no longer receive the rule prompt, so remember the instructions before you continue. Press Enter to begin.</p></div>",,,,101079,0.0,test_intro,75,poldrack-single-stim,
76,,,,,,2791.0,,,,,,stop_signal_single_task_network,,,,,,,0.0-3.0-0.0,13.0,[13],,2791,,2791.0,"<div class = bigbox><div class = picture_box><p class = block-text><font color=""white"">We will now start the test session. Please concentrate on responding quickly and accurately to each stimulus. Press Enter to begin.</font></p></div></div>",,,,103872,0.0,practice-no-stop-feedback,76,poldrack-single-stim,
77,,,,,,1254.0,True,77.0,,,,stop_signal_single_task_network,,,,,,,0.0-3.0-1.0-0.0,77.0,[],,1254,,1254.0,"<p>If (4 + 12) / 4 is greater than 3 press the ""M"" key. Otherwise press the ""Z"" key.</p>",,,,105129,200.0,attention_check,77,attention-check,
78,,,,,,500.0,,,,,,stop_signal_single_task_network,,,,,,,0.0-3.0-2.0,-1.0,none,,-1,,500.0,<div class = centerbox><div class = fixation>+</div></div>,,,,105833,0.0,fixation,78,poldrack-single-stim,
79,550.0,500.0,<img class = center src='/static/experiments/stop_signal_single_task_network/images/stopSignal.png'></img>,stop,,2000.0,,-1.0,1.0,0.0,1.0,stop_signal_single_task_network,,,,,,,0.0-3.0-3.0,-1.0,"[90, 77]",,-1,circle,1000.0,<div class = bigbox><div class = centerbox><div class = gng_number><div class = cue-text><img class = center src='/static/experiments/stop_signal_single_task_network/images/circle.png'></img></div>,1.0,stop,,107838,0.0,test_trial,79,stop-signal,
80,,,,,,500.0,,,,,,stop_signal_single_task_network,,,,,,,0.0-3.0-4.0,-1.0,none,,-1,,500.0,<div class = centerbox><div class = fixation>+</div></div>,,,,108343,0.0,fixation,80,poldrack-single-stim,
81,600.0,500.0,<img class = center src='/static/experiments/stop_signal_single_task_network/images/stopSignal.png'></img>,stop,,2000.0,,-1.0,0.0,0.0,2.0,stop_signal_single_task_network,,,,,,,0.0-3.0-5.0,90.0,"[90, 77]",,692,circle,1000.0,<div class = bigbox><div class = centerbox><div class = gng_number><div class = cue-text><img class = center src='/static/experiments/stop_signal_single_task_network/images/circle.png'></img></div>,0.0,stop,,110350,0.0,test_trial,81,stop-signal,
82,,,,,,500.0,,,,,,stop_signal_single_task_network,,,,,,,0.0-3.0-6.0,-1.0,none,,-1,,500.0,<div class = centerbox><div class = fixation>+</div></div>,,,,110855,0.0,fixation,82,poldrack-single-stim,
83,550.0,500.0,<img class = center src='/static/experiments/stop_signal_single_task_network/images/stopSignal.png'></img>,go,,2000.0,,77.0,1.0,0.0,3.0,stop_signal_single_task_network,,,,,,1.0,0.0-3.0-7.0,77.0,"[90, 77]",,503,square,1000.0,<div class = bigbox><div class = centerbox><div class = gng_number><div class = cue-text><img class = center src='/static/experiments/stop_signal_single_task_network/images/square.png'></img></div>,,go,,112858,0.0,test_trial,83,stop-signal,
84,,,,,,500.0,,,,,,stop_signal_single_task_network,,,,,,,0.0-3.0-8.0,-1.0,none,,-1,,500.0,<div class = centerbox><div class = fixation>+</div></div>,,,,113364,0.0,fixation,84,poldrack-single-stim,
85,550.0,500.0,<img class = center src='/static/experiments/stop_signal_single_task_network/images/stopSignal.png'></img>,go,,2000.0,,77.0,1.0,0.0,4.0,stop_signal_single_task_network,,,,,,1.0,0.0-3.0-9.0,77.0,"[90, 77]",,719,square,1000.0,<div class = bigbox><div class = centerbox><div class = gng_number><div class = cue-text><img class = center src='/static/experiments/stop_signal_single_task_network/images/square.png'></img></div>,,go,,115372,0.0,test_trial,85,stop-signal,
86,,,,,,500.0,,,,,,stop_signal_single_task_network,,,,,,,0.0-3.0-10.0,-1.0,none,,-1,,500.0,<div class = centerbox><div class = fixation>+</div></div>,,,,115875,0.0,fixation,86,poldrack-single-stim,
87,550.0,500.0,<img class = center src='/static/experiments/stop_signal_single_task_network/images/stopSignal.png'></img>,stop,,2000.0,,-1.0,0.0,0.0,5.0,stop_signal_single_task_network,,,,,,,0.0-3.0-11.0,90.0,"[90, 77]",,691,circle,1000.0,<div class = bigbox><div class = centerbox><div class = gng_number><div class = cue-text><img class = center src='/static/experiments/stop_signal_single_task_network/images/circle.png'></img></div>,0.0,stop,,117878,0.0,test_trial,87,stop-signal,
88,,,,,,500.0,,,,,,stop_signal_single_task_network,,,,,,,0.0-3.0-12.0,-1.0,none,,-1,,500.0,<div class = centerbox><div class = fixation>+</div></div>,,,,118382,0.0,fixation,88,poldrack-single-stim,
89,500.0,500.0,<img class = center src='/static/experiments/stop_signal_single_task_network/images/stopSignal.png'></img>,go,,2000.0,,77.0,1.0,0.0,6.0,stop_signal_single_task_network,,,,,,1.0,0.0-3.0-13.0,77.0,"[90, 77]",,831,square,1000.0,<div class = bigbox><div class = centerbox><div class = gng_number><div class = cue-text><img class = center src='/static/experiments/stop_signal_single_task_network/images/square.png'></img></div>,,go,,120386,0.0,test_trial,89,stop-signal,
90,,,,,,500.0,,,,,,stop_signal_single_task_network,,,,,,,0.0-3.0-14.0,-1.0,none,,-1,,500.0,<div class = centerbox><div class = fixation>+</div></div>,,,,120890,0.0,fixation,90,poldrack-single-stim,
91,500.0,500.0,<img class = center src='/static/experiments/stop_signal_single_task_network/images/stopSignal.png'></img>,go,,2000.0,,90.0,1.0,0.0,7.0,stop_signal_single_task_network,,,,,,1.0,0.0-3.0-15.0,90.0,"[90, 77]",,748,circle,1000.0,<div class = bigbox><div class = centerbox><div class = gng_number><div class = cue-text><img class = center src='/static/experiments/stop_signal_single_task_network/images/circle.png'></img></div>,,go,,122893,0.0,test_trial,91,stop-signal,
92,,,,,,500.0,,,,,,stop_signal_single_task_network,,,,,,,0.0-3.0-16.0,-1.0,none,,-1,,500.0,<div class = centerbox><div class = fixation>+</div></div>,,,,123395,0.0,fixation,92,poldrack-single-stim,
93,500.0,500.0,<img class = center src='/static/experiments/stop_signal_single_task_network/images/stopSignal.png'></img>,go,,2000.0,,90.0,1.0,0.0,8.0,stop_signal_single_task_network,,,,,,1.0,0.0-3.0-17.0,90.0,"[90, 77]",,772,circle,1000.0,<div class = bigbox><div class = centerbox><div class = gng_number><div class = cue-text><img class = center src='/static/experiments/stop_signal_single_task_network/images/circle.png'></img></div>,,go,,125399,0.0,test_trial,93,stop-signal,
94,,,,,,500.0,,,,,,stop_signal_single_task_network,,,,,,,0.0-3.0-18.0,-1.0,none,,-1,,500.0,<div class = centerbox><div class = fixation>+</div></div>,,,,125906,0.0,fixation,94,poldrack-single-stim,
95,500.0,500.0,<img class = center src='/static/experiments/stop_signal_single_task_network/images/stopSignal.png'></img>,go,,2000.0,,90.0,1.0,0.0,9.0,stop_signal_single_task_network,,,,,,1.0,0.0-3.0-19.0,90.0,"[90, 77]",,598,circle,1000.0,<div class = bigbox><div class = centerbox><div class = gng_number><div class = cue-text><img class = center src='/static/experiments/stop_signal_single_task_network/images/circle.png'></img></div>,,go,,127908,0.0,test_trial,95,stop-signal,
96,,,,,,500.0,,,,,,stop_signal_single_task_network,,,,,,,0.0-3.0-20.0,-1.0,none,,-1,,500.0,<div class = centerbox><div class = fixation>+</div></div>,,,,128411,0.0,fixation,96,poldrack-single-stim,
97,500.0,500.0,<img class = center src='/static/experiments/stop_signal_single_task_network/images/stopSignal.png'></img>,go,,2000.0,,77.0,1.0,0.0,10.0,stop_signal_single_task_network,,,,,,1.0,0.0-3.0-21.0,77.0,"[90, 77]",,660,square,1000.0,<div class = bigbox><div class = centerbox><div class = gng_number><div class = cue-text><img class = center src='/static/experiments/stop_signal_single_task_network/images/square.png'></img></div>,,go,,130416,0.0,test_trial,97,stop-signal,
98,,,,,,500.0,,,,,,stop_signal_single_task_network,,,,,,,0.0-3.0-22.0,-1.0,none,,-1,,500.0,<div class = centerbox><div class = fixation>+</div></div>,,,,130926,0.0,fixation,98,poldrack-single-stim,
99,500.0,500.0,<img class = center src='/static/experiments/stop_signal_single_task_network/images/stopSignal.png'></img>,go,,2000.0,,90.0,1.0,0.0,11.0,stop_signal_single_task_network,,,,,,1.0,0.0-3.0-23.0,90.0,"[90, 77]",,559,circle,1000.0,<div class = bigbox><div class = centerbox><div class = gng_number><div class = cue-text><img class = center src='/static/experiments/stop_signal_single_task_network/images/circle.png'></img></div>,,go,,132931,0.0,test_trial,99,stop-signal,
100,,,,,,500.0,,,,,,stop_signal_single_task_network,,,,,,,0.0-3.0-24.0,-1.0,none,,-1,,500.0,<div class = centerbox><div class = fixation>+</div></div>,,,,133435,0.0,fixation,100,poldrack-single-stim,
101,500.0,500.0,<img class = center src='/static/experiments/stop_signal_single_task_network/images/stopSignal.png'></img>,go,,2000.0,,77.0,1.0,0.0,12.0,stop_signal_single_task_network,,,,,,1.0,0.0-3.0-25.0,77.0,"[90, 77]",,564,square,1000.0,<div class = bigbox><div class = centerbox><div class = gng_number><div class = cue-text><img class = center src='/static/experiments/stop_signal_single_task_network/images/square.png'></img></div>,,go,,135438,0.0,test_trial,101,stop-signal,
102,,,,,,500.0,,,,,,stop_signal_single_task_network,,,,,,,0.0-3.0-26.0,-1.0,none,,-1,,500.0,<div class = centerbox><div class = fixation>+</div></div>,,,,135942,0.0,fixation,102,poldrack-single-stim,
103,500.0,500.0,<img class = center src='/static/experiments/stop_signal_single_task_network/images/stopSignal.png'></img>,go,,2000.0,,90.0,1.0,0.0,13.0,stop_signal_single_task_network,,,,,,1.0,0.0-3.0-27.0,90.0,"[90, 77]",,664,circle,1000.0,<div class = bigbox><div class = centerbox><div class = gng_number><div class = cue-text><img class = center src='/static/experiments/stop_signal_single_task_network/images/circle.png'></img></div>,,go,,137947,0.0,test_trial,103,stop-signal,
104,,,,,,500.0,,,,,,stop_signal_single_task_network,,,,,,,0.0-3.0-28.0,-1.0,none,,-1,,500.0,<div class = centerbox><div class = fixation>+</div></div>,,,,138451,0.0,fixation,104,poldrack-single-stim,
105,500.0,500.0,<img class = center src='/static/experiments/stop_signal_single_task_network/images/stopSignal.png'></img>,go,,2000.0,,77.0,1.0,0.0,14.0,stop_signal_single_task_network,,,,,,1.0,0.0-3.0-29.0,77.0,"[90, 77]",,733,square,1000.0,<div class = bigbox><div class = centerbox><div class = gng_number><div class = cue-text><img class = center src='/static/experiments/stop_signal_single_task_network/images/square.png'></img></div>,,go,,140454,0.0,test_trial,105,stop-signal,
106,,,,,,500.0,,,,,,stop_signal_single_task_network,,,,,,,0.0-3.0-30.0,-1.0,none,,-1,,500.0,<div class = centerbox><div class = fixation>+</div></div>,,,,140958,0.0,fixation,106,poldrack-single-stim,
107,500.0,500.0,<img class = center src='/static/experiments/stop_signal_single_task_network/images/stopSignal.png'></img>,stop,,2000.0,,-1.0,0.0,0.0,15.0,stop_signal_single_task_network,,,,,,,0.0-3.0-31.0,77.0,"[90, 77]",,722,square,1000.0,<div class = bigbox><div class = centerbox><div class = gng_number><div class = cue-text><img class = center src='/static/experiments/stop_signal_single_task_network/images/square.png'></img></div>,0.0,stop,,142961,0.0,test_trial,107,stop-signal,
108,,,,,,500.0,,,,,,stop_signal_single_task_network,,,,,,,0.0-3.0-32.0,-1.0,none,,-1,,500.0,<div class = centerbox><div class = fixation>+</div></div>,,,,143465,0.0,fixation,108,poldrack-single-stim,
109,450.0,500.0,<img class = center src='/static/experiments/stop_signal_single_task_network/images/stopSignal.png'></img>,go,,2000.0,,77.0,1.0,0.0,16.0,stop_signal_single_task_network,,,,,,1.0,0.0-3.0-33.0,77.0,"[90, 77]",,687,square,1000.0,<div class = bigbox><div class = centerbox><div class = gng_number><div class = cue-text><img class = center src='/static/experiments/stop_signal_single_task_network/images/square.png'></img></div>,,go,,145469,0.0,test_trial,109,stop-signal,
110,,,,,,500.0,,,,,,stop_signal_single_task_network,,,,,,,0.0-3.0-34.0,-1.0,none,,-1,,500.0,<div class = centerbox><div class = fixation>+</div></div>,,,,145980,0.0,fixation,110,poldrack-single-stim,
111,450.0,500.0,<img class = center src='/static/experiments/stop_signal_single_task_network/images/stopSignal.png'></img>,stop,,2000.0,,-1.0,1.0,0.0,17.0,stop_signal_single_task_network,,,,,,,0.0-3.0-35.0,-1.0,"[90, 77]",,-1,square,1000.0,<div class = bigbox><div class = centerbox><div class = gng_number><div class = cue-text><img class = center src='/static/experiments/stop_signal_single_task_network/images/square.png'></img></div>,1.0,stop,,147984,0.0,test_trial,111,stop-signal,
112,,,,,,500.0,,,,,,stop_signal_single_task_network,,,,,,,0.0-3.0-36.0,-1.0,none,,-1,,500.0,<div class = centerbox><div class = fixation>+</div></div>,,,,148488,0.0,fixation,112,poldrack-single-stim,
113,500.0,500.0,<img class = center src='/static/experiments/stop_signal_single_task_network/images/stopSignal.png'></img>,go,,2000.0,,90.0,1.0,0.0,18.0,stop_signal_single_task_network,,,,,,1.0,0.0-3.0-37.0,90.0,"[90, 77]",,890,circle,1000.0,<div class = bigbox><div class = centerbox><div class = gng_number><div class = cue-text><img class = center src='/static/experiments/stop_signal_single_task_network/images/circle.png'></img></div>,,go,,150492,0.0,test_trial,113,stop-signal,
114,,,,,,500.0,,,,,,stop_signal_single_task_network,,,,,,,0.0-3.0-38.0,-1.0,none,,-1,,500.0,<div class = centerbox><div class = fixation>+</div></div>,,,,150995,0.0,fixation,114,poldrack-single-stim,
115,500.0,500.0,<img class = center src='/static/experiments/stop_signal_single_task_network/images/stopSignal.png'></img>,go,,2000.0,,90.0,1.0,0.0,19.0,stop_signal_single_task_network,,,,,,1.0,0.0-3.0-39.0,90.0,"[90, 77]",,677,circle,1000.0,<div class = bigbox><div class = centerbox><div class = gng_number><div class = cue-text><img class = center src='/static/experiments/stop_signal_single_task_network/images/circle.png'></img></div>,,go,,152998,0.0,test_trial,115,stop-signal,
116,,,,,,500.0,,,,,,stop_signal_single_task_network,,,,,,,0.0-3.0-40.0,-1.0,none,,-1,,500.0,<div class = centerbox><div class = fixation>+</div></div>,,,,153501,0.0,fixation,116,poldrack-single-stim,
117,500.0,500.0,<img class = center src='/static/experiments/stop_signal_single_task_network/images/stopSignal.png'></img>,go,,2000.0,,77.0,1.0,0.0,20.0,stop_signal_single_task_network,,,,,,1.0,0.0-3.0-41.0,77.0,"[90, 77]",,756,square,1000.0,<div class = bigbox><div class = centerbox><div class = gng_number><div class = cue-text><img class = center src='/static/experiments/stop_signal_single_task_network/images/square.png'></img></div>,,go,,155504,0.0,test_trial,117,stop-signal,
118,,,,,,500.0,,,,,,stop_signal_single_task_network,,,,,,,0.0-3.0-42.0,-1.0,none,,-1,,500.0,<div class = centerbox><div class = fixation>+</div></div>,,,,156007,0.0,fixation,118,poldrack-single-stim,
119,500.0,500.0,<img class = center src='/static/experiments/stop_signal_single_task_network/images/stopSignal.png'></img>,go,,2000.0,,90.0,1.0,0.0,21.0,stop_signal_single_task_network,,,,,,1.0,0.0-3.0-43.0,90.0,"[90, 77]",,650,circle,1000.0,<div class = bigbox><div class = centerbox><div class = gng_number><div class = cue-text><img class = center src='/static/experiments/stop_signal_single_task_network/images/circle.png'></img></div>,,go,,158010,0.0,test_trial,119,stop-signal,
120,,,,,,500.0,,,,,,stop_signal_single_task_network,,,,,,,0.0-3.0-44.0,-1.0,none,,-1,,500.0,<div class = centerbox><div class = fixation>+</div></div>,,,,158514,0.0,fixation,120,poldrack-single-stim,
121,500.0,500.0,<img class = center src='/static/experiments/stop_signal_single_task_network/images/stopSignal.png'></img>,go,,2000.0,,90.0,1.0,0.0,22.0,stop_signal_single_task_network,,,,,,1.0,0.0-3.0-45.0,90.0,"[90, 77]",,799,circle,1000.0,<div class = bigbox><div class = centerbox><div class = gng_number><div class = cue-text><img class = center src='/static/experiments/stop_signal_single_task_network/images/circle.png'></img></div>,,go,,160517,0.0,test_trial,121,stop-signal,
122,,,,,,500.0,,,,,,stop_signal_single_task_network,,,,,,,0.0-3.0-46.0,-1.0,none,,-1,,500.0,<div class = centerbox><div class = fixation>+</div></div>,,,,161021,0.0,fixation,122,poldrack-single-stim,
123,500.0,500.0,<img class = center src='/static/experiments/stop_signal_single_task_network/images/stopSignal.png'></img>,stop,,2000.0,,-1.0,0.0,0.0,23.0,stop_signal_single_task_network,,,,,,,0.0-3.0-47.0,90.0,"[90, 77]",,565,circle,1000.0,<div class = bigbox><div class = centerbox><div class = gng_number><div class = cue-text><img class = center src='/static/experiments/stop_signal_single_task_network/images/circle.png'></img></div>,0.0,stop,,163024,0.0,test_trial,123,stop-signal,
124,,,,,,500.0,,,,,,stop_signal_single_task_network,,,,,,,0.0-3.0-48.0,-1.0,none,,-1,,500.0,<div class = centerbox><div class = fixation>+</div></div>,,,,163528,0.0,fixation,124,poldrack-single-stim,
125,450.0,500.0,<img class = center src='/static/experiments/stop_signal_single_task_network/images/stopSignal.png'></img>,go,,2000.0,,77.0,1.0,0.0,24.0,stop_signal_single_task_network,,,,,,1.0,0.0-3.0-49.0,77.0,"[90, 77]",,633,square,1000.0,<div class = bigbox><div class = centerbox><div class = gng_number><div class = cue-text><img class = center src='/static/experiments/stop_signal_single_task_network/images/square.png'></img></div>,,go,,165531,0.0,test_trial,125,stop-signal,
126,,,,,,500.0,,,,,,stop_signal_single_task_network,,,,,,,0.0-3.0-50.0,-1.0,none,,-1,,500.0,<div class = centerbox><div class = fixation>+</div></div>,,,,166035,0.0,fixation,126,poldrack-single-stim,
127,450.0,500.0,<img class = center src='/static/experiments/stop_signal_single_task_network/images/stopSignal.png'></img>,go,,2000.0,,90.0,1.0,0.0,25.0,stop_signal_single_task_network,,,,,,1.0,0.0-3.0-51.0,90.0,"[90, 77]",,750,circle,1000.0,<div class = bigbox><div class = centerbox><div class = gng_number><div class = cue-text><img class = center src='/static/experiments/stop_signal_single_task_network/images/circle.png'></img></div>,,go,,168039,0.0,test_trial,127,stop-signal,
128,,,,,,500.0,,,,,,stop_signal_single_task_network,,,,,,,0.0-3.0-52.0,-1.0,none,,-1,,500.0,<div class = centerbox><div class = fixation>+</div></div>,,,,168543,0.0,fixation,128,poldrack-single-stim,
129,450.0,500.0,<img class = center src='/static/experiments/stop_signal_single_task_network/images/stopSignal.png'></img>,stop,,2000.0,,-1.0,1.0,0.0,26.0,stop_signal_single_task_network,,,,,,,0.0-3.0-53.0,-1.0,"[90, 77]",,-1,square,1000.0,<div class = bigbox><div class = centerbox><div class = gng_number><div class = cue-text><img class = center src='/static/experiments/stop_signal_single_task_network/images/square.png'></img></div>,1.0,stop,,170546,0.0,test_trial,129,stop-signal,
130,,,,,,500.0,,,,,,stop_signal_single_task_network,,,,,,,0.0-3.0-54.0,-1.0,none,,-1,,500.0,<div class = centerbox><div class = fixation>+</div></div>,,,,171051,0.0,fixation,130,poldrack-single-stim,
131,500.0,500.0,<img class = center src='/static/experiments/stop_signal_single_task_network/images/stopSignal.png'></img>,go,,2000.0,,77.0,1.0,0.0,27.0,stop_signal_single_task_network,,,,,,1.0,0.0-3.0-55.0,77.0,"[90, 77]",,736,square,1000.0,<div class = bigbox><div class = centerbox><div class = gng_number><div class = cue-text><img class = center src='/static/experiments/stop_signal_single_task_network/images/square.png'></img></div>,,go,,173054,0.0,test_trial,131,stop-signal,
132,,,,,,500.0,,,,,,stop_signal_single_task_network,,,,,,,0.0-3.0-56.0,-1.0,none,,-1,,500.0,<div class = centerbox><div class = fixation>+</div></div>,,,,173557,0.0,fixation,132,poldrack-single-stim,
133,500.0,500.0,<img class = center src='/static/experiments/stop_signal_single_task_network/images/stopSignal.png'></img>,go,,2000.0,,77.0,1.0,0.0,28.0,stop_signal_single_task_network,,,,,,1.0,0.0-3.0-57.0,77.0,"[90, 77]",,829,square,1000.0,<div class = bigbox><div class = centerbox><div class = gng_number><div class = cue-text><img class = center src='/static/experiments/stop_signal_single_task_network/images/square.png'></img></div>,,go,,175561,0.0,test_trial,133,stop-signal,
134,,,,,,500.0,,,,,,stop_signal_single_task_network,,,,,,,0.0-3.0-58.0,-1.0,none,,-1,,500.0,<div class = centerbox><div class = fixation>+</div></div>,,,,176065,0.0,fixation,134,poldrack-single-stim,
135,500.0,500.0,<img class = center src='/static/experiments/stop_signal_single_task_network/images/stopSignal.png'></img>,go,,2000.0,,90.0,1.0,0.0,29.0,stop_signal_single_task_network,,,,,,1.0,0.0-3.0-59.0,90.0,"[90, 77]",,809,circle,1000.0,<div class = bigbox><div class = centerbox><div class = gng_number><div class = cue-text><img class = center src='/static/experiments/stop_signal_single_task_network/images/circle.png'></img></div>,,go,,178068,0.0,test_trial,135,stop-signal,
136,,,,,,500.0,,,,,,stop_signal_single_task_network,,,,,,,0.0-3.0-60.0,-1.0,none,,-1,,500.0,<div class = centerbox><div class = fixation>+</div></div>,,,,178572,0.0,fixation,136,poldrack-single-stim,
137,500.0,500.0,<img class = center src='/static/experiments/stop_signal_single_task_network/images/stopSignal.png'></img>,go,,2000.0,,90.0,1.0,0.0,30.0,stop_signal_single_task_network,,,,,,1.0,0.0-3.0-61.0,90.0,"[90, 77]",,910,circle,1000.0,<div class = bigbox><div class = centerbox><div class = gng_number><div class = cue-text><img class = center src='/static/experiments/stop_signal_single_task_network/images/circle.png'></img></div>,,go,,180576,0.0,test_trial,137,stop-signal,
138,,,,,,500.0,,,,,,stop_signal_single_task_network,,,,,,,0.0-3.0-62.0,-1.0,none,,-1,,500.0,<div class = centerbox><div class = fixation>+</div></div>,,,,181079,0.0,fixation,138,poldrack-single-stim,
139,500.0,500.0,<img class = center src='/static/experiments/stop_signal_single_task_network/images/stopSignal.png'></img>,stop,,2000.0,,-1.0,0.0,0.0,31.0,stop_signal_single_task_network,,,,,,,0.0-3.0-63.0,77.0,"[90, 77]",,740,square,1000.0,<div class = bigbox><div class = centerbox><div class = gng_number><div class = cue-text><img class = center src='/static/experiments/stop_signal_single_task_network/images/square.png'></img></div>,0.0,stop,,183083,0.0,test_trial,139,stop-signal,
140,,,,,,500.0,,,,,,stop_signal_single_task_network,,,,,,,0.0-3.0-64.0,-1.0,none,,-1,,500.0,<div class = centerbox><div class = fixation>+</div></div>,,,,183587,0.0,fixation,140,poldrack-single-stim,
141,450.0,500.0,<img class = center src='/static/experiments/stop_signal_single_task_network/images/stopSignal.png'></img>,stop,,2000.0,,-1.0,1.0,0.0,32.0,stop_signal_single_task_network,,,,,,,0.0-3.0-65.0,-1.0,"[90, 77]",,-1,circle,1000.0,<div class = bigbox><div class = centerbox><div class = gng_number><div class = cue-text><img class = center src='/static/experiments/stop_signal_single_task_network/images/circle.png'></img></div>,1.0,stop,,185591,0.0,test_trial,141,stop-signal,
142,,,,,,500.0,,,,,,stop_signal_single_task_network,,,,,,,0.0-3.0-66.0,-1.0,none,,-1,,500.0,<div class = centerbox><div class = fixation>+</div></div>,,,,186094,0.0,fixation,142,poldrack-single-stim,
143,500.0,500.0,<img class = center src='/static/experiments/stop_signal_single_task_network/images/stopSignal.png'></img>,go,,2000.0,,77.0,1.0,0.0,33.0,stop_signal_single_task_network,,,,,,1.0,0.0-3.0-67.0,77.0,"[90, 77]",,693,square,1000.0,<div class = bigbox><div class = centerbox><div class = gng_number><div class = cue-text><img class = center src='/static/experiments/stop_signal_single_task_network/images/square.png'></img></div>,,go,,188098,0.0,test_trial,143,stop-signal,
144,,,,,,500.0,,,,,,stop_signal_single_task_network,,,,,,,0.0-3.0-68.0,-1.0,none,,-1,,500.0,<div class = centerbox><div class = fixation>+</div></div>,,,,188601,0.0,fixation,144,poldrack-single-stim,
145,500.0,500.0,<img class = center src='/static/experiments/stop_signal_single_task_network/images/stopSignal.png'></img>,go,,2000.0,,77.0,1.0,0.0,34.0,stop_signal_single_task_network,,,,,,1.0,0.0-3.0-69.0,77.0,"[90, 77]",,1578,square,1000.0,<div class = bigbox><div class = centerbox><div class = gng_number><div class = cue-text><img class = center src='/static/experiments/stop_signal_single_task_network/images/square.png'></img></div>,,go,,190604,0.0,test_trial,145,stop-signal,
146,,,,,,500.0,,,,,,stop_signal_single_task_network,,,,,,,0.0-3.0-70.0,-1.0,none,,-1,,500.0,<div class = centerbox><div class = fixation>+</div></div>,,,,191108,0.0,fixation,146,poldrack-single-stim,
147,500.0,500.0,<img class = center src='/static/experiments/stop_signal_single_task_network/images/stopSignal.png'></img>,go,,2000.0,,77.0,1.0,0.0,35.0,stop_signal_single_task_network,,,,,,1.0,0.0-3.0-71.0,77.0,"[90, 77]",,560,square,1000.0,<div class = bigbox><div class = centerbox><div class = gng_number><div class = cue-text><img class = center src='/static/experiments/stop_signal_single_task_network/images/square.png'></img></div>,,go,,193111,0.0,test_trial,147,stop-signal,
148,,,,,,500.0,,,,,,stop_signal_single_task_network,,,,,,,0.0-3.0-72.0,-1.0,none,,-1,,500.0,<div class = centerbox><div class = fixation>+</div></div>,,,,193615,0.0,fixation,148,poldrack-single-stim,
149,500.0,500.0,<img class = center src='/static/experiments/stop_signal_single_task_network/images/stopSignal.png'></img>,stop,,2000.0,,-1.0,0.0,0.0,36.0,stop_signal_single_task_network,,,,,,,0.0-3.0-73.0,77.0,"[90, 77]",,524,square,1000.0,<div class = bigbox><div class = centerbox><div class = gng_number><div class = cue-text><img class = center src='/static/experiments/stop_signal_single_task_network/images/square.png'></img></div>,0.0,stop,,195619,0.0,test_trial,149,stop-signal,
150,,,,,,500.0,,,,,,stop_signal_single_task_network,,,,,,,0.0-3.0-74.0,-1.0,none,,-1,,500.0,<div class = centerbox><div class = fixation>+</div></div>,,,,196123,0.0,fixation,150,poldrack-single-stim,
151,450.0,500.0,<img class = center src='/static/experiments/stop_signal_single_task_network/images/stopSignal.png'></img>,go,,2000.0,,77.0,1.0,0.0,37.0,stop_signal_single_task_network,,,,,,1.0,0.0-3.0-75.0,77.0,"[90, 77]",,840,square,1000.0,<div class = bigbox><div class = centerbox><div class = gng_number><div class = cue-text><img class = center src='/static/experiments/stop_signal_single_task_network/images/square.png'></img></div>,,go,,198126,0.0,test_trial,151,stop-signal,
152,,,,,,500.0,,,,,,stop_signal_single_task_network,,,,,,,0.0-3.0-76.0,-1.0,none,,-1,,500.0,<div class = centerbox><div class = fixation>+</div></div>,,,,198630,0.0,fixation,152,poldrack-single-stim,
153,450.0,500.0,<img class = center src='/static/experiments/stop_signal_single_task_network/images/stopSignal.png'></img>,stop,,2000.0,,-1.0,0.0,0.0,38.0,stop_signal_single_task_network,,,,,,,0.0-3.0-77.0,90.0,"[90, 77]",,654,circle,1000.0,<div class = bigbox><div class = centerbox><div class = gng_number><div class = cue-text><img class = center src='/static/experiments/stop_signal_single_task_network/images/circle.png'></img></div>,0.0,stop,,200635,0.0,test_trial,153,stop-signal,
154,,,,,,500.0,,,,,,stop_signal_single_task_network,,,,,,,0.0-3.0-78.0,-1.0,none,,-1,,500.0,<div class = centerbox><div class = fixation>+</div></div>,,,,201143,0.0,fixation,154,poldrack-single-stim,
155,400.0,500.0,<img class = center src='/static/experiments/stop_signal_single_task_network/images/stopSignal.png'></img>,stop,,2000.0,,-1.0,1.0,0.0,39.0,stop_signal_single_task_network,,,,,,,0.0-3.0-79.0,-1.0,"[90, 77]",,-1,square,1000.0,<div class = bigbox><div class = centerbox><div class = gng_number><div class = cue-text><img class = center src='/static/experiments/stop_signal_single_task_network/images/square.png'></img></div>,1.0,stop,,203146,0.0,test_trial,155,stop-signal,
156,,,,,,500.0,,,,,,stop_signal_single_task_network,,,,,,,0.0-3.0-80.0,-1.0,none,,-1,,500.0,<div class = centerbox><div class = fixation>+</div></div>,,,,203650,0.0,fixation,156,poldrack-single-stim,
157,450.0,500.0,<img class = center src='/static/experiments/stop_signal_single_task_network/images/stopSignal.png'></img>,stop,,2000.0,,-1.0,1.0,0.0,40.0,stop_signal_single_task_network,,,,,,,0.0-3.0-81.0,-1.0,"[90, 77]",,-1,circle,1000.0,<div class = bigbox><div class = centerbox><div class = gng_number><div class = cue-text><img class = center src='/static/experiments/stop_signal_single_task_network/images/circle.png'></img></div>,1.0,stop,,205657,0.0,test_trial,157,stop-signal,
158,,,,,,500.0,,,,,,stop_signal_single_task_network,,,,,,,0.0-3.0-82.0,-1.0,none,,-1,,500.0,<div class = centerbox><div class = fixation>+</div></div>,,,,206160,0.0,fixation,158,poldrack-single-stim,
159,500.0,500.0,<img class = center src='/static/experiments/stop_signal_single_task_network/images/stopSignal.png'></img>,go,,2000.0,,90.0,1.0,0.0,41.0,stop_signal_single_task_network,,,,,,1.0,0.0-3.0-83.0,90.0,"[90, 77]",,941,circle,1000.0,<div class = bigbox><div class = centerbox><div class = gng_number><div class = cue-text><img class = center src='/static/experiments/stop_signal_single_task_network/images/circle.png'></img></div>,,go,,208163,0.0,test_trial,159,stop-signal,
160,,,,,,500.0,,,,,,stop_signal_single_task_network,,,,,,,0.0-3.0-84.0,-1.0,none,,-1,,500.0,<div class = centerbox><div class = fixation>+</div></div>,,,,208666,0.0,fixation,160,poldrack-single-stim,
161,500.0,500.0,<img class = center src='/static/experiments/stop_signal_single_task_network/images/stopSignal.png'></img>,stop,,2000.0,,-1.0,1.0,0.0,42.0,stop_signal_single_task_network,,,,,,,0.0-3.0-85.0,-1.0,"[90, 77]",,-1,square,1000.0,<div class = bigbox><div class = centerbox><div class = gng_number><div class = cue-text><img class = center src='/static/experiments/stop_signal_single_task_network/images/square.png'></img></div>,1.0,stop,,210669,0.0,test_trial,161,stop-signal,
162,,,,,,500.0,,,,,,stop_signal_single_task_network,,,,,,,0.0-3.0-86.0,-1.0,none,,-1,,500.0,<div class = centerbox><div class = fixation>+</div></div>,,,,211172,0.0,fixation,162,poldrack-single-stim,
163,550.0,500.0,<img class = center src='/static/experiments/stop_signal_single_task_network/images/stopSignal.png'></img>,go,,2000.0,,90.0,1.0,0.0,43.0,stop_signal_single_task_network,,,,,,1.0,0.0-3.0-87.0,90.0,"[90, 77]",,656,circle,1000.0,<div class = bigbox><div class = centerbox><div class = gng_number><div class = cue-text><img class = center src='/static/experiments/stop_signal_single_task_network/images/circle.png'></img></div>,,go,,213176,0.0,test_trial,163,stop-signal,
164,,,,,,500.0,,,,,,stop_signal_single_task_network,,,,,,,0.0-3.0-88.0,-1.0,none,,-1,,500.0,<div class = centerbox><div class = fixation>+</div></div>,,,,213679,0.0,fixation,164,poldrack-single-stim,
165,550.0,500.0,<img class = center src='/static/experiments/stop_signal_single_task_network/images/stopSignal.png'></img>,stop,,2000.0,,-1.0,0.0,0.0,44.0,stop_signal_single_task_network,,,,,,,0.0-3.0-89.0,90.0,"[90, 77]",,501,circle,1000.0,<div class = bigbox><div class = centerbox><div class = gng_number><div class = cue-text><img class = center src='/static/experiments/stop_signal_single_task_network/images/circle.png'></img></div>,0.0,stop,,215683,0.0,test_trial,165,stop-signal,
166,,,,,,500.0,,,,,,stop_signal_single_task_network,,,,,,,0.0-3.0-90.0,-1.0,none,,-1,,500.0,<div class = centerbox><div class = fixation>+</div></div>,,,,216186,0.0,fixation,166,poldrack-single-stim,
167,500.0,500.0,<img class = center src='/static/experiments/stop_signal_single_task_network/images/stopSignal.png'></img>,stop,,2000.0,,-1.0,0.0,0.0,45.0,stop_signal_single_task_network,,,,,,,0.0-3.0-91.0,77.0,"[90, 77]",,708,square,1000.0,<div class = bigbox><div class = centerbox><div class = gng_number><div class = cue-text><img class = center src='/static/experiments/stop_signal_single_task_network/images/square.png'></img></div>,0.0,stop,,218189,0.0,test_trial,167,stop-signal,
168,,,,,,500.0,,,,,,stop_signal_single_task_network,,,,,,,0.0-3.0-92.0,-1.0,none,,-1,,500.0,<div class = centerbox><div class = fixation>+</div></div>,,,,218695,0.0,fixation,168,poldrack-single-stim,
169,450.0,500.0,<img class = center src='/static/experiments/stop_signal_single_task_network/images/stopSignal.png'></img>,go,,2000.0,,90.0,1.0,0.0,46.0,stop_signal_single_task_network,,,,,,1.0,0.0-3.0-93.0,90.0,"[90, 77]",,456,circle,1000.0,<div class = bigbox><div class = centerbox><div class = gng_number><div class = cue-text><img class = center src='/static/experiments/stop_signal_single_task_network/images/circle.png'></img></div>,,go,,220697,0.0,test_trial,169,stop-signal,
170,,,,,,500.0,,,,,,stop_signal_single_task_network,,,,,,,0.0-3.0-94.0,-1.0,none,,-1,,500.0,<div class = centerbox><div class = fixation>+</div></div>,,,,221201,0.0,fixation,170,poldrack-single-stim,
171,450.0,500.0,<img class = center src='/static/experiments/stop_signal_single_task_network/images/stopSignal.png'></img>,go,,2000.0,,90.0,0.0,0.0,47.0,stop_signal_single_task_network,,,,,,0.0,0.0-3.0-95.0,77.0,"[90, 77]",,587,circle,1000.0,<div class = bigbox><div class = centerbox><div class = gng_number><div class = cue-text><img class = center src='/static/experiments/stop_signal_single_task_network/images/circle.png'></img></div>,,go,,223204,0.0,test_trial,171,stop-signal,
172,,,,,,500.0,,,,,,stop_signal_single_task_network,,,,,,,0.0-3.0-96.0,-1.0,none,,-1,,500.0,<div class = centerbox><div class = fixation>+</div></div>,,,,223709,0.0,fixation,172,poldrack-single-stim,
173,450.0,500.0,<img class = center src='/static/experiments/stop_signal_single_task_network/images/stopSignal.png'></img>,go,,2000.0,,77.0,1.0,0.0,48.0,stop_signal_single_task_network,,,,,,1.0,0.0-3.0-97.0,77.0,"[90, 77]",,898,square,1000.0,<div class = bigbox><div class = centerbox><div class = gng_number><div class = cue-text><img class = center src='/static/experiments/stop_signal_single_task_network/images/square.png'></img></div>,,go,,225712,0.0,test_trial,173,stop-signal,
174,,,,,,4714.0,,,,,,stop_signal_single_task_network,,,,,,,0.0-3.1-0.1,13.0,[13],,4714,,4714.0,"<div class = bigbox><div class = picture_box><p class = block-text><font color=""white""><br>Please take this time to read your feedback and to take a short break. Press enter to continue.</p><p class = block-text>You have completed: 1 out of 3 blocks of trials.</font></p></div></div>",,,,230440,0.0,practice-no-stop-feedback,174,poldrack-single-stim,
175,,,,,,5952.0,True,39.0,,,,stop_signal_single_task_network,,,,,,,0.0-3.1-1.1-0.1,39.0,[],,5952,,5952.0,<p>Press the Right Arrow</p>,,,,236394,200.0,attention_check,175,attention-check,
176,,,,,,500.0,,,,,,stop_signal_single_task_network,,,,,,,0.0-3.1-2.1,-1.0,none,,-1,,500.0,<div class = centerbox><div class = fixation>+</div></div>,,,,237097,0.0,fixation,176,poldrack-single-stim,
177,450.0,500.0,<img class = center src='/static/experiments/stop_signal_single_task_network/images/stopSignal.png'></img>,stop,,2000.0,,-1.0,0.0,1.0,1.0,stop_signal_single_task_network,,,,,,,0.0-3.1-3.1,77.0,"[90, 77]",,540,square,1000.0,<div class = bigbox><div class = centerbox><div class = gng_number><div class = cue-text><img class = center src='/static/experiments/stop_signal_single_task_network/images/square.png'></img></div>,0.0,stop,,239101,0.0,test_trial,177,stop-signal,
178,,,,,,500.0,,,,,,stop_signal_single_task_network,,,,,,,0.0-3.1-4.1,-1.0,none,,-1,,500.0,<div class = centerbox><div class = fixation>+</div></div>,,,,239604,0.0,fixation,178,poldrack-single-stim,
179,400.0,500.0,<img class = center src='/static/experiments/stop_signal_single_task_network/images/stopSignal.png'></img>,stop,,2000.0,,-1.0,1.0,1.0,2.0,stop_signal_single_task_network,,,,,,,0.0-3.1-5.1,-1.0,"[90, 77]",,-1,square,1000.0,<div class = bigbox><div class = centerbox><div class = gng_number><div class = cue-text><img class = center src='/static/experiments/stop_signal_single_task_network/images/square.png'></img></div>,1.0,stop,,241608,0.0,test_trial,179,stop-signal,
180,,,,,,500.0,,,,,,stop_signal_single_task_network,,,,,,,0.0-3.1-6.1,-1.0,none,,-1,,500.0,<div class = centerbox><div class = fixation>+</div></div>,,,,242110,0.0,fixation,180,poldrack-single-stim,
181,450.0,500.0,<img class = center src='/static/experiments/stop_signal_single_task_network/images/stopSignal.png'></img>,go,,2000.0,,90.0,1.0,1.0,3.0,stop_signal_single_task_network,,,,,,1.0,0.0-3.1-7.1,90.0,"[90, 77]",,490,circle,1000.0,<div class = bigbox><div class = centerbox><div class = gng_number><div class = cue-text><img class = center src='/static/experiments/stop_signal_single_task_network/images/circle.png'></img></div>,,go,,244113,0.0,test_trial,181,stop-signal,
182,,,,,,500.0,,,,,,stop_signal_single_task_network,,,,,,,0.0-3.1-8.1,-1.0,none,,-1,,500.0,<div class = centerbox><div class = fixation>+</div></div>,,,,244617,0.0,fixation,182,poldrack-single-stim,
183,450.0,500.0,<img class = center src='/static/experiments/stop_signal_single_task_network/images/stopSignal.png'></img>,go,,2000.0,,90.0,1.0,1.0,4.0,stop_signal_single_task_network,,,,,,1.0,0.0-3.1-9.1,90.0,"[90, 77]",,590,circle,1000.0,<div class = bigbox><div class = centerbox><div class = gng_number><div class = cue-text><img class = center src='/static/experiments/stop_signal_single_task_network/images/circle.png'></img></div>,,go,,246619,0.0,test_trial,183,stop-signal,
184,,,,,,500.0,,,,,,stop_signal_single_task_network,,,,,,,0.0-3.1-10.1,-1.0,none,,-1,,500.0,<div class = centerbox><div class = fixation>+</div></div>,,,,247122,0.0,fixation,184,poldrack-single-stim,
185,450.0,500.0,<img class = center src='/static/experiments/stop_signal_single_task_network/images/stopSignal.png'></img>,go,,2000.0,,77.0,1.0,1.0,5.0,stop_signal_single_task_network,,,,,,1.0,0.0-3.1-11.1,77.0,"[90, 77]",,661,square,1000.0,<div class = bigbox><div class = centerbox><div class = gng_number><div class = cue-text><img class = center src='/static/experiments/stop_signal_single_task_network/images/square.png'></img></div>,,go,,249125,0.0,test_trial,185,stop-signal,
186,,,,,,500.0,,,,,,stop_signal_single_task_network,,,,,,,0.0-3.1-12.1,-1.0,none,,-1,,500.0,<div class = centerbox><div class = fixation>+</div></div>,,,,249629,0.0,fixation,186,poldrack-single-stim,
187,450.0,500.0,<img class = center src='/static/experiments/stop_signal_single_task_network/images/stopSignal.png'></img>,stop,,2000.0,,-1.0,1.0,1.0,6.0,stop_signal_single_task_network,,,,,,,0.0-3.1-13.1,-1.0,"[90, 77]",,-1,square,1000.0,<div class = bigbox><div class = centerbox><div class = gng_number><div class = cue-text><img class = center src='/static/experiments/stop_signal_single_task_network/images/square.png'></img></div>,1.0,stop,,251632,0.0,test_trial,187,stop-signal,
188,,,,,,500.0,,,,,,stop_signal_single_task_network,,,,,,,0.0-3.1-14.1,-1.0,none,,-1,,500.0,<div class = centerbox><div class = fixation>+</div></div>,,,,252135,0.0,fixation,188,poldrack-single-stim,
189,500.0,500.0,<img class = center src='/static/experiments/stop_signal_single_task_network/images/stopSignal.png'></img>,stop,,2000.0,,-1.0,1.0,1.0,7.0,stop_signal_single_task_network,,,,,,,0.0-3.1-15.1,-1.0,"[90, 77]",,-1,square,1000.0,<div class = bigbox><div class = centerbox><div class = gng_number><div class = cue-text><img class = center src='/static/experiments/stop_signal_single_task_network/images/square.png'></img></div>,1.0,stop,,254138,0.0,test_trial,189,stop-signal,
190,,,,,,500.0,,,,,,stop_signal_single_task_network,,,,,,,0.0-3.1-16.1,-1.0,none,,-1,,500.0,<div class = centerbox><div class = fixation>+</div></div>,,,,254642,0.0,fixation,190,poldrack-single-stim,
191,550.0,500.0,<img class = center src='/static/experiments/stop_signal_single_task_network/images/stopSignal.png'></img>,stop,,2000.0,,-1.0,1.0,1.0,8.0,stop_signal_single_task_network,,,,,,,0.0-3.1-17.1,-1.0,"[90, 77]",,-1,circle,1000.0,<div class = bigbox><div class = centerbox><div class = gng_number><div class = cue-text><img class = center src='/static/experiments/stop_signal_single_task_network/images/circle.png'></img></div>,1.0,stop,,256645,0.0,test_trial,191,stop-signal,
192,,,,,,500.0,,,,,,stop_signal_single_task_network,,,,,,,0.0-3.1-18.1,-1.0,none,,-1,,500.0,<div class = centerbox><div class = fixation>+</div></div>,,,,257148,0.0,fixation,192,poldrack-single-stim,
193,600.0,500.0,<img class = center src='/static/experiments/stop_signal_single_task_network/images/stopSignal.png'></img>,go,,2000.0,,90.0,1.0,1.0,9.0,stop_signal_single_task_network,,,,,,1.0,0.0-3.1-19.1,90.0,"[90, 77]",,789,circle,1000.0,<div class = bigbox><div class = centerbox><div class = gng_number><div class = cue-text><img class = center src='/static/experiments/stop_signal_single_task_network/images/circle.png'></img></div>,,go,,259152,0.0,test_trial,193,stop-signal,
194,,,,,,500.0,,,,,,stop_signal_single_task_network,,,,,,,0.0-3.1-20.1,-1.0,none,,-1,,500.0,<div class = centerbox><div class = fixation>+</div></div>,,,,259656,0.0,fixation,194,poldrack-single-stim,
195,600.0,500.0,<img class = center src='/static/experiments/stop_signal_single_task_network/images/stopSignal.png'></img>,stop,,2000.0,,-1.0,0.0,1.0,10.0,stop_signal_single_task_network,,,,,,,0.0-3.1-21.1,77.0,"[90, 77]",,776,square,1000.0,<div class = bigbox><div class = centerbox><div class = gng_number><div class = cue-text><img class = center src='/static/experiments/stop_signal_single_task_network/images/square.png'></img></div>,0.0,stop,,261659,0.0,test_trial,195,stop-signal,
196,,,,,,500.0,,,,,,stop_signal_single_task_network,,,,,,,0.0-3.1-22.1,-1.0,none,,-1,,500.0,<div class = centerbox><div class = fixation>+</div></div>,,,,262163,0.0,fixation,196,poldrack-single-stim,
197,550.0,500.0,<img class = center src='/static/experiments/stop_signal_single_task_network/images/stopSignal.png'></img>,go,,2000.0,,90.0,1.0,1.0,11.0,stop_signal_single_task_network,,,,,,1.0,0.0-3.1-23.1,90.0,"[90, 77]",,933,circle,1000.0,<div class = bigbox><div class = centerbox><div class = gng_number><div class = cue-text><img class = center src='/static/experiments/stop_signal_single_task_network/images/circle.png'></img></div>,,go,,264166,0.0,test_trial,197,stop-signal,
198,,,,,,500.0,,,,,,stop_signal_single_task_network,,,,,,,0.0-3.1-24.1,-1.0,none,,-1,,500.0,<div class = centerbox><div class = fixation>+</div></div>,,,,264669,0.0,fixation,198,poldrack-single-stim,
199,550.0,500.0,<img class = center src='/static/experiments/stop_signal_single_task_network/images/stopSignal.png'></img>,go,,2000.0,,90.0,1.0,1.0,12.0,stop_signal_single_task_network,,,,,,1.0,0.0-3.1-25.1,90.0,"[90, 77]",,604,circle,1000.0,<div class = bigbox><div class = centerbox><div class = gng_number><div class = cue-text><img class = center src='/static/experiments/stop_signal_single_task_network/images/circle.png'></img></div>,,go,,266672,0.0,test_trial,199,stop-signal,
200,,,,,,500.0,,,,,,stop_signal_single_task_network,,,,,,,0.0-3.1-26.1,-1.0,none,,-1,,500.0,<div class = centerbox><div class = fixation>+</div></div>,,,,267175,0.0,fixation,200,poldrack-single-stim,
201,550.0,500.0,<img class = center src='/static/experiments/stop_signal_single_task_network/images/stopSignal.png'></img>,stop,,2000.0,,-1.0,0.0,1.0,13.0,stop_signal_single_task_network,,,,,,,0.0-3.1-27.1,90.0,"[90, 77]",,545,circle,1000.0,<div class = bigbox><div class = centerbox><div class = gng_number><div class = cue-text><img class = center src='/static/experiments/stop_signal_single_task_network/images/circle.png'></img></div>,0.0,stop,,269179,0.0,test_trial,201,stop-signal,
202,,,,,,500.0,,,,,,stop_signal_single_task_network,,,,,,,0.0-3.1-28.1,-1.0,none,,-1,,500.0,<div class = centerbox><div class = fixation>+</div></div>,,,,269683,0.0,fixation,202,poldrack-single-stim,
203,500.0,500.0,<img class = center src='/static/experiments/stop_signal_single_task_network/images/stopSignal.png'></img>,go,,2000.0,,90.0,1.0,1.0,14.0,stop_signal_single_task_network,,,,,,1.0,0.0-3.1-29.1,90.0,"[90, 77]",,847,circle,1000.0,<div class = bigbox><div class = centerbox><div class = gng_number><div class = cue-text><img class = center src='/static/experiments/stop_signal_single_task_network/images/circle.png'></img></div>,,go,,271687,0.0,test_trial,203,stop-signal,
204,,,,,,500.0,,,,,,stop_signal_single_task_network,,,,,,,0.0-3.1-30.1,-1.0,none,,-1,,500.0,<div class = centerbox><div class = fixation>+</div></div>,,,,272190,0.0,fixation,204,poldrack-single-stim,
205,500.0,500.0,<img class = center src='/static/experiments/stop_signal_single_task_network/images/stopSignal.png'></img>,stop,,2000.0,,-1.0,1.0,1.0,15.0,stop_signal_single_task_network,,,,,,,0.0-3.1-31.1,-1.0,"[90, 77]",,-1,circle,1000.0,<div class = bigbox><div class = centerbox><div class = gng_number><div class = cue-text><img class = center src='/static/experiments/stop_signal_single_task_network/images/circle.png'></img></div>,1.0,stop,,274194,0.0,test_trial,205,stop-signal,
206,,,,,,500.0,,,,,,stop_signal_single_task_network,,,,,,,0.0-3.1-32.1,-1.0,none,,-1,,500.0,<div class = centerbox><div class = fixation>+</div></div>,,,,274698,0.0,fixation,206,poldrack-single-stim,
207,550.0,500.0,<img class = center src='/static/experiments/stop_signal_single_task_network/images/stopSignal.png'></img>,go,,2000.0,,77.0,1.0,1.0,16.0,stop_signal_single_task_network,,,,,,1.0,0.0-3.1-33.1,77.0,"[90, 77]",,710,square,1000.0,<div class = bigbox><div class = centerbox><div class = gng_number><div class = cue-text><img class = center src='/static/experiments/stop_signal_single_task_network/images/square.png'></img></div>,,go,,276702,0.0,test_trial,207,stop-signal,
208,,,,,,500.0,,,,,,stop_signal_single_task_network,,,,,,,0.0-3.1-34.1,-1.0,none,,-1,,500.0,<div class = centerbox><div class = fixation>+</div></div>,,,,277206,0.0,fixation,208,poldrack-single-stim,
209,550.0,500.0,<img class = center src='/static/experiments/stop_signal_single_task_network/images/stopSignal.png'></img>,go,,2000.0,,77.0,1.0,1.0,17.0,stop_signal_single_task_network,,,,,,1.0,0.0-3.1-35.1,77.0,"[90, 77]",,747,square,1000.0,<div class = bigbox><div class = centerbox><div class = gng_number><div class = cue-text><img class = center src='/static/experiments/stop_signal_single_task_network/images/square.png'></img></div>,,go,,279209,0.0,test_trial,209,stop-signal,
210,,,,,,500.0,,,,,,stop_signal_single_task_network,,,,,,,0.0-3.1-36.1,-1.0,none,,-1,,500.0,<div class = centerbox><div class = fixation>+</div></div>,,,,279713,0.0,fixation,210,poldrack-single-stim,
211,550.0,500.0,<img class = center src='/static/experiments/stop_signal_single_task_network/images/stopSignal.png'></img>,go,,2000.0,,90.0,1.0,1.0,18.0,stop_signal_single_task_network,,,,,,1.0,0.0-3.1-37.1,90.0,"[90, 77]",,922,circle,1000.0,<div class = bigbox><div class = centerbox><div class = gng_number><div class = cue-text><img class = center src='/static/experiments/stop_signal_single_task_network/images/circle.png'></img></div>,,go,,281717,0.0,test_trial,211,stop-signal,
212,,,,,,500.0,,,,,,stop_signal_single_task_network,,,,,,,0.0-3.1-38.1,-1.0,none,,-1,,500.0,<div class = centerbox><div class = fixation>+</div></div>,,,,282221,0.0,fixation,212,poldrack-single-stim,
213,550.0,500.0,<img class = center src='/static/experiments/stop_signal_single_task_network/images/stopSignal.png'></img>,go,,2000.0,,77.0,1.0,1.0,19.0,stop_signal_single_task_network,,,,,,1.0,0.0-3.1-39.1,77.0,"[90, 77]",,709,square,1000.0,<div class = bigbox><div class = centerbox><div class = gng_number><div class = cue-text><img class = center src='/static/experiments/stop_signal_single_task_network/images/square.png'></img></div>,,go,,284224,0.0,test_trial,213,stop-signal,
214,,,,,,500.0,,,,,,stop_signal_single_task_network,,,,,,,0.0-3.1-40.1,-1.0,none,,-1,,500.0,<div class = centerbox><div class = fixation>+</div></div>,,,,284728,0.0,fixation,214,poldrack-single-stim,
215,550.0,500.0,<img class = center src='/static/experiments/stop_signal_single_task_network/images/stopSignal.png'></img>,go,,2000.0,,77.0,1.0,1.0,20.0,stop_signal_single_task_network,,,,,,1.0,0.0-3.1-41.1,77.0,"[90, 77]",,747,square,1000.0,<div class = bigbox><div class = centerbox><div class = gng_number><div class = cue-text><img class = center src='/static/experiments/stop_signal_single_task_network/images/square.png'></img></div>,,go,,286730,0.0,test_trial,215,stop-signal,
216,,,,,,500.0,,,,,,stop_signal_single_task_network,,,,,,,0.0-3.1-42.1,-1.0,none,,-1,,500.0,<div class = centerbox><div class = fixation>+</div></div>,,,,287233,0.0,fixation,216,poldrack-single-stim,
217,550.0,500.0,<img class = center src='/static/experiments/stop_signal_single_task_network/images/stopSignal.png'></img>,go,,2000.0,,77.0,1.0,1.0,21.0,stop_signal_single_task_network,,,,,,1.0,0.0-3.1-43.1,77.0,"[90, 77]",,593,square,1000.0,<div class = bigbox><div class = centerbox><div class = gng_number><div class = cue-text><img class = center src='/static/experiments/stop_signal_single_task_network/images/square.png'></img></div>,,go,,289236,0.0,test_trial,217,stop-signal,
218,,,,,,500.0,,,,,,stop_signal_single_task_network,,,,,,,0.0-3.1-44.1,-1.0,none,,-1,,500.0,<div class = centerbox><div class = fixation>+</div></div>,,,,289740,0.0,fixation,218,poldrack-single-stim,
219,550.0,500.0,<img class = center src='/static/experiments/stop_signal_single_task_network/images/stopSignal.png'></img>,go,,2000.0,,77.0,1.0,1.0,22.0,stop_signal_single_task_network,,,,,,1.0,0.0-3.1-45.1,77.0,"[90, 77]",,559,square,1000.0,<div class = bigbox><div class = centerbox><div class = gng_number><div class = cue-text><img class = center src='/static/experiments/stop_signal_single_task_network/images/square.png'></img></div>,,go,,291742,0.0,test_trial,219,stop-signal,
220,,,,,,500.0,,,,,,stop_signal_single_task_network,,,,,,,0.0-3.1-46.1,-1.0,none,,-1,,500.0,<div class = centerbox><div class = fixation>+</div></div>,,,,292247,0.0,fixation,220,poldrack-single-stim,
221,550.0,500.0,<img class = center src='/static/experiments/stop_signal_single_task_network/images/stopSignal.png'></img>,go,,2000.0,,90.0,1.0,1.0,23.0,stop_signal_single_task_network,,,,,,1.0,0.0-3.1-47.1,90.0,"[90, 77]",,636,circle,1000.0,<div class = bigbox><div class = centerbox><div class = gng_number><div class = cue-text><img class = center src='/static/experiments/stop_signal_single_task_network/images/circle.png'></img></div>,,go,,294250,0.0,test_trial,221,stop-signal,
222,,,,,,500.0,,,,,,stop_signal_single_task_network,,,,,,,0.0-3.1-48.1,-1.0,none,,-1,,500.0,<div class = centerbox><div class = fixation>+</div></div>,,,,294753,0.0,fixation,222,poldrack-single-stim,
223,550.0,500.0,<img class = center src='/static/experiments/stop_signal_single_task_network/images/stopSignal.png'></img>,stop,,2000.0,,-1.0,0.0,1.0,24.0,stop_signal_single_task_network,,,,,,,0.0-3.1-49.1,90.0,"[90, 77]",,586,circle,1000.0,<div class = bigbox><div class = centerbox><div class = gng_number><div class = cue-text><img class = center src='/static/experiments/stop_signal_single_task_network/images/circle.png'></img></div>,0.0,stop,,296756,0.0,test_trial,223,stop-signal,
224,,,,,,500.0,,,,,,stop_signal_single_task_network,,,,,,,0.0-3.1-50.1,-1.0,none,,-1,,500.0,<div class = centerbox><div class = fixation>+</div></div>,,,,297260,0.0,fixation,224,poldrack-single-stim,
225,500.0,500.0,<img class = center src='/static/experiments/stop_signal_single_task_network/images/stopSignal.png'></img>,go,,2000.0,,77.0,1.0,1.0,25.0,stop_signal_single_task_network,,,,,,1.0,0.0-3.1-51.1,77.0,"[90, 77]",,870,square,1000.0,<div class = bigbox><div class = centerbox><div class = gng_number><div class = cue-text><img class = center src='/static/experiments/stop_signal_single_task_network/images/square.png'></img></div>,,go,,299264,0.0,test_trial,225,stop-signal,
226,,,,,,500.0,,,,,,stop_signal_single_task_network,,,,,,,0.0-3.1-52.1,-1.0,none,,-1,,500.0,<div class = centerbox><div class = fixation>+</div></div>,,,,299767,0.0,fixation,226,poldrack-single-stim,
227,500.0,500.0,<img class = center src='/static/experiments/stop_signal_single_task_network/images/stopSignal.png'></img>,stop,,2000.0,,-1.0,0.0,1.0,26.0,stop_signal_single_task_network,,,,,,,0.0-3.1-53.1,77.0,"[90, 77]",,564,square,1000.0,<div class = bigbox><div class = centerbox><div class = gng_number><div class = cue-text><img class = center src='/static/experiments/stop_signal_single_task_network/images/square.png'></img></div>,0.0,stop,,301771,0.0,test_trial,227,stop-signal,
228,,,,,,500.0,,,,,,stop_signal_single_task_network,,,,,,,0.0-3.1-54.1,-1.0,none,,-1,,500.0,<div class = centerbox><div class = fixation>+</div></div>,,,,302275,0.0,fixation,228,poldrack-single-stim,
229,450.0,500.0,<img class = center src='/static/experiments/stop_signal_single_task_network/images/stopSignal.png'></img>,go,,2000.0,,90.0,1.0,1.0,27.0,stop_signal_single_task_network,,,,,,1.0,0.0-3.1-55.1,90.0,"[90, 77]",,544,circle,1000.0,<div class = bigbox><div class = centerbox><div class = gng_number><div class = cue-text><img class = center src='/static/experiments/stop_signal_single_task_network/images/circle.png'></img></div>,,go,,304278,0.0,test_trial,229,stop-signal,
230,,,,,,500.0,,,,,,stop_signal_single_task_network,,,,,,,0.0-3.1-56.1,-1.0,none,,-1,,500.0,<div class = centerbox><div class = fixation>+</div></div>,,,,304781,0.0,fixation,230,poldrack-single-stim,
231,450.0,500.0,<img class = center src='/static/experiments/stop_signal_single_task_network/images/stopSignal.png'></img>,go,,2000.0,,90.0,1.0,1.0,28.0,stop_signal_single_task_network,,,,,,1.0,0.0-3.1-57.1,90.0,"[90, 77]",,591,circle,1000.0,<div class = bigbox><div class = centerbox><div class = gng_number><div class = cue-text><img class = center src='/static/experiments/stop_signal_single_task_network/images/circle.png'></img></div>,,go,,306785,0.0,test_trial,231,stop-signal,
232,,,,,,500.0,,,,,,stop_signal_single_task_network,,,,,,,0.0-3.1-58.1,-1.0,none,,-1,,500.0,<div class = centerbox><div class = fixation>+</div></div>,,,,307288,0.0,fixation,232,poldrack-single-stim,
233,450.0,500.0,<img class = center src='/static/experiments/stop_signal_single_task_network/images/stopSignal.png'></img>,stop,,2000.0,,-1.0,0.0,1.0,29.0,stop_signal_single_task_network,,,,,,,0.0-3.1-59.1,90.0,"[90, 77]",,531,circle,1000.0,<div class = bigbox><div class = centerbox><div class = gng_number><div class = cue-text><img class = center src='/static/experiments/stop_signal_single_task_network/images/circle.png'></img></div>,0.0,stop,,309292,0.0,test_trial,233,stop-signal,
234,,,,,,500.0,,,,,,stop_signal_single_task_network,,,,,,,0.0-3.1-60.1,-1.0,none,,-1,,500.0,<div class = centerbox><div class = fixation>+</div></div>,,,,309795,0.0,fixation,234,poldrack-single-stim,
235,400.0,500.0,<img class = center src='/static/experiments/stop_signal_single_task_network/images/stopSignal.png'></img>,go,,2000.0,,77.0,1.0,1.0,30.0,stop_signal_single_task_network,,,,,,1.0,0.0-3.1-61.1,77.0,"[90, 77]",,465,square,1000.0,<div class = bigbox><div class = centerbox><div class = gng_number><div class = cue-text><img class = center src='/static/experiments/stop_signal_single_task_network/images/square.png'></img></div>,,go,,311799,0.0,test_trial,235,stop-signal,
236,,,,,,500.0,,,,,,stop_signal_single_task_network,,,,,,,0.0-3.1-62.1,-1.0,none,,-1,,500.0,<div class = centerbox><div class = fixation>+</div></div>,,,,312302,0.0,fixation,236,poldrack-single-stim,
237,400.0,500.0,<img class = center src='/static/experiments/stop_signal_single_task_network/images/stopSignal.png'></img>,go,,2000.0,,77.0,1.0,1.0,31.0,stop_signal_single_task_network,,,,,,1.0,0.0-3.1-63.1,77.0,"[90, 77]",,620,square,1000.0,<div class = bigbox><div class = centerbox><div class = gng_number><div class = cue-text><img class = center src='/static/experiments/stop_signal_single_task_network/images/square.png'></img></div>,,go,,314306,0.0,test_trial,237,stop-signal,
238,,,,,,500.0,,,,,,stop_signal_single_task_network,,,,,,,0.0-3.1-64.1,-1.0,none,,-1,,500.0,<div class = centerbox><div class = fixation>+</div></div>,,,,314810,0.0,fixation,238,poldrack-single-stim,
239,400.0,500.0,<img class = center src='/static/experiments/stop_signal_single_task_network/images/stopSignal.png'></img>,go,,2000.0,,90.0,1.0,1.0,32.0,stop_signal_single_task_network,,,,,,1.0,0.0-3.1-65.1,90.0,"[90, 77]",,619,circle,1000.0,<div class = bigbox><div class = centerbox><div class = gng_number><div class = cue-text><img class = center src='/static/experiments/stop_signal_single_task_network/images/circle.png'></img></div>,,go,,316813,0.0,test_trial,239,stop-signal,
240,,,,,,500.0,,,,,,stop_signal_single_task_network,,,,,,,0.0-3.1-66.1,-1.0,none,,-1,,500.0,<div class = centerbox><div class = fixation>+</div></div>,,,,317317,0.0,fixation,240,poldrack-single-stim,
241,400.0,500.0,<img class = center src='/static/experiments/stop_signal_single_task_network/images/stopSignal.png'></img>,stop,,2000.0,,-1.0,1.0,1.0,33.0,stop_signal_single_task_network,,,,,,,0.0-3.1-67.1,-1.0,"[90, 77]",,-1,circle,1000.0,<div class = bigbox><div class = centerbox><div class = gng_number><div class = cue-text><img class = center src='/static/experiments/stop_signal_single_task_network/images/circle.png'></img></div>,1.0,stop,,319320,0.0,test_trial,241,stop-signal,
242,,,,,,500.0,,,,,,stop_signal_single_task_network,,,,,,,0.0-3.1-68.1,-1.0,none,,-1,,500.0,<div class = centerbox><div class = fixation>+</div></div>,,,,319823,0.0,fixation,242,poldrack-single-stim,
243,450.0,500.0,<img class = center src='/static/experiments/stop_signal_single_task_network/images/stopSignal.png'></img>,go,,2000.0,,77.0,1.0,1.0,34.0,stop_signal_single_task_network,,,,,,1.0,0.0-3.1-69.1,77.0,"[90, 77]",,468,square,1000.0,<div class = bigbox><div class = centerbox><div class = gng_number><div class = cue-text><img class = center src='/static/experiments/stop_signal_single_task_network/images/square.png'></img></div>,,go,,321827,0.0,test_trial,243,stop-signal,
244,,,,,,500.0,,,,,,stop_signal_single_task_network,,,,,,,0.0-3.1-70.1,-1.0,none,,-1,,500.0,<div class = centerbox><div class = fixation>+</div></div>,,,,322330,0.0,fixation,244,poldrack-single-stim,
245,450.0,500.0,<img class = center src='/static/experiments/stop_signal_single_task_network/images/stopSignal.png'></img>,go,,2000.0,,90.0,1.0,1.0,35.0,stop_signal_single_task_network,,,,,,1.0,0.0-3.1-71.1,90.0,"[90, 77]",,1146,circle,1000.0,<div class = bigbox><div class = centerbox><div class = gng_number><div class = cue-text><img class = center src='/static/experiments/stop_signal_single_task_network/images/circle.png'></img></div>,,go,,324334,0.0,test_trial,245,stop-signal,
246,,,,,,500.0,,,,,,stop_signal_single_task_network,,,,,,,0.0-3.1-72.1,-1.0,none,,-1,,500.0,<div class = centerbox><div class = fixation>+</div></div>,,,,324838,0.0,fixation,246,poldrack-single-stim,
247,450.0,500.0,<img class = center src='/static/experiments/stop_signal_single_task_network/images/stopSignal.png'></img>,stop,,2000.0,,-1.0,1.0,1.0,36.0,stop_signal_single_task_network,,,,,,,0.0-3.1-73.1,-1.0,"[90, 77]",,-1,square,1000.0,<div class = bigbox><div class = centerbox><div class = gng_number><div class = cue-text><img class = center src='/static/experiments/stop_signal_single_task_network/images/square.png'></img></div>,1.0,stop,,326842,0.0,test_trial,247,stop-signal,
248,,,,,,500.0,,,,,,stop_signal_single_task_network,,,,,,,0.0-3.1-74.1,-1.0,none,,-1,,500.0,<div class = centerbox><div class = fixation>+</div></div>,,,,327345,0.0,fixation,248,poldrack-single-stim,
249,500.0,500.0,<img class = center src='/static/experiments/stop_signal_single_task_network/images/stopSignal.png'></img>,go,,2000.0,,90.0,1.0,1.0,37.0,stop_signal_single_task_network,,,,,,1.0,0.0-3.1-75.1,90.0,"[90, 77]",,707,circle,1000.0,<div class = bigbox><div class = centerbox><div class = gng_number><div class = cue-text><img class = center src='/static/experiments/stop_signal_single_task_network/images/circle.png'></img></div>,,go,,329350,0.0,test_trial,249,stop-signal,
250,,,,,,500.0,,,,,,stop_signal_single_task_network,,,,,,,0.0-3.1-76.1,-1.0,none,,-1,,500.0,<div class = centerbox><div class = fixation>+</div></div>,,,,329853,0.0,fixation,250,poldrack-single-stim,
251,500.0,500.0,<img class = center src='/static/experiments/stop_signal_single_task_network/images/stopSignal.png'></img>,go,,2000.0,,77.0,1.0,1.0,38.0,stop_signal_single_task_network,,,,,,1.0,0.0-3.1-77.1,77.0,"[90, 77]",,672,square,1000.0,<div class = bigbox><div class = centerbox><div class = gng_number><div class = cue-text><img class = center src='/static/experiments/stop_signal_single_task_network/images/square.png'></img></div>,,go,,331858,0.0,test_trial,251,stop-signal,
252,,,,,,500.0,,,,,,stop_signal_single_task_network,,,,,,,0.0-3.1-78.1,-1.0,none,,-1,,500.0,<div class = centerbox><div class = fixation>+</div></div>,,,,332364,0.0,fixation,252,poldrack-single-stim,
253,500.0,500.0,<img class = center src='/static/experiments/stop_signal_single_task_network/images/stopSignal.png'></img>,go,,2000.0,,90.0,1.0,1.0,39.0,stop_signal_single_task_network,,,,,,1.0,0.0-3.1-79.1,90.0,"[90, 77]",,577,circle,1000.0,<div class = bigbox><div class = centerbox><div class = gng_number><div class = cue-text><img class = center src='/static/experiments/stop_signal_single_task_network/images/circle.png'></img></div>,,go,,334368,0.0,test_trial,253,stop-signal,
254,,,,,,500.0,,,,,,stop_signal_single_task_network,,,,,,,0.0-3.1-80.1,-1.0,none,,-1,,500.0,<div class = centerbox><div class = fixation>+</div></div>,,,,334871,0.0,fixation,254,poldrack-single-stim,
255,500.0,500.0,<img class = center src='/static/experiments/stop_signal_single_task_network/images/stopSignal.png'></img>,go,,2000.0,,77.0,1.0,1.0,40.0,stop_signal_single_task_network,,,,,,1.0,0.0-3.1-81.1,77.0,"[90, 77]",,814,square,1000.0,<div class = bigbox><div class = centerbox><div class = gng_number><div class = cue-text><img class = center src='/static/experiments/stop_signal_single_task_network/images/square.png'></img></div>,,go,,336874,0.0,test_trial,255,stop-signal,
256,,,,,,500.0,,,,,,stop_signal_single_task_network,,,,,,,0.0-3.1-82.1,-1.0,none,,-1,,500.0,<div class = centerbox><div class = fixation>+</div></div>,,,,337378,0.0,fixation,256,poldrack-single-stim,
257,500.0,500.0,<img class = center src='/static/experiments/stop_signal_single_task_network/images/stopSignal.png'></img>,stop,,2000.0,,-1.0,1.0,1.0,41.0,stop_signal_single_task_network,,,,,,,0.0-3.1-83.1,-1.0,"[90, 77]",,-1,square,1000.0,<div class = bigbox><div class = centerbox><div class = gng_number><div class = cue-text><img class = center src='/static/experiments/stop_signal_single_task_network/images/square.png'></img></div>,1.0,stop,,339381,0.0,test_trial,257,stop-signal,
258,,,,,,500.0,,,,,,stop_signal_single_task_network,,,,,,,0.0-3.1-84.1,-1.0,none,,-1,,500.0,<div class = centerbox><div class = fixation>+</div></div>,,,,339889,0.0,fixation,258,poldrack-single-stim,
259,550.0,500.0,<img class = center src='/static/experiments/stop_signal_single_task_network/images/stopSignal.png'></img>,go,,2000.0,,77.0,1.0,1.0,42.0,stop_signal_single_task_network,,,,,,1.0,0.0-3.1-85.1,77.0,"[90, 77]",,1332,square,1000.0,<div class = bigbox><div class = centerbox><div class = gng_number><div class = cue-text><img class = center src='/static/experiments/stop_signal_single_task_network/images/square.png'></img></div>,,go,,341894,0.0,test_trial,259,stop-signal,
260,,,,,,500.0,,,,,,stop_signal_single_task_network,,,,,,,0.0-3.1-86.1,-1.0,none,,-1,,500.0,<div class = centerbox><div class = fixation>+</div></div>,,,,342397,0.0,fixation,260,poldrack-single-stim,
261,550.0,500.0,<img class = center src='/static/experiments/stop_signal_single_task_network/images/stopSignal.png'></img>,go,,2000.0,,77.0,1.0,1.0,43.0,stop_signal_single_task_network,,,,,,1.0,0.0-3.1-87.1,77.0,"[90, 77]",,544,square,1000.0,<div class = bigbox><div class = centerbox><div class = gng_number><div class = cue-text><img class = center src='/static/experiments/stop_signal_single_task_network/images/square.png'></img></div>,,go,,344399,0.0,test_trial,261,stop-signal,
262,,,,,,500.0,,,,,,stop_signal_single_task_network,,,,,,,0.0-3.1-88.1,-1.0,none,,-1,,500.0,<div class = centerbox><div class = fixation>+</div></div>,,,,344901,0.0,fixation,262,poldrack-single-stim,
263,550.0,500.0,<img class = center src='/static/experiments/stop_signal_single_task_network/images/stopSignal.png'></img>,stop,,2000.0,,-1.0,0.0,1.0,44.0,stop_signal_single_task_network,,,,,,,0.0-3.1-89.1,90.0,"[90, 77]",,513,circle,1000.0,<div class = bigbox><div class = centerbox><div class = gng_number><div class = cue-text><img class = center src='/static/experiments/stop_signal_single_task_network/images/circle.png'></img></div>,0.0,stop,,346905,0.0,test_trial,263,stop-signal,
264,,,,,,500.0,,,,,,stop_signal_single_task_network,,,,,,,0.0-3.1-90.1,-1.0,none,,-1,,500.0,<div class = centerbox><div class = fixation>+</div></div>,,,,347407,0.0,fixation,264,poldrack-single-stim,
265,500.0,500.0,<img class = center src='/static/experiments/stop_signal_single_task_network/images/stopSignal.png'></img>,go,,2000.0,,77.0,1.0,1.0,45.0,stop_signal_single_task_network,,,,,,1.0,0.0-3.1-91.1,77.0,"[90, 77]",,628,square,1000.0,<div class = bigbox><div class = centerbox><div class = gng_number><div class = cue-text><img class = center src='/static/experiments/stop_signal_single_task_network/images/square.png'></img></div>,,go,,349413,0.0,test_trial,265,stop-signal,
266,,,,,,500.0,,,,,,stop_signal_single_task_network,,,,,,,0.0-3.1-92.1,-1.0,none,,-1,,500.0,<div class = centerbox><div class = fixation>+</div></div>,,,,349916,0.0,fixation,266,poldrack-single-stim,
267,500.0,500.0,<img class = center src='/static/experiments/stop_signal_single_task_network/images/stopSignal.png'></img>,stop,,2000.0,,-1.0,0.0,1.0,46.0,stop_signal_single_task_network,,,,,,,0.0-3.1-93.1,90.0,"[90, 77]",,610,circle,1000.0,<div class = bigbox><div class = centerbox><div class = gng_number><div class = cue-text><img class = center src='/static/experiments/stop_signal_single_task_network/images/circle.png'></img></div>,0.0,stop,,351919,0.0,test_trial,267,stop-signal,
268,,,,,,500.0,,,,,,stop_signal_single_task_network,,,,,,,0.0-3.1-94.1,-1.0,none,,-1,,500.0,<div class = centerbox><div class = fixation>+</div></div>,,,,352423,0.0,fixation,268,poldrack-single-stim,
269,450.0,500.0,<img class = center src='/static/experiments/stop_signal_single_task_network/images/stopSignal.png'></img>,go,,2000.0,,90.0,1.0,1.0,47.0,stop_signal_single_task_network,,,,,,1.0,0.0-3.1-95.1,90.0,"[90, 77]",,887,circle,1000.0,<div class = bigbox><div class = centerbox><div class = gng_number><div class = cue-text><img class = center src='/static/experiments/stop_signal_single_task_network/images/circle.png'></img></div>,,go,,354427,0.0,test_trial,269,stop-signal,
270,,,,,,500.0,,,,,,stop_signal_single_task_network,,,,,,,0.0-3.1-96.1,-1.0,none,,-1,,500.0,<div class = centerbox><div class = fixation>+</div></div>,,,,354930,0.0,fixation,270,poldrack-single-stim,
271,450.0,500.0,<img class = center src='/static/experiments/stop_signal_single_task_network/images/stopSignal.png'></img>,go,,2000.0,,90.0,1.0,1.0,48.0,stop_signal_single_task_network,,,,,,1.0,0.0-3.1-97.1,90.0,"[90, 77]",,515,circle,1000.0,<div class = bigbox><div class = centerbox><div class = gng_number><div class = cue-text><img class = center src='/static/experiments/stop_signal_single_task_network/images/circle.png'></img></div>,,go,,356934,0.0,test_trial,271,stop-signal,
272,,,,,,43136.0,,,,,,stop_signal_single_task_network,,,,,,,0.0-3.2-0.2,13.0,[13],,43136,,43136.0,"<div class = bigbox><div class = picture_box><p class = block-text><font color=""white""><br>Please take this time to read your feedback and to take a short break. Press enter to continue.</p><p class = block-text>You have completed: 2 out of 3 blocks of trials.</font></p></div></div>",,,,400084,0.0,practice-no-stop-feedback,272,poldrack-single-stim,
