,SSD_stay,SSD_switch,SS_delay,SS_duration,SS_stimulus,SS_trial_type,att_check_percent,block_duration,correct,correct_response,correct_trial,current_block,current_trial,exp_id,final_accuracy,final_avg_rt,final_credit_var,final_missed_percent,final_responses_ok,internal_node_id,key_press,magnitude,number,parity,possible_responses,predictable_condition,predictable_dimension,responses,rt,stim_duration,stimulus,stop_acc,stop_signal_condition,text,time_elapsed,timing_post_trial,trial_id,trial_index,trial_type,view_history,whichQuadrant
0,,,,,,,,2351.0,,,,,,stop_signal_with_predictable_task_switching,,,,,,0.0-0.0-0.0,13.0,,,,[13],,,,2351,2351.0,<div class = bigbox><div class = picture_box><p class = block-text>Welcome to the experiment. This experiment will take around 10 minutes. Press <i>enter</i> to begin.</p></div></div>,,,,2362,0.0,feedback_block,0,poldrack-single-stim,,
1,,,,,,,,,,,,,,stop_signal_with_predictable_task_switching,,,,,,0.0-0.0-1.0,,,,,,,,,23155,,,,,,25521,,instruction,1,poldrack-instructions,"[{""page_index"":0,""viewing_time"":15092},{""page_index"":1,""viewing_time"":3774},{""page_index"":2,""viewing_time"":4288}]",
2,,,,,,,,500.0,,,,,,stop_signal_with_predictable_task_switching,,,,,,0.0-0.0-2.0,-1.0,,,,none,,,,-1,500.0,<div class = bigbox><div class = quad_box><div class = decision-bottom-right><div class = fixation>+</div></div></div></div>,,,,27028,0.0,practice_fixation,2,poldrack-single-stim,,
3,350.0,350.0,,500.0,<div class = bigbox><div class = quad_box><div class = decision-bottom-right><img class = center src='/static/experiments/stop_signal_with_predictable_task_switching/images/stopSignal.png'></img></div></div></div>,go,,2000.0,,77.0,1.0,0.0,1.0,stop_signal_with_predictable_task_switching,,,,,,0.0-0.0-3.0,77.0,low,4.0,even,"[77, 90]",N/A,parity,,1024,1000.0,<div class = bigbox><div class = quad_box><div class = decision-bottom-right><div class = gng_number><div class = cue-text><img class = center src='/static/experiments/stop_signal_with_predictable_task_switching/images/4.png'></img></div></div></div></div></div>,,go,,29036,0.0,practice_trial,3,stop-signal,,3.0
4,,,,,,,,500.0,,,,,,stop_signal_with_predictable_task_switching,,,,,,0.0-0.0-4.0,-1.0,,,,none,,,,-1,500.0,"<div class = fb_box><div class = center-text><font size = 20>Correct!</font></div></div><div class = prompt_box><p class = center-block-text style = ""font-size:16px; line-height:80%;"">Do not respond if a star appears!</p><p class = center-block-text style = ""font-size:16px; line-height:80%;"">Top 2 quadrants: Judge number on magnitude</p><p class = center-block-text style = ""font-size:16px; line-height:80%;"">high: M Key | low: Z Key</p><p class = center-block-text style = ""font-size:16px; line-height:80%;"">Bottom 2 quadrants: Judge number on parity</p><p class = center-block-text style = ""font-size:16px; line-height:80%;"">even: M Key | odd: Z Key</p></div>",,,,29543,0.0,practice-stop-feedback,4,poldrack-single-stim,,
5,,,,,,,,500.0,,,,,,stop_signal_with_predictable_task_switching,,,,,,0.0-0.0-5.0,-1.0,,,,none,,,,-1,500.0,<div class = bigbox><div class = quad_box><div class = decision-bottom-left><div class = fixation>+</div></div></div></div>,,,,30048,0.0,practice_fixation,5,poldrack-single-stim,,
6,350.0,350.0,350.0,500.0,<div class = bigbox><div class = quad_box><div class = decision-bottom-left><img class = center src='/static/experiments/stop_signal_with_predictable_task_switching/images/stopSignal.png'></img></div></div></div>,stop,,2000.0,,-1.0,0.0,0.0,2.0,stop_signal_with_predictable_task_switching,,,,,,0.0-0.0-6.0,90.0,low,2.0,even,"[77, 90]",stay,parity,,499,1000.0,<div class = bigbox><div class = quad_box><div class = decision-bottom-left><div class = gng_number><div class = cue-text><img class = center src='/static/experiments/stop_signal_with_predictable_task_switching/images/2.png'></img></div></div></div></div></div>,0.0,stop,,32054,0.0,practice_trial,6,stop-signal,,4.0
7,,,,,,,,500.0,,,,,,stop_signal_with_predictable_task_switching,,,,,,0.0-0.0-7.0,-1.0,,,,none,,,,-1,500.0,"<div class = fb_box><div class = center-text><font size = 20>There was a star.</font></div></div><div class = prompt_box><p class = center-block-text style = ""font-size:16px; line-height:80%;"">Do not respond if a star appears!</p><p class = center-block-text style = ""font-size:16px; line-height:80%;"">Top 2 quadrants: Judge number on magnitude</p><p class = center-block-text style = ""font-size:16px; line-height:80%;"">high: M Key | low: Z Key</p><p class = center-block-text style = ""font-size:16px; line-height:80%;"">Bottom 2 quadrants: Judge number on parity</p><p class = center-block-text style = ""font-size:16px; line-height:80%;"">even: M Key | odd: Z Key</p></div>",,,,32560,0.0,practice-stop-feedback,7,poldrack-single-stim,,
8,,,,,,,,500.0,,,,,,stop_signal_with_predictable_task_switching,,,,,,0.0-0.0-8.0,-1.0,,,,none,,,,-1,500.0,<div class = bigbox><div class = quad_box><div class = decision-top-left><div class = fixation>+</div></div></div></div>,,,,33065,0.0,practice_fixation,8,poldrack-single-stim,,
9,300.0,350.0,350.0,500.0,<div class = bigbox><div class = quad_box><div class = decision-top-left><img class = center src='/static/experiments/stop_signal_with_predictable_task_switching/images/stopSignal.png'></img></div></div></div>,stop,,2000.0,,-1.0,1.0,0.0,3.0,stop_signal_with_predictable_task_switching,,,,,,0.0-0.0-9.0,-1.0,high,6.0,even,"[77, 90]",switch,magnitude,,-1,1000.0,<div class = bigbox><div class = quad_box><div class = decision-top-left><div class = gng_number><div class = cue-text><img class = center src='/static/experiments/stop_signal_with_predictable_task_switching/images/6.png'></img></div></div></div></div></div>,1.0,stop,,35070,0.0,practice_trial,9,stop-signal,,1.0
10,,,,,,,,500.0,,,,,,stop_signal_with_predictable_task_switching,,,,,,0.0-0.0-10.0,-1.0,,,,none,,,,-1,500.0,"<div class = fb_box><div class = center-text><font size = 20>Correct!</font></div></div><div class = prompt_box><p class = center-block-text style = ""font-size:16px; line-height:80%;"">Do not respond if a star appears!</p><p class = center-block-text style = ""font-size:16px; line-height:80%;"">Top 2 quadrants: Judge number on magnitude</p><p class = center-block-text style = ""font-size:16px; line-height:80%;"">high: M Key | low: Z Key</p><p class = center-block-text style = ""font-size:16px; line-height:80%;"">Bottom 2 quadrants: Judge number on parity</p><p class = center-block-text style = ""font-size:16px; line-height:80%;"">even: M Key | odd: Z Key</p></div>",,,,35577,0.0,practice-stop-feedback,10,poldrack-single-stim,,
11,,,,,,,,500.0,,,,,,stop_signal_with_predictable_task_switching,,,,,,0.0-0.0-11.0,-1.0,,,,none,,,,-1,500.0,<div class = bigbox><div class = quad_box><div class = decision-top-right><div class = fixation>+</div></div></div></div>,,,,36082,0.0,practice_fixation,11,poldrack-single-stim,,
12,300.0,400.0,300.0,500.0,<div class = bigbox><div class = quad_box><div class = decision-top-right><img class = center src='/static/experiments/stop_signal_with_predictable_task_switching/images/stopSignal.png'></img></div></div></div>,go,,2000.0,,90.0,1.0,0.0,4.0,stop_signal_with_predictable_task_switching,,,,,,0.0-0.0-12.0,90.0,low,3.0,odd,"[77, 90]",stay,magnitude,,603,1000.0,<div class = bigbox><div class = quad_box><div class = decision-top-right><div class = gng_number><div class = cue-text><img class = center src='/static/experiments/stop_signal_with_predictable_task_switching/images/3.png'></img></div></div></div></div></div>,,go,,38087,0.0,practice_trial,12,stop-signal,,2.0
13,,,,,,,,500.0,,,,,,stop_signal_with_predictable_task_switching,,,,,,0.0-0.0-13.0,-1.0,,,,none,,,,-1,500.0,"<div class = fb_box><div class = center-text><font size = 20>Correct!</font></div></div><div class = prompt_box><p class = center-block-text style = ""font-size:16px; line-height:80%;"">Do not respond if a star appears!</p><p class = center-block-text style = ""font-size:16px; line-height:80%;"">Top 2 quadrants: Judge number on magnitude</p><p class = center-block-text style = ""font-size:16px; line-height:80%;"">high: M Key | low: Z Key</p><p class = center-block-text style = ""font-size:16px; line-height:80%;"">Bottom 2 quadrants: Judge number on parity</p><p class = center-block-text style = ""font-size:16px; line-height:80%;"">even: M Key | odd: Z Key</p></div>",,,,38592,0.0,practice-stop-feedback,13,poldrack-single-stim,,
14,,,,,,,,500.0,,,,,,stop_signal_with_predictable_task_switching,,,,,,0.0-0.0-14.0,-1.0,,,,none,,,,-1,500.0,<div class = bigbox><div class = quad_box><div class = decision-bottom-right><div class = fixation>+</div></div></div></div>,,,,39096,0.0,practice_fixation,14,poldrack-single-stim,,
15,300.0,400.0,400.0,500.0,<div class = bigbox><div class = quad_box><div class = decision-bottom-right><img class = center src='/static/experiments/stop_signal_with_predictable_task_switching/images/stopSignal.png'></img></div></div></div>,go,,2000.0,,90.0,0.0,0.0,5.0,stop_signal_with_predictable_task_switching,,,,,,0.0-0.0-15.0,77.0,high,7.0,odd,"[77, 90]",switch,parity,,638,1000.0,<div class = bigbox><div class = quad_box><div class = decision-bottom-right><div class = gng_number><div class = cue-text><img class = center src='/static/experiments/stop_signal_with_predictable_task_switching/images/7.png'></img></div></div></div></div></div>,,go,,41101,0.0,practice_trial,15,stop-signal,,3.0
16,,,,,,,,500.0,,,,,,stop_signal_with_predictable_task_switching,,,,,,0.0-0.0-16.0,-1.0,,,,none,,,,-1,500.0,"<div class = fb_box><div class = center-text><font size = 20>Incorrect</font></div></div><div class = prompt_box><p class = center-block-text style = ""font-size:16px; line-height:80%;"">Do not respond if a star appears!</p><p class = center-block-text style = ""font-size:16px; line-height:80%;"">Top 2 quadrants: Judge number on magnitude</p><p class = center-block-text style = ""font-size:16px; line-height:80%;"">high: M Key | low: Z Key</p><p class = center-block-text style = ""font-size:16px; line-height:80%;"">Bottom 2 quadrants: Judge number on parity</p><p class = center-block-text style = ""font-size:16px; line-height:80%;"">even: M Key | odd: Z Key</p></div>",,,,41606,0.0,practice-stop-feedback,16,poldrack-single-stim,,
17,,,,,,,,500.0,,,,,,stop_signal_with_predictable_task_switching,,,,,,0.0-0.0-17.0,-1.0,,,,none,,,,-1,500.0,<div class = bigbox><div class = quad_box><div class = decision-bottom-left><div class = fixation>+</div></div></div></div>,,,,42110,0.0,practice_fixation,17,poldrack-single-stim,,
18,300.0,400.0,300.0,500.0,<div class = bigbox><div class = quad_box><div class = decision-bottom-left><img class = center src='/static/experiments/stop_signal_with_predictable_task_switching/images/stopSignal.png'></img></div></div></div>,go,,2000.0,,90.0,1.0,0.0,6.0,stop_signal_with_predictable_task_switching,,,,,,0.0-0.0-18.0,90.0,low,3.0,odd,"[77, 90]",stay,parity,,610,1000.0,<div class = bigbox><div class = quad_box><div class = decision-bottom-left><div class = gng_number><div class = cue-text><img class = center src='/static/experiments/stop_signal_with_predictable_task_switching/images/3.png'></img></div></div></div></div></div>,,go,,44116,0.0,practice_trial,18,stop-signal,,4.0
19,,,,,,,,500.0,,,,,,stop_signal_with_predictable_task_switching,,,,,,0.0-0.0-19.0,-1.0,,,,none,,,,-1,500.0,"<div class = fb_box><div class = center-text><font size = 20>Correct!</font></div></div><div class = prompt_box><p class = center-block-text style = ""font-size:16px; line-height:80%;"">Do not respond if a star appears!</p><p class = center-block-text style = ""font-size:16px; line-height:80%;"">Top 2 quadrants: Judge number on magnitude</p><p class = center-block-text style = ""font-size:16px; line-height:80%;"">high: M Key | low: Z Key</p><p class = center-block-text style = ""font-size:16px; line-height:80%;"">Bottom 2 quadrants: Judge number on parity</p><p class = center-block-text style = ""font-size:16px; line-height:80%;"">even: M Key | odd: Z Key</p></div>",,,,44621,0.0,practice-stop-feedback,19,poldrack-single-stim,,
20,,,,,,,,500.0,,,,,,stop_signal_with_predictable_task_switching,,,,,,0.0-0.0-20.0,-1.0,,,,none,,,,-1,500.0,<div class = bigbox><div class = quad_box><div class = decision-top-left><div class = fixation>+</div></div></div></div>,,,,45126,0.0,practice_fixation,20,poldrack-single-stim,,
21,300.0,400.0,400.0,500.0,<div class = bigbox><div class = quad_box><div class = decision-top-left><img class = center src='/static/experiments/stop_signal_with_predictable_task_switching/images/stopSignal.png'></img></div></div></div>,go,,2000.0,,90.0,1.0,0.0,7.0,stop_signal_with_predictable_task_switching,,,,,,0.0-0.0-21.0,90.0,low,2.0,even,"[77, 90]",switch,magnitude,,875,1000.0,<div class = bigbox><div class = quad_box><div class = decision-top-left><div class = gng_number><div class = cue-text><img class = center src='/static/experiments/stop_signal_with_predictable_task_switching/images/2.png'></img></div></div></div></div></div>,,go,,47131,0.0,practice_trial,21,stop-signal,,1.0
22,,,,,,,,500.0,,,,,,stop_signal_with_predictable_task_switching,,,,,,0.0-0.0-22.0,-1.0,,,,none,,,,-1,500.0,"<div class = fb_box><div class = center-text><font size = 20>Correct!</font></div></div><div class = prompt_box><p class = center-block-text style = ""font-size:16px; line-height:80%;"">Do not respond if a star appears!</p><p class = center-block-text style = ""font-size:16px; line-height:80%;"">Top 2 quadrants: Judge number on magnitude</p><p class = center-block-text style = ""font-size:16px; line-height:80%;"">high: M Key | low: Z Key</p><p class = center-block-text style = ""font-size:16px; line-height:80%;"">Bottom 2 quadrants: Judge number on parity</p><p class = center-block-text style = ""font-size:16px; line-height:80%;"">even: M Key | odd: Z Key</p></div>",,,,47636,0.0,practice-stop-feedback,22,poldrack-single-stim,,
23,,,,,,,,500.0,,,,,,stop_signal_with_predictable_task_switching,,,,,,0.0-0.0-23.0,-1.0,,,,none,,,,-1,500.0,<div class = bigbox><div class = quad_box><div class = decision-top-right><div class = fixation>+</div></div></div></div>,,,,48141,0.0,practice_fixation,23,poldrack-single-stim,,
24,300.0,400.0,300.0,500.0,<div class = bigbox><div class = quad_box><div class = decision-top-right><img class = center src='/static/experiments/stop_signal_with_predictable_task_switching/images/stopSignal.png'></img></div></div></div>,stop,,2000.0,,-1.0,1.0,0.0,8.0,stop_signal_with_predictable_task_switching,,,,,,0.0-0.0-24.0,-1.0,high,6.0,even,"[77, 90]",stay,magnitude,,-1,1000.0,<div class = bigbox><div class = quad_box><div class = decision-top-right><div class = gng_number><div class = cue-text><img class = center src='/static/experiments/stop_signal_with_predictable_task_switching/images/6.png'></img></div></div></div></div></div>,1.0,stop,,50146,0.0,practice_trial,24,stop-signal,,2.0
25,,,,,,,,500.0,,,,,,stop_signal_with_predictable_task_switching,,,,,,0.0-0.0-25.0,-1.0,,,,none,,,,-1,500.0,"<div class = fb_box><div class = center-text><font size = 20>Correct!</font></div></div><div class = prompt_box><p class = center-block-text style = ""font-size:16px; line-height:80%;"">Do not respond if a star appears!</p><p class = center-block-text style = ""font-size:16px; line-height:80%;"">Top 2 quadrants: Judge number on magnitude</p><p class = center-block-text style = ""font-size:16px; line-height:80%;"">high: M Key | low: Z Key</p><p class = center-block-text style = ""font-size:16px; line-height:80%;"">Bottom 2 quadrants: Judge number on parity</p><p class = center-block-text style = ""font-size:16px; line-height:80%;"">even: M Key | odd: Z Key</p></div>",,,,50650,0.0,practice-stop-feedback,25,poldrack-single-stim,,
26,,,,,,,,500.0,,,,,,stop_signal_with_predictable_task_switching,,,,,,0.0-0.0-26.0,-1.0,,,,none,,,,-1,500.0,<div class = bigbox><div class = quad_box><div class = decision-bottom-right><div class = fixation>+</div></div></div></div>,,,,51154,0.0,practice_fixation,26,poldrack-single-stim,,
27,350.0,400.0,400.0,500.0,<div class = bigbox><div class = quad_box><div class = decision-bottom-right><img class = center src='/static/experiments/stop_signal_with_predictable_task_switching/images/stopSignal.png'></img></div></div></div>,stop,,2000.0,,-1.0,1.0,0.0,9.0,stop_signal_with_predictable_task_switching,,,,,,0.0-0.0-27.0,-1.0,high,7.0,odd,"[77, 90]",switch,parity,,-1,1000.0,<div class = bigbox><div class = quad_box><div class = decision-bottom-right><div class = gng_number><div class = cue-text><img class = center src='/static/experiments/stop_signal_with_predictable_task_switching/images/7.png'></img></div></div></div></div></div>,1.0,stop,,53159,0.0,practice_trial,27,stop-signal,,3.0
28,,,,,,,,500.0,,,,,,stop_signal_with_predictable_task_switching,,,,,,0.0-0.0-28.0,-1.0,,,,none,,,,-1,500.0,"<div class = fb_box><div class = center-text><font size = 20>Correct!</font></div></div><div class = prompt_box><p class = center-block-text style = ""font-size:16px; line-height:80%;"">Do not respond if a star appears!</p><p class = center-block-text style = ""font-size:16px; line-height:80%;"">Top 2 quadrants: Judge number on magnitude</p><p class = center-block-text style = ""font-size:16px; line-height:80%;"">high: M Key | low: Z Key</p><p class = center-block-text style = ""font-size:16px; line-height:80%;"">Bottom 2 quadrants: Judge number on parity</p><p class = center-block-text style = ""font-size:16px; line-height:80%;"">even: M Key | odd: Z Key</p></div>",,,,53665,0.0,practice-stop-feedback,28,poldrack-single-stim,,
29,,,,,,,,500.0,,,,,,stop_signal_with_predictable_task_switching,,,,,,0.0-0.0-29.0,-1.0,,,,none,,,,-1,500.0,<div class = bigbox><div class = quad_box><div class = decision-bottom-left><div class = fixation>+</div></div></div></div>,,,,54169,0.0,practice_fixation,29,poldrack-single-stim,,
30,350.0,450.0,350.0,500.0,<div class = bigbox><div class = quad_box><div class = decision-bottom-left><img class = center src='/static/experiments/stop_signal_with_predictable_task_switching/images/stopSignal.png'></img></div></div></div>,go,,2000.0,,77.0,1.0,0.0,10.0,stop_signal_with_predictable_task_switching,,,,,,0.0-0.0-30.0,77.0,high,6.0,even,"[77, 90]",stay,parity,,696,1000.0,<div class = bigbox><div class = quad_box><div class = decision-bottom-left><div class = gng_number><div class = cue-text><img class = center src='/static/experiments/stop_signal_with_predictable_task_switching/images/6.png'></img></div></div></div></div></div>,,go,,56175,0.0,practice_trial,30,stop-signal,,4.0
31,,,,,,,,500.0,,,,,,stop_signal_with_predictable_task_switching,,,,,,0.0-0.0-31.0,-1.0,,,,none,,,,-1,500.0,"<div class = fb_box><div class = center-text><font size = 20>Correct!</font></div></div><div class = prompt_box><p class = center-block-text style = ""font-size:16px; line-height:80%;"">Do not respond if a star appears!</p><p class = center-block-text style = ""font-size:16px; line-height:80%;"">Top 2 quadrants: Judge number on magnitude</p><p class = center-block-text style = ""font-size:16px; line-height:80%;"">high: M Key | low: Z Key</p><p class = center-block-text style = ""font-size:16px; line-height:80%;"">Bottom 2 quadrants: Judge number on parity</p><p class = center-block-text style = ""font-size:16px; line-height:80%;"">even: M Key | odd: Z Key</p></div>",,,,56680,0.0,practice-stop-feedback,31,poldrack-single-stim,,
32,,,,,,,,500.0,,,,,,stop_signal_with_predictable_task_switching,,,,,,0.0-0.0-32.0,-1.0,,,,none,,,,-1,500.0,<div class = bigbox><div class = quad_box><div class = decision-top-left><div class = fixation>+</div></div></div></div>,,,,57187,0.0,practice_fixation,32,poldrack-single-stim,,
33,350.0,450.0,450.0,500.0,<div class = bigbox><div class = quad_box><div class = decision-top-left><img class = center src='/static/experiments/stop_signal_with_predictable_task_switching/images/stopSignal.png'></img></div></div></div>,go,,2000.0,,90.0,1.0,0.0,11.0,stop_signal_with_predictable_task_switching,,,,,,0.0-0.0-33.0,90.0,low,3.0,odd,"[77, 90]",switch,magnitude,,624,1000.0,<div class = bigbox><div class = quad_box><div class = decision-top-left><div class = gng_number><div class = cue-text><img class = center src='/static/experiments/stop_signal_with_predictable_task_switching/images/3.png'></img></div></div></div></div></div>,,go,,59192,0.0,practice_trial,33,stop-signal,,1.0
34,,,,,,,,500.0,,,,,,stop_signal_with_predictable_task_switching,,,,,,0.0-0.0-34.0,-1.0,,,,none,,,,-1,500.0,"<div class = fb_box><div class = center-text><font size = 20>Correct!</font></div></div><div class = prompt_box><p class = center-block-text style = ""font-size:16px; line-height:80%;"">Do not respond if a star appears!</p><p class = center-block-text style = ""font-size:16px; line-height:80%;"">Top 2 quadrants: Judge number on magnitude</p><p class = center-block-text style = ""font-size:16px; line-height:80%;"">high: M Key | low: Z Key</p><p class = center-block-text style = ""font-size:16px; line-height:80%;"">Bottom 2 quadrants: Judge number on parity</p><p class = center-block-text style = ""font-size:16px; line-height:80%;"">even: M Key | odd: Z Key</p></div>",,,,59699,0.0,practice-stop-feedback,34,poldrack-single-stim,,
35,,,,,,,,500.0,,,,,,stop_signal_with_predictable_task_switching,,,,,,0.0-0.0-35.0,-1.0,,,,none,,,,-1,500.0,<div class = bigbox><div class = quad_box><div class = decision-top-right><div class = fixation>+</div></div></div></div>,,,,60203,0.0,practice_fixation,35,poldrack-single-stim,,
36,350.0,450.0,350.0,500.0,<div class = bigbox><div class = quad_box><div class = decision-top-right><img class = center src='/static/experiments/stop_signal_with_predictable_task_switching/images/stopSignal.png'></img></div></div></div>,go,,2000.0,,90.0,1.0,0.0,12.0,stop_signal_with_predictable_task_switching,,,,,,0.0-0.0-36.0,90.0,low,3.0,odd,"[77, 90]",stay,magnitude,,600,1000.0,<div class = bigbox><div class = quad_box><div class = decision-top-right><div class = gng_number><div class = cue-text><img class = center src='/static/experiments/stop_signal_with_predictable_task_switching/images/3.png'></img></div></div></div></div></div>,,go,,62208,0.0,practice_trial,36,stop-signal,,2.0
37,,,,,,,,500.0,,,,,,stop_signal_with_predictable_task_switching,,,,,,0.0-0.0-37.0,-1.0,,,,none,,,,-1,500.0,"<div class = fb_box><div class = center-text><font size = 20>Correct!</font></div></div><div class = prompt_box><p class = center-block-text style = ""font-size:16px; line-height:80%;"">Do not respond if a star appears!</p><p class = center-block-text style = ""font-size:16px; line-height:80%;"">Top 2 quadrants: Judge number on magnitude</p><p class = center-block-text style = ""font-size:16px; line-height:80%;"">high: M Key | low: Z Key</p><p class = center-block-text style = ""font-size:16px; line-height:80%;"">Bottom 2 quadrants: Judge number on parity</p><p class = center-block-text style = ""font-size:16px; line-height:80%;"">even: M Key | odd: Z Key</p></div>",,,,62713,0.0,practice-stop-feedback,37,poldrack-single-stim,,
38,,,,,,,,500.0,,,,,,stop_signal_with_predictable_task_switching,,,,,,0.0-0.0-38.0,-1.0,,,,none,,,,-1,500.0,<div class = bigbox><div class = quad_box><div class = decision-bottom-right><div class = fixation>+</div></div></div></div>,,,,63218,0.0,practice_fixation,38,poldrack-single-stim,,
39,350.0,450.0,450.0,500.0,<div class = bigbox><div class = quad_box><div class = decision-bottom-right><img class = center src='/static/experiments/stop_signal_with_predictable_task_switching/images/stopSignal.png'></img></div></div></div>,go,,2000.0,,77.0,1.0,0.0,13.0,stop_signal_with_predictable_task_switching,,,,,,0.0-0.0-39.0,77.0,high,6.0,even,"[77, 90]",switch,parity,,487,1000.0,<div class = bigbox><div class = quad_box><div class = decision-bottom-right><div class = gng_number><div class = cue-text><img class = center src='/static/experiments/stop_signal_with_predictable_task_switching/images/6.png'></img></div></div></div></div></div>,,go,,65223,0.0,practice_trial,39,stop-signal,,3.0
40,,,,,,,,500.0,,,,,,stop_signal_with_predictable_task_switching,,,,,,0.0-0.0-40.0,-1.0,,,,none,,,,-1,500.0,"<div class = fb_box><div class = center-text><font size = 20>Correct!</font></div></div><div class = prompt_box><p class = center-block-text style = ""font-size:16px; line-height:80%;"">Do not respond if a star appears!</p><p class = center-block-text style = ""font-size:16px; line-height:80%;"">Top 2 quadrants: Judge number on magnitude</p><p class = center-block-text style = ""font-size:16px; line-height:80%;"">high: M Key | low: Z Key</p><p class = center-block-text style = ""font-size:16px; line-height:80%;"">Bottom 2 quadrants: Judge number on parity</p><p class = center-block-text style = ""font-size:16px; line-height:80%;"">even: M Key | odd: Z Key</p></div>",,,,65728,0.0,practice-stop-feedback,40,poldrack-single-stim,,
41,,,,,,,,500.0,,,,,,stop_signal_with_predictable_task_switching,,,,,,0.0-0.0-41.0,-1.0,,,,none,,,,-1,500.0,<div class = bigbox><div class = quad_box><div class = decision-bottom-left><div class = fixation>+</div></div></div></div>,,,,66232,0.0,practice_fixation,41,poldrack-single-stim,,
42,350.0,450.0,350.0,500.0,<div class = bigbox><div class = quad_box><div class = decision-bottom-left><img class = center src='/static/experiments/stop_signal_with_predictable_task_switching/images/stopSignal.png'></img></div></div></div>,go,,2000.0,,77.0,1.0,0.0,14.0,stop_signal_with_predictable_task_switching,,,,,,0.0-0.0-42.0,77.0,low,2.0,even,"[77, 90]",stay,parity,,695,1000.0,<div class = bigbox><div class = quad_box><div class = decision-bottom-left><div class = gng_number><div class = cue-text><img class = center src='/static/experiments/stop_signal_with_predictable_task_switching/images/2.png'></img></div></div></div></div></div>,,go,,68237,0.0,practice_trial,42,stop-signal,,4.0
43,,,,,,,,500.0,,,,,,stop_signal_with_predictable_task_switching,,,,,,0.0-0.0-43.0,-1.0,,,,none,,,,-1,500.0,"<div class = fb_box><div class = center-text><font size = 20>Correct!</font></div></div><div class = prompt_box><p class = center-block-text style = ""font-size:16px; line-height:80%;"">Do not respond if a star appears!</p><p class = center-block-text style = ""font-size:16px; line-height:80%;"">Top 2 quadrants: Judge number on magnitude</p><p class = center-block-text style = ""font-size:16px; line-height:80%;"">high: M Key | low: Z Key</p><p class = center-block-text style = ""font-size:16px; line-height:80%;"">Bottom 2 quadrants: Judge number on parity</p><p class = center-block-text style = ""font-size:16px; line-height:80%;"">even: M Key | odd: Z Key</p></div>",,,,68742,0.0,practice-stop-feedback,43,poldrack-single-stim,,
44,,,,,,,,500.0,,,,,,stop_signal_with_predictable_task_switching,,,,,,0.0-0.0-44.0,-1.0,,,,none,,,,-1,500.0,<div class = bigbox><div class = quad_box><div class = decision-top-left><div class = fixation>+</div></div></div></div>,,,,69246,0.0,practice_fixation,44,poldrack-single-stim,,
45,350.0,450.0,450.0,500.0,<div class = bigbox><div class = quad_box><div class = decision-top-left><img class = center src='/static/experiments/stop_signal_with_predictable_task_switching/images/stopSignal.png'></img></div></div></div>,stop,,2000.0,,-1.0,1.0,0.0,15.0,stop_signal_with_predictable_task_switching,,,,,,0.0-0.0-45.0,-1.0,high,9.0,odd,"[77, 90]",switch,magnitude,,-1,1000.0,<div class = bigbox><div class = quad_box><div class = decision-top-left><div class = gng_number><div class = cue-text><img class = center src='/static/experiments/stop_signal_with_predictable_task_switching/images/9.png'></img></div></div></div></div></div>,1.0,stop,,71251,0.0,practice_trial,45,stop-signal,,1.0
46,,,,,,,,500.0,,,,,,stop_signal_with_predictable_task_switching,,,,,,0.0-0.0-46.0,-1.0,,,,none,,,,-1,500.0,"<div class = fb_box><div class = center-text><font size = 20>Correct!</font></div></div><div class = prompt_box><p class = center-block-text style = ""font-size:16px; line-height:80%;"">Do not respond if a star appears!</p><p class = center-block-text style = ""font-size:16px; line-height:80%;"">Top 2 quadrants: Judge number on magnitude</p><p class = center-block-text style = ""font-size:16px; line-height:80%;"">high: M Key | low: Z Key</p><p class = center-block-text style = ""font-size:16px; line-height:80%;"">Bottom 2 quadrants: Judge number on parity</p><p class = center-block-text style = ""font-size:16px; line-height:80%;"">even: M Key | odd: Z Key</p></div>",,,,71756,0.0,practice-stop-feedback,46,poldrack-single-stim,,
47,,,,,,,,500.0,,,,,,stop_signal_with_predictable_task_switching,,,,,,0.0-0.0-47.0,-1.0,,,,none,,,,-1,500.0,<div class = bigbox><div class = quad_box><div class = decision-top-right><div class = fixation>+</div></div></div></div>,,,,72260,0.0,practice_fixation,47,poldrack-single-stim,,
48,350.0,500.0,350.0,500.0,<div class = bigbox><div class = quad_box><div class = decision-top-right><img class = center src='/static/experiments/stop_signal_with_predictable_task_switching/images/stopSignal.png'></img></div></div></div>,go,,2000.0,,90.0,1.0,0.0,16.0,stop_signal_with_predictable_task_switching,,,,,,0.0-0.0-48.0,90.0,low,3.0,odd,"[77, 90]",stay,magnitude,,584,1000.0,<div class = bigbox><div class = quad_box><div class = decision-top-right><div class = gng_number><div class = cue-text><img class = center src='/static/experiments/stop_signal_with_predictable_task_switching/images/3.png'></img></div></div></div></div></div>,,go,,74265,0.0,practice_trial,48,stop-signal,,2.0
49,,,,,,,,500.0,,,,,,stop_signal_with_predictable_task_switching,,,,,,0.0-0.0-49.0,-1.0,,,,none,,,,-1,500.0,"<div class = fb_box><div class = center-text><font size = 20>Correct!</font></div></div><div class = prompt_box><p class = center-block-text style = ""font-size:16px; line-height:80%;"">Do not respond if a star appears!</p><p class = center-block-text style = ""font-size:16px; line-height:80%;"">Top 2 quadrants: Judge number on magnitude</p><p class = center-block-text style = ""font-size:16px; line-height:80%;"">high: M Key | low: Z Key</p><p class = center-block-text style = ""font-size:16px; line-height:80%;"">Bottom 2 quadrants: Judge number on parity</p><p class = center-block-text style = ""font-size:16px; line-height:80%;"">even: M Key | odd: Z Key</p></div>",,,,74769,0.0,practice-stop-feedback,49,poldrack-single-stim,,
50,,,,,,,,500.0,,,,,,stop_signal_with_predictable_task_switching,,,,,,0.0-0.0-50.0,-1.0,,,,none,,,,-1,500.0,<div class = bigbox><div class = quad_box><div class = decision-bottom-right><div class = fixation>+</div></div></div></div>,,,,75277,0.0,practice_fixation,50,poldrack-single-stim,,
51,350.0,500.0,500.0,500.0,<div class = bigbox><div class = quad_box><div class = decision-bottom-right><img class = center src='/static/experiments/stop_signal_with_predictable_task_switching/images/stopSignal.png'></img></div></div></div>,go,,2000.0,,77.0,1.0,0.0,17.0,stop_signal_with_predictable_task_switching,,,,,,0.0-0.0-51.0,77.0,high,6.0,even,"[77, 90]",switch,parity,,833,1000.0,<div class = bigbox><div class = quad_box><div class = decision-bottom-right><div class = gng_number><div class = cue-text><img class = center src='/static/experiments/stop_signal_with_predictable_task_switching/images/6.png'></img></div></div></div></div></div>,,go,,77282,0.0,practice_trial,51,stop-signal,,3.0
52,,,,,,,,500.0,,,,,,stop_signal_with_predictable_task_switching,,,,,,0.0-0.0-52.0,-1.0,,,,none,,,,-1,500.0,"<div class = fb_box><div class = center-text><font size = 20>Correct!</font></div></div><div class = prompt_box><p class = center-block-text style = ""font-size:16px; line-height:80%;"">Do not respond if a star appears!</p><p class = center-block-text style = ""font-size:16px; line-height:80%;"">Top 2 quadrants: Judge number on magnitude</p><p class = center-block-text style = ""font-size:16px; line-height:80%;"">high: M Key | low: Z Key</p><p class = center-block-text style = ""font-size:16px; line-height:80%;"">Bottom 2 quadrants: Judge number on parity</p><p class = center-block-text style = ""font-size:16px; line-height:80%;"">even: M Key | odd: Z Key</p></div>",,,,77786,0.0,practice-stop-feedback,52,poldrack-single-stim,,
53,,,,,,,,500.0,,,,,,stop_signal_with_predictable_task_switching,,,,,,0.0-0.0-53.0,-1.0,,,,none,,,,-1,500.0,<div class = bigbox><div class = quad_box><div class = decision-bottom-left><div class = fixation>+</div></div></div></div>,,,,78291,0.0,practice_fixation,53,poldrack-single-stim,,
54,350.0,500.0,350.0,500.0,<div class = bigbox><div class = quad_box><div class = decision-bottom-left><img class = center src='/static/experiments/stop_signal_with_predictable_task_switching/images/stopSignal.png'></img></div></div></div>,go,,2000.0,,90.0,1.0,0.0,18.0,stop_signal_with_predictable_task_switching,,,,,,0.0-0.0-54.0,90.0,low,3.0,odd,"[77, 90]",stay,parity,,519,1000.0,<div class = bigbox><div class = quad_box><div class = decision-bottom-left><div class = gng_number><div class = cue-text><img class = center src='/static/experiments/stop_signal_with_predictable_task_switching/images/3.png'></img></div></div></div></div></div>,,go,,80297,0.0,practice_trial,54,stop-signal,,4.0
55,,,,,,,,500.0,,,,,,stop_signal_with_predictable_task_switching,,,,,,0.0-0.0-55.0,-1.0,,,,none,,,,-1,500.0,"<div class = fb_box><div class = center-text><font size = 20>Correct!</font></div></div><div class = prompt_box><p class = center-block-text style = ""font-size:16px; line-height:80%;"">Do not respond if a star appears!</p><p class = center-block-text style = ""font-size:16px; line-height:80%;"">Top 2 quadrants: Judge number on magnitude</p><p class = center-block-text style = ""font-size:16px; line-height:80%;"">high: M Key | low: Z Key</p><p class = center-block-text style = ""font-size:16px; line-height:80%;"">Bottom 2 quadrants: Judge number on parity</p><p class = center-block-text style = ""font-size:16px; line-height:80%;"">even: M Key | odd: Z Key</p></div>",,,,80802,0.0,practice-stop-feedback,55,poldrack-single-stim,,
56,,,,,,,,500.0,,,,,,stop_signal_with_predictable_task_switching,,,,,,0.0-0.0-56.0,-1.0,,,,none,,,,-1,500.0,<div class = bigbox><div class = quad_box><div class = decision-top-left><div class = fixation>+</div></div></div></div>,,,,81307,0.0,practice_fixation,56,poldrack-single-stim,,
57,350.0,500.0,500.0,500.0,<div class = bigbox><div class = quad_box><div class = decision-top-left><img class = center src='/static/experiments/stop_signal_with_predictable_task_switching/images/stopSignal.png'></img></div></div></div>,go,,2000.0,,77.0,0.0,0.0,19.0,stop_signal_with_predictable_task_switching,,,,,,0.0-0.0-57.0,90.0,high,9.0,odd,"[77, 90]",switch,magnitude,,722,1000.0,<div class = bigbox><div class = quad_box><div class = decision-top-left><div class = gng_number><div class = cue-text><img class = center src='/static/experiments/stop_signal_with_predictable_task_switching/images/9.png'></img></div></div></div></div></div>,,go,,83312,0.0,practice_trial,57,stop-signal,,1.0
58,,,,,,,,500.0,,,,,,stop_signal_with_predictable_task_switching,,,,,,0.0-0.0-58.0,-1.0,,,,none,,,,-1,500.0,"<div class = fb_box><div class = center-text><font size = 20>Incorrect</font></div></div><div class = prompt_box><p class = center-block-text style = ""font-size:16px; line-height:80%;"">Do not respond if a star appears!</p><p class = center-block-text style = ""font-size:16px; line-height:80%;"">Top 2 quadrants: Judge number on magnitude</p><p class = center-block-text style = ""font-size:16px; line-height:80%;"">high: M Key | low: Z Key</p><p class = center-block-text style = ""font-size:16px; line-height:80%;"">Bottom 2 quadrants: Judge number on parity</p><p class = center-block-text style = ""font-size:16px; line-height:80%;"">even: M Key | odd: Z Key</p></div>",,,,83817,0.0,practice-stop-feedback,58,poldrack-single-stim,,
59,,,,,,,,500.0,,,,,,stop_signal_with_predictable_task_switching,,,,,,0.0-0.0-59.0,-1.0,,,,none,,,,-1,500.0,<div class = bigbox><div class = quad_box><div class = decision-top-right><div class = fixation>+</div></div></div></div>,,,,84322,0.0,practice_fixation,59,poldrack-single-stim,,
60,350.0,500.0,350.0,500.0,<div class = bigbox><div class = quad_box><div class = decision-top-right><img class = center src='/static/experiments/stop_signal_with_predictable_task_switching/images/stopSignal.png'></img></div></div></div>,go,,2000.0,,90.0,1.0,0.0,20.0,stop_signal_with_predictable_task_switching,,,,,,0.0-0.0-60.0,90.0,low,2.0,even,"[77, 90]",stay,magnitude,,595,1000.0,<div class = bigbox><div class = quad_box><div class = decision-top-right><div class = gng_number><div class = cue-text><img class = center src='/static/experiments/stop_signal_with_predictable_task_switching/images/2.png'></img></div></div></div></div></div>,,go,,86328,0.0,practice_trial,60,stop-signal,,2.0
61,,,,,,,,500.0,,,,,,stop_signal_with_predictable_task_switching,,,,,,0.0-0.0-61.0,-1.0,,,,none,,,,-1,500.0,"<div class = fb_box><div class = center-text><font size = 20>Correct!</font></div></div><div class = prompt_box><p class = center-block-text style = ""font-size:16px; line-height:80%;"">Do not respond if a star appears!</p><p class = center-block-text style = ""font-size:16px; line-height:80%;"">Top 2 quadrants: Judge number on magnitude</p><p class = center-block-text style = ""font-size:16px; line-height:80%;"">high: M Key | low: Z Key</p><p class = center-block-text style = ""font-size:16px; line-height:80%;"">Bottom 2 quadrants: Judge number on parity</p><p class = center-block-text style = ""font-size:16px; line-height:80%;"">even: M Key | odd: Z Key</p></div>",,,,86833,0.0,practice-stop-feedback,61,poldrack-single-stim,,
62,,,,,,,,500.0,,,,,,stop_signal_with_predictable_task_switching,,,,,,0.0-0.0-62.0,-1.0,,,,none,,,,-1,500.0,<div class = bigbox><div class = quad_box><div class = decision-bottom-right><div class = fixation>+</div></div></div></div>,,,,87337,0.0,practice_fixation,62,poldrack-single-stim,,
63,350.0,500.0,500.0,500.0,<div class = bigbox><div class = quad_box><div class = decision-bottom-right><img class = center src='/static/experiments/stop_signal_with_predictable_task_switching/images/stopSignal.png'></img></div></div></div>,stop,,2000.0,,-1.0,0.0,0.0,21.0,stop_signal_with_predictable_task_switching,,,,,,0.0-0.0-63.0,90.0,low,1.0,odd,"[77, 90]",switch,parity,,639,1000.0,<div class = bigbox><div class = quad_box><div class = decision-bottom-right><div class = gng_number><div class = cue-text><img class = center src='/static/experiments/stop_signal_with_predictable_task_switching/images/1.png'></img></div></div></div></div></div>,0.0,stop,,89342,0.0,practice_trial,63,stop-signal,,3.0
64,,,,,,,,500.0,,,,,,stop_signal_with_predictable_task_switching,,,,,,0.0-0.0-64.0,-1.0,,,,none,,,,-1,500.0,"<div class = fb_box><div class = center-text><font size = 20>There was a star.</font></div></div><div class = prompt_box><p class = center-block-text style = ""font-size:16px; line-height:80%;"">Do not respond if a star appears!</p><p class = center-block-text style = ""font-size:16px; line-height:80%;"">Top 2 quadrants: Judge number on magnitude</p><p class = center-block-text style = ""font-size:16px; line-height:80%;"">high: M Key | low: Z Key</p><p class = center-block-text style = ""font-size:16px; line-height:80%;"">Bottom 2 quadrants: Judge number on parity</p><p class = center-block-text style = ""font-size:16px; line-height:80%;"">even: M Key | odd: Z Key</p></div>",,,,89846,0.0,practice-stop-feedback,64,poldrack-single-stim,,
65,,,,,,,,500.0,,,,,,stop_signal_with_predictable_task_switching,,,,,,0.0-0.0-65.0,-1.0,,,,none,,,,-1,500.0,<div class = bigbox><div class = quad_box><div class = decision-bottom-left><div class = fixation>+</div></div></div></div>,,,,90350,0.0,practice_fixation,65,poldrack-single-stim,,
66,350.0,450.0,350.0,500.0,<div class = bigbox><div class = quad_box><div class = decision-bottom-left><img class = center src='/static/experiments/stop_signal_with_predictable_task_switching/images/stopSignal.png'></img></div></div></div>,stop,,2000.0,,-1.0,0.0,0.0,22.0,stop_signal_with_predictable_task_switching,,,,,,0.0-0.0-66.0,77.0,low,4.0,even,"[77, 90]",stay,parity,,587,1000.0,<div class = bigbox><div class = quad_box><div class = decision-bottom-left><div class = gng_number><div class = cue-text><img class = center src='/static/experiments/stop_signal_with_predictable_task_switching/images/4.png'></img></div></div></div></div></div>,0.0,stop,,92355,0.0,practice_trial,66,stop-signal,,4.0
67,,,,,,,,500.0,,,,,,stop_signal_with_predictable_task_switching,,,,,,0.0-0.0-67.0,-1.0,,,,none,,,,-1,500.0,"<div class = fb_box><div class = center-text><font size = 20>There was a star.</font></div></div><div class = prompt_box><p class = center-block-text style = ""font-size:16px; line-height:80%;"">Do not respond if a star appears!</p><p class = center-block-text style = ""font-size:16px; line-height:80%;"">Top 2 quadrants: Judge number on magnitude</p><p class = center-block-text style = ""font-size:16px; line-height:80%;"">high: M Key | low: Z Key</p><p class = center-block-text style = ""font-size:16px; line-height:80%;"">Bottom 2 quadrants: Judge number on parity</p><p class = center-block-text style = ""font-size:16px; line-height:80%;"">even: M Key | odd: Z Key</p></div>",,,,92860,0.0,practice-stop-feedback,67,poldrack-single-stim,,
68,,,,,,,,500.0,,,,,,stop_signal_with_predictable_task_switching,,,,,,0.0-0.0-68.0,-1.0,,,,none,,,,-1,500.0,<div class = bigbox><div class = quad_box><div class = decision-top-left><div class = fixation>+</div></div></div></div>,,,,93364,0.0,practice_fixation,68,poldrack-single-stim,,
69,300.0,450.0,450.0,500.0,<div class = bigbox><div class = quad_box><div class = decision-top-left><img class = center src='/static/experiments/stop_signal_with_predictable_task_switching/images/stopSignal.png'></img></div></div></div>,go,,2000.0,,90.0,1.0,0.0,23.0,stop_signal_with_predictable_task_switching,,,,,,0.0-0.0-69.0,90.0,low,1.0,odd,"[77, 90]",switch,magnitude,,545,1000.0,<div class = bigbox><div class = quad_box><div class = decision-top-left><div class = gng_number><div class = cue-text><img class = center src='/static/experiments/stop_signal_with_predictable_task_switching/images/1.png'></img></div></div></div></div></div>,,go,,95368,0.0,practice_trial,69,stop-signal,,1.0
70,,,,,,,,500.0,,,,,,stop_signal_with_predictable_task_switching,,,,,,0.0-0.0-70.0,-1.0,,,,none,,,,-1,500.0,"<div class = fb_box><div class = center-text><font size = 20>Correct!</font></div></div><div class = prompt_box><p class = center-block-text style = ""font-size:16px; line-height:80%;"">Do not respond if a star appears!</p><p class = center-block-text style = ""font-size:16px; line-height:80%;"">Top 2 quadrants: Judge number on magnitude</p><p class = center-block-text style = ""font-size:16px; line-height:80%;"">high: M Key | low: Z Key</p><p class = center-block-text style = ""font-size:16px; line-height:80%;"">Bottom 2 quadrants: Judge number on parity</p><p class = center-block-text style = ""font-size:16px; line-height:80%;"">even: M Key | odd: Z Key</p></div>",,,,95872,0.0,practice-stop-feedback,70,poldrack-single-stim,,
71,,,,,,,,500.0,,,,,,stop_signal_with_predictable_task_switching,,,,,,0.0-0.0-71.0,-1.0,,,,none,,,,-1,500.0,<div class = bigbox><div class = quad_box><div class = decision-top-right><div class = fixation>+</div></div></div></div>,,,,96377,0.0,practice_fixation,71,poldrack-single-stim,,
72,300.0,450.0,300.0,500.0,<div class = bigbox><div class = quad_box><div class = decision-top-right><img class = center src='/static/experiments/stop_signal_with_predictable_task_switching/images/stopSignal.png'></img></div></div></div>,stop,,2000.0,,-1.0,0.0,0.0,24.0,stop_signal_with_predictable_task_switching,,,,,,0.0-0.0-72.0,90.0,low,1.0,odd,"[77, 90]",stay,magnitude,,544,1000.0,<div class = bigbox><div class = quad_box><div class = decision-top-right><div class = gng_number><div class = cue-text><img class = center src='/static/experiments/stop_signal_with_predictable_task_switching/images/1.png'></img></div></div></div></div></div>,0.0,stop,,98382,0.0,practice_trial,72,stop-signal,,2.0
73,,,,,,,,500.0,,,,,,stop_signal_with_predictable_task_switching,,,,,,0.0-0.0-73.0,-1.0,,,,none,,,,-1,500.0,"<div class = fb_box><div class = center-text><font size = 20>There was a star.</font></div></div><div class = prompt_box><p class = center-block-text style = ""font-size:16px; line-height:80%;"">Do not respond if a star appears!</p><p class = center-block-text style = ""font-size:16px; line-height:80%;"">Top 2 quadrants: Judge number on magnitude</p><p class = center-block-text style = ""font-size:16px; line-height:80%;"">high: M Key | low: Z Key</p><p class = center-block-text style = ""font-size:16px; line-height:80%;"">Bottom 2 quadrants: Judge number on parity</p><p class = center-block-text style = ""font-size:16px; line-height:80%;"">even: M Key | odd: Z Key</p></div>",,,,98886,0.0,practice-stop-feedback,73,poldrack-single-stim,,
74,,,,,,,,500.0,,,,,,stop_signal_with_predictable_task_switching,,,,,,0.0-0.0-74.0,-1.0,,,,none,,,,-1,500.0,<div class = bigbox><div class = quad_box><div class = decision-bottom-right><div class = fixation>+</div></div></div></div>,,,,99391,0.0,practice_fixation,74,poldrack-single-stim,,
75,250.0,450.0,450.0,500.0,<div class = bigbox><div class = quad_box><div class = decision-bottom-right><img class = center src='/static/experiments/stop_signal_with_predictable_task_switching/images/stopSignal.png'></img></div></div></div>,go,,2000.0,,90.0,0.0,0.0,25.0,stop_signal_with_predictable_task_switching,,,,,,0.0-0.0-75.0,77.0,high,9.0,odd,"[77, 90]",switch,parity,,593,1000.0,<div class = bigbox><div class = quad_box><div class = decision-bottom-right><div class = gng_number><div class = cue-text><img class = center src='/static/experiments/stop_signal_with_predictable_task_switching/images/9.png'></img></div></div></div></div></div>,,go,,101396,0.0,practice_trial,75,stop-signal,,3.0
76,,,,,,,,500.0,,,,,,stop_signal_with_predictable_task_switching,,,,,,0.0-0.0-76.0,-1.0,,,,none,,,,-1,500.0,"<div class = fb_box><div class = center-text><font size = 20>Incorrect</font></div></div><div class = prompt_box><p class = center-block-text style = ""font-size:16px; line-height:80%;"">Do not respond if a star appears!</p><p class = center-block-text style = ""font-size:16px; line-height:80%;"">Top 2 quadrants: Judge number on magnitude</p><p class = center-block-text style = ""font-size:16px; line-height:80%;"">high: M Key | low: Z Key</p><p class = center-block-text style = ""font-size:16px; line-height:80%;"">Bottom 2 quadrants: Judge number on parity</p><p class = center-block-text style = ""font-size:16px; line-height:80%;"">even: M Key | odd: Z Key</p></div>",,,,101900,0.0,practice-stop-feedback,76,poldrack-single-stim,,
77,,,,,,,,5270.0,,,,,,stop_signal_with_predictable_task_switching,,,,,,0.0-1.0,13.0,,,,[13],,,,5270,5270.0,<div class = bigbox><div class = picture_box><p class = block-text><br>Please take this time to read your feedback and to take a short break! Press enter to continue</p><p class = block-text>Done with this practice. Press Enter to continue.</p></div></div>,,,,107183,0.0,feedback_block,77,poldrack-single-stim,,
78,,,,,,,,3966.0,,,,,,stop_signal_with_predictable_task_switching,,,,,,0.0-2.0,13.0,,,,,,,,3966,,,,,"<div class = centerbox><p class = block-text>We will now start the test portion</p><p class = block-text>Please judge the number on magnitude (higher or lower than 5) or parity (odd or even), depending on which quadrant the numbers are in.</p><p class = block-text>In the top two quadrants, please judge the number based on <i>magnitude</i>. Press the <i>M Key  if high</i>, and the <i>Z Key  if low</i>.</p><p class = block-text>In the bottom two quadrants, please judge the number based on <i>parity.</i> Press the <i>M Key if even</i>, and the <i>Z Key if odd</i>.</p><p class = block-text>On some trials, you will see a star appear at the same time, or shortly after, the number. <i>Do not respond if you see a star.</i>  Do not slow down your responses in order to wait for the star.</p><p class = block-text>You will no longer receive the rule prompt, so remember the instructions before you continue. Press Enter to begin.</p></div>",111153,1000.0,instruction,78,poldrack-text,,
79,,,,,,,,1721.0,,,,,,stop_signal_with_predictable_task_switching,,,,,,0.0-3.0-0.0,13.0,,,,[13],,,,1721,1721.0,<div class = bigbox><div class = picture_box><p class = block-text>We will now start the test portion. Press enter to begin.</p></div></div>,,,,113878,0.0,feedback_block,79,poldrack-single-stim,,
80,,,,,,,,2354.0,True,39.0,,,,stop_signal_with_predictable_task_switching,,,,,,0.0-3.0-1.0-0.0,39.0,,,,[],,,,2354,2354.0,<p>Press the Right Arrow</p>,,,,116237,200.0,attention_check,80,attention-check,,
81,,,,,,,,500.0,,,,,,stop_signal_with_predictable_task_switching,,,,,,0.0-3.0-2.0,-1.0,,,,none,,,,-1,500.0,<div class = bigbox><div class = quad_box><div class = decision-top-left><div class = fixation>+</div></div></div></div>,,,,116942,0.0,test_fixation,81,poldrack-single-stim,,
82,250.0,450.0,,500.0,<div class = bigbox><div class = quad_box><div class = decision-top-left><img class = center src='/static/experiments/stop_signal_with_predictable_task_switching/images/stopSignal.png'></img></div></div></div>,go,,2000.0,,77.0,1.0,0.0,1.0,stop_signal_with_predictable_task_switching,,,,,,0.0-3.0-3.0,77.0,high,6.0,even,"[77, 90]",N/A,magnitude,,793,1000.0,<div class = bigbox><div class = quad_box><div class = decision-top-left><div class = gng_number><div class = cue-text><img class = center src='/static/experiments/stop_signal_with_predictable_task_switching/images/6.png'></img></div></div></div></div></div>,,go,,118947,0.0,test_trial,82,stop-signal,,1.0
83,,,,,,,,500.0,,,,,,stop_signal_with_predictable_task_switching,,,,,,0.0-3.0-4.0,-1.0,,,,none,,,,-1,500.0,<div class = bigbox><div class = quad_box><div class = decision-top-right><div class = fixation>+</div></div></div></div>,,,,119452,0.0,test_fixation,83,poldrack-single-stim,,
84,250.0,450.0,250.0,500.0,<div class = bigbox><div class = quad_box><div class = decision-top-right><img class = center src='/static/experiments/stop_signal_with_predictable_task_switching/images/stopSignal.png'></img></div></div></div>,stop,,2000.0,,-1.0,0.0,0.0,2.0,stop_signal_with_predictable_task_switching,,,,,,0.0-3.0-5.0,77.0,high,7.0,odd,"[77, 90]",stay,magnitude,,592,1000.0,<div class = bigbox><div class = quad_box><div class = decision-top-right><div class = gng_number><div class = cue-text><img class = center src='/static/experiments/stop_signal_with_predictable_task_switching/images/7.png'></img></div></div></div></div></div>,0.0,stop,,121456,0.0,test_trial,84,stop-signal,,2.0
85,,,,,,,,500.0,,,,,,stop_signal_with_predictable_task_switching,,,,,,0.0-3.0-6.0,-1.0,,,,none,,,,-1,500.0,<div class = bigbox><div class = quad_box><div class = decision-bottom-right><div class = fixation>+</div></div></div></div>,,,,121960,0.0,test_fixation,85,poldrack-single-stim,,
86,200.0,450.0,450.0,500.0,<div class = bigbox><div class = quad_box><div class = decision-bottom-right><img class = center src='/static/experiments/stop_signal_with_predictable_task_switching/images/stopSignal.png'></img></div></div></div>,go,,2000.0,,77.0,1.0,0.0,3.0,stop_signal_with_predictable_task_switching,,,,,,0.0-3.0-7.0,77.0,high,6.0,even,"[77, 90]",switch,parity,,806,1000.0,<div class = bigbox><div class = quad_box><div class = decision-bottom-right><div class = gng_number><div class = cue-text><img class = center src='/static/experiments/stop_signal_with_predictable_task_switching/images/6.png'></img></div></div></div></div></div>,,go,,123965,0.0,test_trial,86,stop-signal,,3.0
87,,,,,,,,500.0,,,,,,stop_signal_with_predictable_task_switching,,,,,,0.0-3.0-8.0,-1.0,,,,none,,,,-1,500.0,<div class = bigbox><div class = quad_box><div class = decision-bottom-left><div class = fixation>+</div></div></div></div>,,,,124469,0.0,test_fixation,87,poldrack-single-stim,,
88,200.0,450.0,200.0,500.0,<div class = bigbox><div class = quad_box><div class = decision-bottom-left><img class = center src='/static/experiments/stop_signal_with_predictable_task_switching/images/stopSignal.png'></img></div></div></div>,go,,2000.0,,90.0,1.0,0.0,4.0,stop_signal_with_predictable_task_switching,,,,,,0.0-3.0-9.0,90.0,high,9.0,odd,"[77, 90]",stay,parity,,816,1000.0,<div class = bigbox><div class = quad_box><div class = decision-bottom-left><div class = gng_number><div class = cue-text><img class = center src='/static/experiments/stop_signal_with_predictable_task_switching/images/9.png'></img></div></div></div></div></div>,,go,,126473,0.0,test_trial,88,stop-signal,,4.0
89,,,,,,,,500.0,,,,,,stop_signal_with_predictable_task_switching,,,,,,0.0-3.0-10.0,-1.0,,,,none,,,,-1,500.0,<div class = bigbox><div class = quad_box><div class = decision-top-left><div class = fixation>+</div></div></div></div>,,,,126977,0.0,test_fixation,89,poldrack-single-stim,,
90,200.0,450.0,450.0,500.0,<div class = bigbox><div class = quad_box><div class = decision-top-left><img class = center src='/static/experiments/stop_signal_with_predictable_task_switching/images/stopSignal.png'></img></div></div></div>,stop,,2000.0,,-1.0,0.0,0.0,5.0,stop_signal_with_predictable_task_switching,,,,,,0.0-3.0-11.0,90.0,low,1.0,odd,"[77, 90]",switch,magnitude,,575,1000.0,<div class = bigbox><div class = quad_box><div class = decision-top-left><div class = gng_number><div class = cue-text><img class = center src='/static/experiments/stop_signal_with_predictable_task_switching/images/1.png'></img></div></div></div></div></div>,0.0,stop,,128981,0.0,test_trial,90,stop-signal,,1.0
91,,,,,,,,500.0,,,,,,stop_signal_with_predictable_task_switching,,,,,,0.0-3.0-12.0,-1.0,,,,none,,,,-1,500.0,<div class = bigbox><div class = quad_box><div class = decision-top-right><div class = fixation>+</div></div></div></div>,,,,129485,0.0,test_fixation,91,poldrack-single-stim,,
92,200.0,400.0,200.0,500.0,<div class = bigbox><div class = quad_box><div class = decision-top-right><img class = center src='/static/experiments/stop_signal_with_predictable_task_switching/images/stopSignal.png'></img></div></div></div>,go,,2000.0,,77.0,1.0,0.0,6.0,stop_signal_with_predictable_task_switching,,,,,,0.0-3.0-13.0,77.0,high,8.0,even,"[77, 90]",stay,magnitude,,578,1000.0,<div class = bigbox><div class = quad_box><div class = decision-top-right><div class = gng_number><div class = cue-text><img class = center src='/static/experiments/stop_signal_with_predictable_task_switching/images/8.png'></img></div></div></div></div></div>,,go,,131493,0.0,test_trial,92,stop-signal,,2.0
93,,,,,,,,500.0,,,,,,stop_signal_with_predictable_task_switching,,,,,,0.0-3.0-14.0,-1.0,,,,none,,,,-1,500.0,<div class = bigbox><div class = quad_box><div class = decision-bottom-right><div class = fixation>+</div></div></div></div>,,,,131997,0.0,test_fixation,93,poldrack-single-stim,,
94,200.0,400.0,400.0,500.0,<div class = bigbox><div class = quad_box><div class = decision-bottom-right><img class = center src='/static/experiments/stop_signal_with_predictable_task_switching/images/stopSignal.png'></img></div></div></div>,stop,,2000.0,,-1.0,0.0,0.0,7.0,stop_signal_with_predictable_task_switching,,,,,,0.0-3.0-15.0,90.0,high,9.0,odd,"[77, 90]",switch,parity,,648,1000.0,<div class = bigbox><div class = quad_box><div class = decision-bottom-right><div class = gng_number><div class = cue-text><img class = center src='/static/experiments/stop_signal_with_predictable_task_switching/images/9.png'></img></div></div></div></div></div>,0.0,stop,,134001,0.0,test_trial,94,stop-signal,,3.0
95,,,,,,,,500.0,,,,,,stop_signal_with_predictable_task_switching,,,,,,0.0-3.0-16.0,-1.0,,,,none,,,,-1,500.0,<div class = bigbox><div class = quad_box><div class = decision-bottom-left><div class = fixation>+</div></div></div></div>,,,,134505,0.0,test_fixation,95,poldrack-single-stim,,
96,200.0,350.0,200.0,500.0,<div class = bigbox><div class = quad_box><div class = decision-bottom-left><img class = center src='/static/experiments/stop_signal_with_predictable_task_switching/images/stopSignal.png'></img></div></div></div>,go,,2000.0,,77.0,1.0,0.0,8.0,stop_signal_with_predictable_task_switching,,,,,,0.0-3.0-17.0,77.0,low,2.0,even,"[77, 90]",stay,parity,,653,1000.0,<div class = bigbox><div class = quad_box><div class = decision-bottom-left><div class = gng_number><div class = cue-text><img class = center src='/static/experiments/stop_signal_with_predictable_task_switching/images/2.png'></img></div></div></div></div></div>,,go,,136509,0.0,test_trial,96,stop-signal,,4.0
97,,,,,,,,500.0,,,,,,stop_signal_with_predictable_task_switching,,,,,,0.0-3.0-18.0,-1.0,,,,none,,,,-1,500.0,<div class = bigbox><div class = quad_box><div class = decision-top-left><div class = fixation>+</div></div></div></div>,,,,137013,0.0,test_fixation,97,poldrack-single-stim,,
98,200.0,350.0,350.0,500.0,<div class = bigbox><div class = quad_box><div class = decision-top-left><img class = center src='/static/experiments/stop_signal_with_predictable_task_switching/images/stopSignal.png'></img></div></div></div>,stop,,2000.0,,-1.0,1.0,0.0,9.0,stop_signal_with_predictable_task_switching,,,,,,0.0-3.0-19.0,-1.0,low,4.0,even,"[77, 90]",switch,magnitude,,-1,1000.0,<div class = bigbox><div class = quad_box><div class = decision-top-left><div class = gng_number><div class = cue-text><img class = center src='/static/experiments/stop_signal_with_predictable_task_switching/images/4.png'></img></div></div></div></div></div>,1.0,stop,,139017,0.0,test_trial,98,stop-signal,,1.0
99,,,,,,,,500.0,,,,,,stop_signal_with_predictable_task_switching,,,,,,0.0-3.0-20.0,-1.0,,,,none,,,,-1,500.0,<div class = bigbox><div class = quad_box><div class = decision-top-right><div class = fixation>+</div></div></div></div>,,,,139526,0.0,test_fixation,99,poldrack-single-stim,,
100,200.0,400.0,200.0,500.0,<div class = bigbox><div class = quad_box><div class = decision-top-right><img class = center src='/static/experiments/stop_signal_with_predictable_task_switching/images/stopSignal.png'></img></div></div></div>,go,,2000.0,,90.0,1.0,0.0,10.0,stop_signal_with_predictable_task_switching,,,,,,0.0-3.0-21.0,90.0,low,3.0,odd,"[77, 90]",stay,magnitude,,572,1000.0,<div class = bigbox><div class = quad_box><div class = decision-top-right><div class = gng_number><div class = cue-text><img class = center src='/static/experiments/stop_signal_with_predictable_task_switching/images/3.png'></img></div></div></div></div></div>,,go,,141531,0.0,test_trial,100,stop-signal,,2.0
101,,,,,,,,500.0,,,,,,stop_signal_with_predictable_task_switching,,,,,,0.0-3.0-22.0,-1.0,,,,none,,,,-1,500.0,<div class = bigbox><div class = quad_box><div class = decision-bottom-right><div class = fixation>+</div></div></div></div>,,,,142035,0.0,test_fixation,101,poldrack-single-stim,,
102,200.0,400.0,400.0,500.0,<div class = bigbox><div class = quad_box><div class = decision-bottom-right><img class = center src='/static/experiments/stop_signal_with_predictable_task_switching/images/stopSignal.png'></img></div></div></div>,go,,2000.0,,90.0,1.0,0.0,11.0,stop_signal_with_predictable_task_switching,,,,,,0.0-3.0-23.0,90.0,low,1.0,odd,"[77, 90]",switch,parity,,618,1000.0,<div class = bigbox><div class = quad_box><div class = decision-bottom-right><div class = gng_number><div class = cue-text><img class = center src='/static/experiments/stop_signal_with_predictable_task_switching/images/1.png'></img></div></div></div></div></div>,,go,,144039,0.0,test_trial,102,stop-signal,,3.0
103,,,,,,,,500.0,,,,,,stop_signal_with_predictable_task_switching,,,,,,0.0-3.0-24.0,-1.0,,,,none,,,,-1,500.0,<div class = bigbox><div class = quad_box><div class = decision-bottom-left><div class = fixation>+</div></div></div></div>,,,,144543,0.0,test_fixation,103,poldrack-single-stim,,
104,200.0,400.0,200.0,500.0,<div class = bigbox><div class = quad_box><div class = decision-bottom-left><img class = center src='/static/experiments/stop_signal_with_predictable_task_switching/images/stopSignal.png'></img></div></div></div>,stop,,2000.0,,-1.0,1.0,0.0,12.0,stop_signal_with_predictable_task_switching,,,,,,0.0-3.0-25.0,-1.0,high,7.0,odd,"[77, 90]",stay,parity,,-1,1000.0,<div class = bigbox><div class = quad_box><div class = decision-bottom-left><div class = gng_number><div class = cue-text><img class = center src='/static/experiments/stop_signal_with_predictable_task_switching/images/7.png'></img></div></div></div></div></div>,1.0,stop,,146547,0.0,test_trial,104,stop-signal,,4.0
105,,,,,,,,500.0,,,,,,stop_signal_with_predictable_task_switching,,,,,,0.0-3.0-26.0,-1.0,,,,none,,,,-1,500.0,<div class = bigbox><div class = quad_box><div class = decision-top-left><div class = fixation>+</div></div></div></div>,,,,147051,0.0,test_fixation,105,poldrack-single-stim,,
106,250.0,400.0,400.0,500.0,<div class = bigbox><div class = quad_box><div class = decision-top-left><img class = center src='/static/experiments/stop_signal_with_predictable_task_switching/images/stopSignal.png'></img></div></div></div>,go,,2000.0,,77.0,1.0,0.0,13.0,stop_signal_with_predictable_task_switching,,,,,,0.0-3.0-27.0,77.0,high,9.0,odd,"[77, 90]",switch,magnitude,,903,1000.0,<div class = bigbox><div class = quad_box><div class = decision-top-left><div class = gng_number><div class = cue-text><img class = center src='/static/experiments/stop_signal_with_predictable_task_switching/images/9.png'></img></div></div></div></div></div>,,go,,149056,0.0,test_trial,106,stop-signal,,1.0
107,,,,,,,,500.0,,,,,,stop_signal_with_predictable_task_switching,,,,,,0.0-3.0-28.0,-1.0,,,,none,,,,-1,500.0,<div class = bigbox><div class = quad_box><div class = decision-top-right><div class = fixation>+</div></div></div></div>,,,,149562,0.0,test_fixation,107,poldrack-single-stim,,
108,250.0,400.0,250.0,500.0,<div class = bigbox><div class = quad_box><div class = decision-top-right><img class = center src='/static/experiments/stop_signal_with_predictable_task_switching/images/stopSignal.png'></img></div></div></div>,go,,2000.0,,77.0,1.0,0.0,14.0,stop_signal_with_predictable_task_switching,,,,,,0.0-3.0-29.0,77.0,high,8.0,even,"[77, 90]",stay,magnitude,,530,1000.0,<div class = bigbox><div class = quad_box><div class = decision-top-right><div class = gng_number><div class = cue-text><img class = center src='/static/experiments/stop_signal_with_predictable_task_switching/images/8.png'></img></div></div></div></div></div>,,go,,151566,0.0,test_trial,108,stop-signal,,2.0
109,,,,,,,,500.0,,,,,,stop_signal_with_predictable_task_switching,,,,,,0.0-3.0-30.0,-1.0,,,,none,,,,-1,500.0,<div class = bigbox><div class = quad_box><div class = decision-bottom-right><div class = fixation>+</div></div></div></div>,,,,152069,0.0,test_fixation,109,poldrack-single-stim,,
110,250.0,400.0,400.0,500.0,<div class = bigbox><div class = quad_box><div class = decision-bottom-right><img class = center src='/static/experiments/stop_signal_with_predictable_task_switching/images/stopSignal.png'></img></div></div></div>,stop,,2000.0,,-1.0,0.0,0.0,15.0,stop_signal_with_predictable_task_switching,,,,,,0.0-3.0-31.0,90.0,low,3.0,odd,"[77, 90]",switch,parity,,566,1000.0,<div class = bigbox><div class = quad_box><div class = decision-bottom-right><div class = gng_number><div class = cue-text><img class = center src='/static/experiments/stop_signal_with_predictable_task_switching/images/3.png'></img></div></div></div></div></div>,0.0,stop,,154081,0.0,test_trial,110,stop-signal,,3.0
111,,,,,,,,500.0,,,,,,stop_signal_with_predictable_task_switching,,,,,,0.0-3.0-32.0,-1.0,,,,none,,,,-1,500.0,<div class = bigbox><div class = quad_box><div class = decision-bottom-left><div class = fixation>+</div></div></div></div>,,,,154584,0.0,test_fixation,111,poldrack-single-stim,,
112,250.0,350.0,250.0,500.0,<div class = bigbox><div class = quad_box><div class = decision-bottom-left><img class = center src='/static/experiments/stop_signal_with_predictable_task_switching/images/stopSignal.png'></img></div></div></div>,go,,2000.0,,90.0,0.0,0.0,16.0,stop_signal_with_predictable_task_switching,,,,,,0.0-3.0-33.0,77.0,high,7.0,odd,"[77, 90]",stay,parity,,958,1000.0,<div class = bigbox><div class = quad_box><div class = decision-bottom-left><div class = gng_number><div class = cue-text><img class = center src='/static/experiments/stop_signal_with_predictable_task_switching/images/7.png'></img></div></div></div></div></div>,,go,,156588,0.0,test_trial,112,stop-signal,,4.0
113,,,,,,,,500.0,,,,,,stop_signal_with_predictable_task_switching,,,,,,0.0-3.0-34.0,-1.0,,,,none,,,,-1,500.0,<div class = bigbox><div class = quad_box><div class = decision-top-left><div class = fixation>+</div></div></div></div>,,,,157093,0.0,test_fixation,113,poldrack-single-stim,,
114,250.0,350.0,350.0,500.0,<div class = bigbox><div class = quad_box><div class = decision-top-left><img class = center src='/static/experiments/stop_signal_with_predictable_task_switching/images/stopSignal.png'></img></div></div></div>,go,,2000.0,,90.0,1.0,0.0,17.0,stop_signal_with_predictable_task_switching,,,,,,0.0-3.0-35.0,90.0,low,3.0,odd,"[77, 90]",switch,magnitude,,788,1000.0,<div class = bigbox><div class = quad_box><div class = decision-top-left><div class = gng_number><div class = cue-text><img class = center src='/static/experiments/stop_signal_with_predictable_task_switching/images/3.png'></img></div></div></div></div></div>,,go,,159097,0.0,test_trial,114,stop-signal,,1.0
115,,,,,,,,500.0,,,,,,stop_signal_with_predictable_task_switching,,,,,,0.0-3.0-36.0,-1.0,,,,none,,,,-1,500.0,<div class = bigbox><div class = quad_box><div class = decision-top-right><div class = fixation>+</div></div></div></div>,,,,159602,0.0,test_fixation,115,poldrack-single-stim,,
116,250.0,350.0,250.0,500.0,<div class = bigbox><div class = quad_box><div class = decision-top-right><img class = center src='/static/experiments/stop_signal_with_predictable_task_switching/images/stopSignal.png'></img></div></div></div>,stop,,2000.0,,-1.0,1.0,0.0,18.0,stop_signal_with_predictable_task_switching,,,,,,0.0-3.0-37.0,-1.0,high,8.0,even,"[77, 90]",stay,magnitude,,-1,1000.0,<div class = bigbox><div class = quad_box><div class = decision-top-right><div class = gng_number><div class = cue-text><img class = center src='/static/experiments/stop_signal_with_predictable_task_switching/images/8.png'></img></div></div></div></div></div>,1.0,stop,,161606,0.0,test_trial,116,stop-signal,,2.0
117,,,,,,,,500.0,,,,,,stop_signal_with_predictable_task_switching,,,,,,0.0-3.0-38.0,-1.0,,,,none,,,,-1,500.0,<div class = bigbox><div class = quad_box><div class = decision-bottom-right><div class = fixation>+</div></div></div></div>,,,,162110,0.0,test_fixation,117,poldrack-single-stim,,
118,300.0,350.0,350.0,500.0,<div class = bigbox><div class = quad_box><div class = decision-bottom-right><img class = center src='/static/experiments/stop_signal_with_predictable_task_switching/images/stopSignal.png'></img></div></div></div>,stop,,2000.0,,-1.0,0.0,0.0,19.0,stop_signal_with_predictable_task_switching,,,,,,0.0-3.0-39.0,77.0,high,8.0,even,"[77, 90]",switch,parity,,613,1000.0,<div class = bigbox><div class = quad_box><div class = decision-bottom-right><div class = gng_number><div class = cue-text><img class = center src='/static/experiments/stop_signal_with_predictable_task_switching/images/8.png'></img></div></div></div></div></div>,0.0,stop,,164114,0.0,test_trial,118,stop-signal,,3.0
119,,,,,,,,500.0,,,,,,stop_signal_with_predictable_task_switching,,,,,,0.0-3.0-40.0,-1.0,,,,none,,,,-1,500.0,<div class = bigbox><div class = quad_box><div class = decision-bottom-left><div class = fixation>+</div></div></div></div>,,,,164618,0.0,test_fixation,119,poldrack-single-stim,,
120,300.0,300.0,300.0,500.0,<div class = bigbox><div class = quad_box><div class = decision-bottom-left><img class = center src='/static/experiments/stop_signal_with_predictable_task_switching/images/stopSignal.png'></img></div></div></div>,stop,,2000.0,,-1.0,0.0,0.0,20.0,stop_signal_with_predictable_task_switching,,,,,,0.0-3.0-41.0,90.0,high,6.0,even,"[77, 90]",stay,parity,,603,1000.0,<div class = bigbox><div class = quad_box><div class = decision-bottom-left><div class = gng_number><div class = cue-text><img class = center src='/static/experiments/stop_signal_with_predictable_task_switching/images/6.png'></img></div></div></div></div></div>,0.0,stop,,166624,0.0,test_trial,120,stop-signal,,4.0
121,,,,,,,,500.0,,,,,,stop_signal_with_predictable_task_switching,,,,,,0.0-3.0-42.0,-1.0,,,,none,,,,-1,500.0,<div class = bigbox><div class = quad_box><div class = decision-top-left><div class = fixation>+</div></div></div></div>,,,,167127,0.0,test_fixation,121,poldrack-single-stim,,
122,250.0,300.0,300.0,500.0,<div class = bigbox><div class = quad_box><div class = decision-top-left><img class = center src='/static/experiments/stop_signal_with_predictable_task_switching/images/stopSignal.png'></img></div></div></div>,go,,2000.0,,77.0,0.0,0.0,21.0,stop_signal_with_predictable_task_switching,,,,,,0.0-3.0-43.0,90.0,high,6.0,even,"[77, 90]",switch,magnitude,,839,1000.0,<div class = bigbox><div class = quad_box><div class = decision-top-left><div class = gng_number><div class = cue-text><img class = center src='/static/experiments/stop_signal_with_predictable_task_switching/images/6.png'></img></div></div></div></div></div>,,go,,169132,0.0,test_trial,122,stop-signal,,1.0
123,,,,,,,,500.0,,,,,,stop_signal_with_predictable_task_switching,,,,,,0.0-3.0-44.0,-1.0,,,,none,,,,-1,500.0,<div class = bigbox><div class = quad_box><div class = decision-top-right><div class = fixation>+</div></div></div></div>,,,,169636,0.0,test_fixation,123,poldrack-single-stim,,
124,250.0,300.0,250.0,500.0,<div class = bigbox><div class = quad_box><div class = decision-top-right><img class = center src='/static/experiments/stop_signal_with_predictable_task_switching/images/stopSignal.png'></img></div></div></div>,stop,,2000.0,,-1.0,0.0,0.0,22.0,stop_signal_with_predictable_task_switching,,,,,,0.0-3.0-45.0,77.0,high,6.0,even,"[77, 90]",stay,magnitude,,465,1000.0,<div class = bigbox><div class = quad_box><div class = decision-top-right><div class = gng_number><div class = cue-text><img class = center src='/static/experiments/stop_signal_with_predictable_task_switching/images/6.png'></img></div></div></div></div></div>,0.0,stop,,171640,0.0,test_trial,124,stop-signal,,2.0
125,,,,,,,,500.0,,,,,,stop_signal_with_predictable_task_switching,,,,,,0.0-3.0-46.0,-1.0,,,,none,,,,-1,500.0,<div class = bigbox><div class = quad_box><div class = decision-bottom-right><div class = fixation>+</div></div></div></div>,,,,172145,0.0,test_fixation,125,poldrack-single-stim,,
126,200.0,300.0,300.0,500.0,<div class = bigbox><div class = quad_box><div class = decision-bottom-right><img class = center src='/static/experiments/stop_signal_with_predictable_task_switching/images/stopSignal.png'></img></div></div></div>,go,,2000.0,,77.0,0.0,0.0,23.0,stop_signal_with_predictable_task_switching,,,,,,0.0-3.0-47.0,90.0,low,2.0,even,"[77, 90]",switch,parity,,579,1000.0,<div class = bigbox><div class = quad_box><div class = decision-bottom-right><div class = gng_number><div class = cue-text><img class = center src='/static/experiments/stop_signal_with_predictable_task_switching/images/2.png'></img></div></div></div></div></div>,,go,,174149,0.0,test_trial,126,stop-signal,,3.0
127,,,,,,,,500.0,,,,,,stop_signal_with_predictable_task_switching,,,,,,0.0-3.0-48.0,-1.0,,,,none,,,,-1,500.0,<div class = bigbox><div class = quad_box><div class = decision-bottom-left><div class = fixation>+</div></div></div></div>,,,,174653,0.0,test_fixation,127,poldrack-single-stim,,
128,200.0,300.0,200.0,500.0,<div class = bigbox><div class = quad_box><div class = decision-bottom-left><img class = center src='/static/experiments/stop_signal_with_predictable_task_switching/images/stopSignal.png'></img></div></div></div>,go,,2000.0,,90.0,1.0,0.0,24.0,stop_signal_with_predictable_task_switching,,,,,,0.0-3.0-49.0,90.0,high,7.0,odd,"[77, 90]",stay,parity,,999,1000.0,<div class = bigbox><div class = quad_box><div class = decision-bottom-left><div class = gng_number><div class = cue-text><img class = center src='/static/experiments/stop_signal_with_predictable_task_switching/images/7.png'></img></div></div></div></div></div>,,go,,176657,0.0,test_trial,128,stop-signal,,4.0
129,,,,,,,,500.0,,,,,,stop_signal_with_predictable_task_switching,,,,,,0.0-3.0-50.0,-1.0,,,,none,,,,-1,500.0,<div class = bigbox><div class = quad_box><div class = decision-top-left><div class = fixation>+</div></div></div></div>,,,,177162,0.0,test_fixation,129,poldrack-single-stim,,
130,200.0,300.0,300.0,500.0,<div class = bigbox><div class = quad_box><div class = decision-top-left><img class = center src='/static/experiments/stop_signal_with_predictable_task_switching/images/stopSignal.png'></img></div></div></div>,stop,,2000.0,,-1.0,1.0,0.0,25.0,stop_signal_with_predictable_task_switching,,,,,,0.0-3.0-51.0,-1.0,low,1.0,odd,"[77, 90]",switch,magnitude,,-1,1000.0,<div class = bigbox><div class = quad_box><div class = decision-top-left><div class = gng_number><div class = cue-text><img class = center src='/static/experiments/stop_signal_with_predictable_task_switching/images/1.png'></img></div></div></div></div></div>,1.0,stop,,179166,0.0,test_trial,130,stop-signal,,1.0
131,,,,,,,,500.0,,,,,,stop_signal_with_predictable_task_switching,,,,,,0.0-3.0-52.0,-1.0,,,,none,,,,-1,500.0,<div class = bigbox><div class = quad_box><div class = decision-top-right><div class = fixation>+</div></div></div></div>,,,,179670,0.0,test_fixation,131,poldrack-single-stim,,
132,200.0,350.0,200.0,500.0,<div class = bigbox><div class = quad_box><div class = decision-top-right><img class = center src='/static/experiments/stop_signal_with_predictable_task_switching/images/stopSignal.png'></img></div></div></div>,go,,2000.0,,90.0,1.0,0.0,26.0,stop_signal_with_predictable_task_switching,,,,,,0.0-3.0-53.0,90.0,low,1.0,odd,"[77, 90]",stay,magnitude,,700,1000.0,<div class = bigbox><div class = quad_box><div class = decision-top-right><div class = gng_number><div class = cue-text><img class = center src='/static/experiments/stop_signal_with_predictable_task_switching/images/1.png'></img></div></div></div></div></div>,,go,,181674,0.0,test_trial,132,stop-signal,,2.0
133,,,,,,,,500.0,,,,,,stop_signal_with_predictable_task_switching,,,,,,0.0-3.0-54.0,-1.0,,,,none,,,,-1,500.0,<div class = bigbox><div class = quad_box><div class = decision-bottom-right><div class = fixation>+</div></div></div></div>,,,,182178,0.0,test_fixation,133,poldrack-single-stim,,
134,200.0,350.0,350.0,500.0,<div class = bigbox><div class = quad_box><div class = decision-bottom-right><img class = center src='/static/experiments/stop_signal_with_predictable_task_switching/images/stopSignal.png'></img></div></div></div>,go,,2000.0,,77.0,1.0,0.0,27.0,stop_signal_with_predictable_task_switching,,,,,,0.0-3.0-55.0,77.0,high,6.0,even,"[77, 90]",switch,parity,,591,1000.0,<div class = bigbox><div class = quad_box><div class = decision-bottom-right><div class = gng_number><div class = cue-text><img class = center src='/static/experiments/stop_signal_with_predictable_task_switching/images/6.png'></img></div></div></div></div></div>,,go,,184183,0.0,test_trial,134,stop-signal,,3.0
135,,,,,,,,500.0,,,,,,stop_signal_with_predictable_task_switching,,,,,,0.0-3.0-56.0,-1.0,,,,none,,,,-1,500.0,<div class = bigbox><div class = quad_box><div class = decision-bottom-left><div class = fixation>+</div></div></div></div>,,,,184687,0.0,test_fixation,135,poldrack-single-stim,,
136,200.0,350.0,200.0,500.0,<div class = bigbox><div class = quad_box><div class = decision-bottom-left><img class = center src='/static/experiments/stop_signal_with_predictable_task_switching/images/stopSignal.png'></img></div></div></div>,go,,2000.0,,77.0,1.0,0.0,28.0,stop_signal_with_predictable_task_switching,,,,,,0.0-3.0-57.0,77.0,high,8.0,even,"[77, 90]",stay,parity,,728,1000.0,<div class = bigbox><div class = quad_box><div class = decision-bottom-left><div class = gng_number><div class = cue-text><img class = center src='/static/experiments/stop_signal_with_predictable_task_switching/images/8.png'></img></div></div></div></div></div>,,go,,186691,0.0,test_trial,136,stop-signal,,4.0
137,,,,,,,,500.0,,,,,,stop_signal_with_predictable_task_switching,,,,,,0.0-3.0-58.0,-1.0,,,,none,,,,-1,500.0,<div class = bigbox><div class = quad_box><div class = decision-top-left><div class = fixation>+</div></div></div></div>,,,,187196,0.0,test_fixation,137,poldrack-single-stim,,
138,200.0,350.0,350.0,500.0,<div class = bigbox><div class = quad_box><div class = decision-top-left><img class = center src='/static/experiments/stop_signal_with_predictable_task_switching/images/stopSignal.png'></img></div></div></div>,go,,2000.0,,77.0,0.0,0.0,29.0,stop_signal_with_predictable_task_switching,,,,,,0.0-3.0-59.0,90.0,high,9.0,odd,"[77, 90]",switch,magnitude,,684,1000.0,<div class = bigbox><div class = quad_box><div class = decision-top-left><div class = gng_number><div class = cue-text><img class = center src='/static/experiments/stop_signal_with_predictable_task_switching/images/9.png'></img></div></div></div></div></div>,,go,,189200,0.0,test_trial,138,stop-signal,,1.0
139,,,,,,,,500.0,,,,,,stop_signal_with_predictable_task_switching,,,,,,0.0-3.0-60.0,-1.0,,,,none,,,,-1,500.0,<div class = bigbox><div class = quad_box><div class = decision-top-right><div class = fixation>+</div></div></div></div>,,,,189705,0.0,test_fixation,139,poldrack-single-stim,,
140,200.0,350.0,200.0,500.0,<div class = bigbox><div class = quad_box><div class = decision-top-right><img class = center src='/static/experiments/stop_signal_with_predictable_task_switching/images/stopSignal.png'></img></div></div></div>,go,,2000.0,,77.0,1.0,0.0,30.0,stop_signal_with_predictable_task_switching,,,,,,0.0-3.0-61.0,77.0,high,9.0,odd,"[77, 90]",stay,magnitude,,652,1000.0,<div class = bigbox><div class = quad_box><div class = decision-top-right><div class = gng_number><div class = cue-text><img class = center src='/static/experiments/stop_signal_with_predictable_task_switching/images/9.png'></img></div></div></div></div></div>,,go,,191709,0.0,test_trial,140,stop-signal,,2.0
141,,,,,,,,500.0,,,,,,stop_signal_with_predictable_task_switching,,,,,,0.0-3.0-62.0,-1.0,,,,none,,,,-1,500.0,<div class = bigbox><div class = quad_box><div class = decision-bottom-right><div class = fixation>+</div></div></div></div>,,,,192214,0.0,test_fixation,141,poldrack-single-stim,,
142,200.0,350.0,350.0,500.0,<div class = bigbox><div class = quad_box><div class = decision-bottom-right><img class = center src='/static/experiments/stop_signal_with_predictable_task_switching/images/stopSignal.png'></img></div></div></div>,go,,2000.0,,77.0,0.0,0.0,31.0,stop_signal_with_predictable_task_switching,,,,,,0.0-3.0-63.0,-1.0,low,4.0,even,"[77, 90]",switch,parity,,-1,1000.0,<div class = bigbox><div class = quad_box><div class = decision-bottom-right><div class = gng_number><div class = cue-text><img class = center src='/static/experiments/stop_signal_with_predictable_task_switching/images/4.png'></img></div></div></div></div></div>,,go,,194218,0.0,test_trial,142,stop-signal,,3.0
143,,,,,,,,500.0,,,,,,stop_signal_with_predictable_task_switching,,,,,,0.0-3.0-64.0,-1.0,,,,none,,,,-1,500.0,<div class = bigbox><div class = quad_box><div class = decision-bottom-left><div class = fixation>+</div></div></div></div>,,,,194721,0.0,test_fixation,143,poldrack-single-stim,,
144,200.0,350.0,200.0,500.0,<div class = bigbox><div class = quad_box><div class = decision-bottom-left><img class = center src='/static/experiments/stop_signal_with_predictable_task_switching/images/stopSignal.png'></img></div></div></div>,stop,,2000.0,,-1.0,1.0,0.0,32.0,stop_signal_with_predictable_task_switching,,,,,,0.0-3.0-65.0,-1.0,low,3.0,odd,"[77, 90]",stay,parity,,-1,1000.0,<div class = bigbox><div class = quad_box><div class = decision-bottom-left><div class = gng_number><div class = cue-text><img class = center src='/static/experiments/stop_signal_with_predictable_task_switching/images/3.png'></img></div></div></div></div></div>,1.0,stop,,196725,0.0,test_trial,144,stop-signal,,4.0
145,,,,,,,,500.0,,,,,,stop_signal_with_predictable_task_switching,,,,,,0.0-3.0-66.0,-1.0,,,,none,,,,-1,500.0,<div class = bigbox><div class = quad_box><div class = decision-top-left><div class = fixation>+</div></div></div></div>,,,,197229,0.0,test_fixation,145,poldrack-single-stim,,
146,250.0,350.0,350.0,500.0,<div class = bigbox><div class = quad_box><div class = decision-top-left><img class = center src='/static/experiments/stop_signal_with_predictable_task_switching/images/stopSignal.png'></img></div></div></div>,stop,,2000.0,,-1.0,1.0,0.0,33.0,stop_signal_with_predictable_task_switching,,,,,,0.0-3.0-67.0,-1.0,high,9.0,odd,"[77, 90]",switch,magnitude,,-1,1000.0,<div class = bigbox><div class = quad_box><div class = decision-top-left><div class = gng_number><div class = cue-text><img class = center src='/static/experiments/stop_signal_with_predictable_task_switching/images/9.png'></img></div></div></div></div></div>,1.0,stop,,199235,0.0,test_trial,146,stop-signal,,1.0
147,,,,,,,,500.0,,,,,,stop_signal_with_predictable_task_switching,,,,,,0.0-3.0-68.0,-1.0,,,,none,,,,-1,500.0,<div class = bigbox><div class = quad_box><div class = decision-top-right><div class = fixation>+</div></div></div></div>,,,,199738,0.0,test_fixation,147,poldrack-single-stim,,
148,250.0,400.0,250.0,500.0,<div class = bigbox><div class = quad_box><div class = decision-top-right><img class = center src='/static/experiments/stop_signal_with_predictable_task_switching/images/stopSignal.png'></img></div></div></div>,go,,2000.0,,90.0,1.0,0.0,34.0,stop_signal_with_predictable_task_switching,,,,,,0.0-3.0-69.0,90.0,low,1.0,odd,"[77, 90]",stay,magnitude,,525,1000.0,<div class = bigbox><div class = quad_box><div class = decision-top-right><div class = gng_number><div class = cue-text><img class = center src='/static/experiments/stop_signal_with_predictable_task_switching/images/1.png'></img></div></div></div></div></div>,,go,,201743,0.0,test_trial,148,stop-signal,,2.0
149,,,,,,,,500.0,,,,,,stop_signal_with_predictable_task_switching,,,,,,0.0-3.0-70.0,-1.0,,,,none,,,,-1,500.0,<div class = bigbox><div class = quad_box><div class = decision-bottom-right><div class = fixation>+</div></div></div></div>,,,,202248,0.0,test_fixation,149,poldrack-single-stim,,
150,250.0,400.0,400.0,500.0,<div class = bigbox><div class = quad_box><div class = decision-bottom-right><img class = center src='/static/experiments/stop_signal_with_predictable_task_switching/images/stopSignal.png'></img></div></div></div>,go,,2000.0,,77.0,1.0,0.0,35.0,stop_signal_with_predictable_task_switching,,,,,,0.0-3.0-71.0,77.0,low,2.0,even,"[77, 90]",switch,parity,,1297,1000.0,<div class = bigbox><div class = quad_box><div class = decision-bottom-right><div class = gng_number><div class = cue-text><img class = center src='/static/experiments/stop_signal_with_predictable_task_switching/images/2.png'></img></div></div></div></div></div>,,go,,204252,0.0,test_trial,150,stop-signal,,3.0
151,,,,,,,,500.0,,,,,,stop_signal_with_predictable_task_switching,,,,,,0.0-3.0-72.0,-1.0,,,,none,,,,-1,500.0,<div class = bigbox><div class = quad_box><div class = decision-bottom-left><div class = fixation>+</div></div></div></div>,,,,204756,0.0,test_fixation,151,poldrack-single-stim,,
152,250.0,400.0,250.0,500.0,<div class = bigbox><div class = quad_box><div class = decision-bottom-left><img class = center src='/static/experiments/stop_signal_with_predictable_task_switching/images/stopSignal.png'></img></div></div></div>,go,,2000.0,,90.0,1.0,0.0,36.0,stop_signal_with_predictable_task_switching,,,,,,0.0-3.0-73.0,90.0,high,9.0,odd,"[77, 90]",stay,parity,,658,1000.0,<div class = bigbox><div class = quad_box><div class = decision-bottom-left><div class = gng_number><div class = cue-text><img class = center src='/static/experiments/stop_signal_with_predictable_task_switching/images/9.png'></img></div></div></div></div></div>,,go,,206760,0.0,test_trial,152,stop-signal,,4.0
153,,,,,,,,500.0,,,,,,stop_signal_with_predictable_task_switching,,,,,,0.0-3.0-74.0,-1.0,,,,none,,,,-1,500.0,<div class = bigbox><div class = quad_box><div class = decision-top-left><div class = fixation>+</div></div></div></div>,,,,207265,0.0,test_fixation,153,poldrack-single-stim,,
154,250.0,400.0,400.0,500.0,<div class = bigbox><div class = quad_box><div class = decision-top-left><img class = center src='/static/experiments/stop_signal_with_predictable_task_switching/images/stopSignal.png'></img></div></div></div>,go,,2000.0,,90.0,0.0,0.0,37.0,stop_signal_with_predictable_task_switching,,,,,,0.0-3.0-75.0,77.0,low,4.0,even,"[77, 90]",switch,magnitude,,1558,1000.0,<div class = bigbox><div class = quad_box><div class = decision-top-left><div class = gng_number><div class = cue-text><img class = center src='/static/experiments/stop_signal_with_predictable_task_switching/images/4.png'></img></div></div></div></div></div>,,go,,209271,0.0,test_trial,154,stop-signal,,1.0
155,,,,,,,,500.0,,,,,,stop_signal_with_predictable_task_switching,,,,,,0.0-3.0-76.0,-1.0,,,,none,,,,-1,500.0,<div class = bigbox><div class = quad_box><div class = decision-top-right><div class = fixation>+</div></div></div></div>,,,,209777,0.0,test_fixation,155,poldrack-single-stim,,
156,250.0,400.0,250.0,500.0,<div class = bigbox><div class = quad_box><div class = decision-top-right><img class = center src='/static/experiments/stop_signal_with_predictable_task_switching/images/stopSignal.png'></img></div></div></div>,stop,,2000.0,,-1.0,0.0,0.0,38.0,stop_signal_with_predictable_task_switching,,,,,,0.0-3.0-77.0,77.0,high,6.0,even,"[77, 90]",stay,magnitude,,513,1000.0,<div class = bigbox><div class = quad_box><div class = decision-top-right><div class = gng_number><div class = cue-text><img class = center src='/static/experiments/stop_signal_with_predictable_task_switching/images/6.png'></img></div></div></div></div></div>,0.0,stop,,211781,0.0,test_trial,156,stop-signal,,2.0
157,,,,,,,,500.0,,,,,,stop_signal_with_predictable_task_switching,,,,,,0.0-3.0-78.0,-1.0,,,,none,,,,-1,500.0,<div class = bigbox><div class = quad_box><div class = decision-bottom-right><div class = fixation>+</div></div></div></div>,,,,212285,0.0,test_fixation,157,poldrack-single-stim,,
158,200.0,400.0,400.0,500.0,<div class = bigbox><div class = quad_box><div class = decision-bottom-right><img class = center src='/static/experiments/stop_signal_with_predictable_task_switching/images/stopSignal.png'></img></div></div></div>,go,,2000.0,,90.0,1.0,0.0,39.0,stop_signal_with_predictable_task_switching,,,,,,0.0-3.0-79.0,90.0,low,3.0,odd,"[77, 90]",switch,parity,,522,1000.0,<div class = bigbox><div class = quad_box><div class = decision-bottom-right><div class = gng_number><div class = cue-text><img class = center src='/static/experiments/stop_signal_with_predictable_task_switching/images/3.png'></img></div></div></div></div></div>,,go,,214289,0.0,test_trial,158,stop-signal,,3.0
159,,,,,,,,500.0,,,,,,stop_signal_with_predictable_task_switching,,,,,,0.0-3.0-80.0,-1.0,,,,none,,,,-1,500.0,<div class = bigbox><div class = quad_box><div class = decision-bottom-left><div class = fixation>+</div></div></div></div>,,,,214793,0.0,test_fixation,159,poldrack-single-stim,,
160,200.0,400.0,200.0,500.0,<div class = bigbox><div class = quad_box><div class = decision-bottom-left><img class = center src='/static/experiments/stop_signal_with_predictable_task_switching/images/stopSignal.png'></img></div></div></div>,stop,,2000.0,,-1.0,1.0,0.0,40.0,stop_signal_with_predictable_task_switching,,,,,,0.0-3.0-81.0,-1.0,low,2.0,even,"[77, 90]",stay,parity,,-1,1000.0,<div class = bigbox><div class = quad_box><div class = decision-bottom-left><div class = gng_number><div class = cue-text><img class = center src='/static/experiments/stop_signal_with_predictable_task_switching/images/2.png'></img></div></div></div></div></div>,1.0,stop,,216798,0.0,test_trial,160,stop-signal,,4.0
161,,,,,,,,500.0,,,,,,stop_signal_with_predictable_task_switching,,,,,,0.0-3.0-82.0,-1.0,,,,none,,,,-1,500.0,<div class = bigbox><div class = quad_box><div class = decision-top-left><div class = fixation>+</div></div></div></div>,,,,217302,0.0,test_fixation,161,poldrack-single-stim,,
162,250.0,400.0,400.0,500.0,<div class = bigbox><div class = quad_box><div class = decision-top-left><img class = center src='/static/experiments/stop_signal_with_predictable_task_switching/images/stopSignal.png'></img></div></div></div>,go,,2000.0,,90.0,1.0,0.0,41.0,stop_signal_with_predictable_task_switching,,,,,,0.0-3.0-83.0,90.0,low,2.0,even,"[77, 90]",switch,magnitude,,525,1000.0,<div class = bigbox><div class = quad_box><div class = decision-top-left><div class = gng_number><div class = cue-text><img class = center src='/static/experiments/stop_signal_with_predictable_task_switching/images/2.png'></img></div></div></div></div></div>,,go,,219306,0.0,test_trial,162,stop-signal,,1.0
163,,,,,,,,500.0,,,,,,stop_signal_with_predictable_task_switching,,,,,,0.0-3.0-84.0,-1.0,,,,none,,,,-1,500.0,<div class = bigbox><div class = quad_box><div class = decision-top-right><div class = fixation>+</div></div></div></div>,,,,219810,0.0,test_fixation,163,poldrack-single-stim,,
164,250.0,400.0,250.0,500.0,<div class = bigbox><div class = quad_box><div class = decision-top-right><img class = center src='/static/experiments/stop_signal_with_predictable_task_switching/images/stopSignal.png'></img></div></div></div>,go,,2000.0,,90.0,1.0,0.0,42.0,stop_signal_with_predictable_task_switching,,,,,,0.0-3.0-85.0,90.0,low,2.0,even,"[77, 90]",stay,magnitude,,583,1000.0,<div class = bigbox><div class = quad_box><div class = decision-top-right><div class = gng_number><div class = cue-text><img class = center src='/static/experiments/stop_signal_with_predictable_task_switching/images/2.png'></img></div></div></div></div></div>,,go,,221814,0.0,test_trial,164,stop-signal,,2.0
165,,,,,,,,500.0,,,,,,stop_signal_with_predictable_task_switching,,,,,,0.0-3.0-86.0,-1.0,,,,none,,,,-1,500.0,<div class = bigbox><div class = quad_box><div class = decision-bottom-right><div class = fixation>+</div></div></div></div>,,,,222319,0.0,test_fixation,165,poldrack-single-stim,,
166,250.0,400.0,400.0,500.0,<div class = bigbox><div class = quad_box><div class = decision-bottom-right><img class = center src='/static/experiments/stop_signal_with_predictable_task_switching/images/stopSignal.png'></img></div></div></div>,go,,2000.0,,77.0,1.0,0.0,43.0,stop_signal_with_predictable_task_switching,,,,,,0.0-3.0-87.0,77.0,high,6.0,even,"[77, 90]",switch,parity,,576,1000.0,<div class = bigbox><div class = quad_box><div class = decision-bottom-right><div class = gng_number><div class = cue-text><img class = center src='/static/experiments/stop_signal_with_predictable_task_switching/images/6.png'></img></div></div></div></div></div>,,go,,224323,0.0,test_trial,166,stop-signal,,3.0
167,,,,,,,,500.0,,,,,,stop_signal_with_predictable_task_switching,,,,,,0.0-3.0-88.0,-1.0,,,,none,,,,-1,500.0,<div class = bigbox><div class = quad_box><div class = decision-bottom-left><div class = fixation>+</div></div></div></div>,,,,224829,0.0,test_fixation,167,poldrack-single-stim,,
168,250.0,400.0,250.0,500.0,<div class = bigbox><div class = quad_box><div class = decision-bottom-left><img class = center src='/static/experiments/stop_signal_with_predictable_task_switching/images/stopSignal.png'></img></div></div></div>,go,,2000.0,,77.0,1.0,0.0,44.0,stop_signal_with_predictable_task_switching,,,,,,0.0-3.0-89.0,77.0,high,6.0,even,"[77, 90]",stay,parity,,1087,1000.0,<div class = bigbox><div class = quad_box><div class = decision-bottom-left><div class = gng_number><div class = cue-text><img class = center src='/static/experiments/stop_signal_with_predictable_task_switching/images/6.png'></img></div></div></div></div></div>,,go,,226833,0.0,test_trial,168,stop-signal,,4.0
169,,,,,,,,500.0,,,,,,stop_signal_with_predictable_task_switching,,,,,,0.0-3.0-90.0,-1.0,,,,none,,,,-1,500.0,<div class = bigbox><div class = quad_box><div class = decision-top-left><div class = fixation>+</div></div></div></div>,,,,227337,0.0,test_fixation,169,poldrack-single-stim,,
170,250.0,400.0,400.0,500.0,<div class = bigbox><div class = quad_box><div class = decision-top-left><img class = center src='/static/experiments/stop_signal_with_predictable_task_switching/images/stopSignal.png'></img></div></div></div>,go,,2000.0,,77.0,1.0,0.0,45.0,stop_signal_with_predictable_task_switching,,,,,,0.0-3.0-91.0,77.0,high,6.0,even,"[77, 90]",switch,magnitude,,1065,1000.0,<div class = bigbox><div class = quad_box><div class = decision-top-left><div class = gng_number><div class = cue-text><img class = center src='/static/experiments/stop_signal_with_predictable_task_switching/images/6.png'></img></div></div></div></div></div>,,go,,229341,0.0,test_trial,170,stop-signal,,1.0
171,,,,,,,,500.0,,,,,,stop_signal_with_predictable_task_switching,,,,,,0.0-3.0-92.0,-1.0,,,,none,,,,-1,500.0,<div class = bigbox><div class = quad_box><div class = decision-top-right><div class = fixation>+</div></div></div></div>,,,,229846,0.0,test_fixation,171,poldrack-single-stim,,
172,250.0,400.0,250.0,500.0,<div class = bigbox><div class = quad_box><div class = decision-top-right><img class = center src='/static/experiments/stop_signal_with_predictable_task_switching/images/stopSignal.png'></img></div></div></div>,go,,2000.0,,90.0,1.0,0.0,46.0,stop_signal_with_predictable_task_switching,,,,,,0.0-3.0-93.0,90.0,low,2.0,even,"[77, 90]",stay,magnitude,,526,1000.0,<div class = bigbox><div class = quad_box><div class = decision-top-right><div class = gng_number><div class = cue-text><img class = center src='/static/experiments/stop_signal_with_predictable_task_switching/images/2.png'></img></div></div></div></div></div>,,go,,231850,0.0,test_trial,172,stop-signal,,2.0
173,,,,,,,,500.0,,,,,,stop_signal_with_predictable_task_switching,,,,,,0.0-3.0-94.0,-1.0,,,,none,,,,-1,500.0,<div class = bigbox><div class = quad_box><div class = decision-bottom-right><div class = fixation>+</div></div></div></div>,,,,232355,0.0,test_fixation,173,poldrack-single-stim,,
174,250.0,400.0,400.0,500.0,<div class = bigbox><div class = quad_box><div class = decision-bottom-right><img class = center src='/static/experiments/stop_signal_with_predictable_task_switching/images/stopSignal.png'></img></div></div></div>,stop,,2000.0,,-1.0,0.0,0.0,47.0,stop_signal_with_predictable_task_switching,,,,,,0.0-3.0-95.0,90.0,low,3.0,odd,"[77, 90]",switch,parity,,716,1000.0,<div class = bigbox><div class = quad_box><div class = decision-bottom-right><div class = gng_number><div class = cue-text><img class = center src='/static/experiments/stop_signal_with_predictable_task_switching/images/3.png'></img></div></div></div></div></div>,0.0,stop,,234360,0.0,test_trial,174,stop-signal,,3.0
175,,,,,,,,500.0,,,,,,stop_signal_with_predictable_task_switching,,,,,,0.0-3.0-96.0,-1.0,,,,none,,,,-1,500.0,<div class = bigbox><div class = quad_box><div class = decision-bottom-left><div class = fixation>+</div></div></div></div>,,,,234866,0.0,test_fixation,175,poldrack-single-stim,,
176,250.0,350.0,250.0,500.0,<div class = bigbox><div class = quad_box><div class = decision-bottom-left><img class = center src='/static/experiments/stop_signal_with_predictable_task_switching/images/stopSignal.png'></img></div></div></div>,go,,2000.0,,90.0,1.0,0.0,48.0,stop_signal_with_predictable_task_switching,,,,,,0.0-3.0-97.0,90.0,high,9.0,odd,"[77, 90]",stay,parity,,892,1000.0,<div class = bigbox><div class = quad_box><div class = decision-bottom-left><div class = gng_number><div class = cue-text><img class = center src='/static/experiments/stop_signal_with_predictable_task_switching/images/9.png'></img></div></div></div></div></div>,,go,,236874,0.0,test_trial,176,stop-signal,,4.0
177,,,,,,,,500.0,,,,,,stop_signal_with_predictable_task_switching,,,,,,0.0-3.0-98.0,-1.0,,,,none,,,,-1,500.0,<div class = bigbox><div class = quad_box><div class = decision-top-left><div class = fixation>+</div></div></div></div>,,,,237379,0.0,test_fixation,177,poldrack-single-stim,,
178,250.0,350.0,350.0,500.0,<div class = bigbox><div class = quad_box><div class = decision-top-left><img class = center src='/static/experiments/stop_signal_with_predictable_task_switching/images/stopSignal.png'></img></div></div></div>,go,,2000.0,,90.0,0.0,0.0,49.0,stop_signal_with_predictable_task_switching,,,,,,0.0-3.0-99.0,77.0,low,4.0,even,"[77, 90]",switch,magnitude,,827,1000.0,<div class = bigbox><div class = quad_box><div class = decision-top-left><div class = gng_number><div class = cue-text><img class = center src='/static/experiments/stop_signal_with_predictable_task_switching/images/4.png'></img></div></div></div></div></div>,,go,,239384,0.0,test_trial,178,stop-signal,,1.0
179,,,,,,,,4257.0,,,,,,stop_signal_with_predictable_task_switching,,,,,,0.0-3.1-0.1,13.0,,,,[13],,,,4257,4257.0,<div class = bigbox><div class = picture_box><p class = block-text><br>Please take this time to read your feedback and to take a short break! Press enter to continue</p><p class = block-text>You have completed: 1 out of 5 blocks of trials.</p></div></div>,,,,243658,0.0,feedback_block,179,poldrack-single-stim,,
180,,,,,,,,5976.0,True,86.0,,,,stop_signal_with_predictable_task_switching,,,,,,0.0-3.1-1.1-0.1,86.0,,,,[],,,,5976,5976.0,"<p>Please read the following paragraph:</p><p>I never believed in Santa Claus. None of us kids did. Mom and Dad refused to let us. They couldnt afford expensive presents and they didnt want us to think we werent as good as other kids who, on Christmas morning, found all sorts of fancy toys under the tree that were supposedly left by Santa Claus. Dad had lost his job at the gypsum, and when Christmas came that year, we had no money at all. On Christmas Eve, Dad took each one of us kids out into the desert night one by one.</p><p>""If you are reading this paragraph, press the letter V,"" Dad Said.</p><p>I like that one! I said.</p><p>Dad grinned, thats Venus, he said. He explained to me that planets glowed because reflected light was constant and stars twinkled because their light pulsed. </p><p>I like it anyway I said.</p><p>What the heck, Dad said. Its Christmas. You can have a planet if you want.</p><p>And he gave me Venus. -- The Glass Castle (Jeannette Walls)</p><p>Press the ""L"" key. </p>",,,,249639,200.0,attention_check,180,attention-check,,
181,,,,,,,,500.0,,,,,,stop_signal_with_predictable_task_switching,,,,,,0.0-3.1-2.1,-1.0,,,,none,,,,-1,500.0,<div class = bigbox><div class = quad_box><div class = decision-top-left><div class = fixation>+</div></div></div></div>,,,,250344,0.0,test_fixation,181,poldrack-single-stim,,
182,250.0,350.0,,500.0,<div class = bigbox><div class = quad_box><div class = decision-top-left><img class = center src='/static/experiments/stop_signal_with_predictable_task_switching/images/stopSignal.png'></img></div></div></div>,go,,2000.0,,90.0,1.0,1.0,1.0,stop_signal_with_predictable_task_switching,,,,,,0.0-3.1-3.1,90.0,low,3.0,odd,"[77, 90]",N/A,magnitude,,982,1000.0,<div class = bigbox><div class = quad_box><div class = decision-top-left><div class = gng_number><div class = cue-text><img class = center src='/static/experiments/stop_signal_with_predictable_task_switching/images/3.png'></img></div></div></div></div></div>,,go,,252349,0.0,test_trial,182,stop-signal,,1.0
