,SSD_1,SSD_2,SSD_3,SS_delay,SS_duration,SS_stimulus,SS_trial_type,att_check_percent,block_duration,correct,correct_response,correct_trial,current_block,current_trial,delay,exp_id,final_accuracy,final_avg_rt,final_credit_var,final_missed_percent,final_responses_ok,internal_node_id,key_press,n_back_condition,possible_responses,probe,responses,rt,stim_duration,stimulus,stop_acc,stop_signal_condition,text,time_elapsed,timing_post_trial,trial_id,trial_index,trial_type,view_history
0,,,,,,,,,1790.0,,,,,,,stop_signal_with_n_back,,,,,,0.0-0.0-0.0,13.0,,[13],,,1790,1790.0,"<div class = bigbox><div class = picture_box><p class = block-text><font color=""white"">Welcome to the experiment. This experiment will take about 10 minutes. Press <i>enter</i> to begin.</font></p></div></div>",,,,1793,0.0,practice-no-stop-feedback,0,poldrack-single-stim,
1,,,,,,,,,,,,,,,,stop_signal_with_n_back,,,,,,0.0-0.0-1.0,,,,,,40444,,,,,,42239,,instruction,1,poldrack-instructions,"[{""page_index"":0,""viewing_time"":31061},{""page_index"":1,""viewing_time"":3123},{""page_index"":0,""viewing_time"":1366},{""page_index"":1,""viewing_time"":1478},{""page_index"":2,""viewing_time"":3415}]"
2,350.0,350.0,350.0,350.0,500.0,<div class = bigbox><div class = starbox><img class = center src='/static/experiments/stop_signal_with_n_back/images/stopSignal.png'></img></div></div>,stop,,2000.0,,90.0,0.0,0.0,1.0,1.0,stop_signal_with_n_back,,,,,,0.0-0.0-2.0,-1.0,N/A,"[77, 90]",b,,-1,1000.0,<div class = bigbox><div class = centerbox><div class = gng_number><div class = cue-text><img class = center src='/static/experiments/stop_signal_with_n_back/images/lowercase_B.png'></img></div></div></div></div>,1.0,stop,,45244,0.0,practice_trial,2,stop-signal,
3,,,,,,,,,500.0,,,,,,,stop_signal_with_n_back,,,,,,0.0-0.0-3.0,-1.0,,none,,,-1,500.0,"<div class = fb_box><div class = center-text><font size = 20>Correct!</font></div></div><div class = prompt_box><p class = center-block-text style = ""font-size:16px; line-height:80%%;"">Match the current letter to the letter that appeared 1 trial ago</p><p class = center-block-text style = ""font-size:16px; line-height:80%%;"">If they match, press the M Key</p><p class = center-block-text style = ""font-size:16px; line-height:80%%;"">If they mismatch, press the Z Key</p><p class = center-block-text style = ""font-size:16px; line-height:80%%;"">Do not respond if you see a star!</p></div>",,,,45748,0.0,practice-stop-feedback,3,poldrack-single-stim,
4,400.0,350.0,350.0,400.0,500.0,<div class = bigbox><div class = starbox><img class = center src='/static/experiments/stop_signal_with_n_back/images/stopSignal.png'></img></div></div>,go,,2000.0,,90.0,0.0,0.0,2.0,1.0,stop_signal_with_n_back,,,,,,0.0-0.0-4.0,-1.0,mismatch,"[77, 90]",t,,-1,1000.0,<div class = bigbox><div class = centerbox><div class = gng_number><div class = cue-text><img class = center src='/static/experiments/stop_signal_with_n_back/images/lowercase_T.png'></img></div></div></div></div>,,go,,47751,0.0,practice_trial,4,stop-signal,
5,,,,,,,,,500.0,,,,,,,stop_signal_with_n_back,,,,,,0.0-0.0-5.0,-1.0,,none,,,-1,500.0,"<div class = fb_box><div class = center-text><font size = 20>Respond Faster!</font></div></div><div class = prompt_box><p class = center-block-text style = ""font-size:16px; line-height:80%%;"">Match the current letter to the letter that appeared 1 trial ago</p><p class = center-block-text style = ""font-size:16px; line-height:80%%;"">If they match, press the M Key</p><p class = center-block-text style = ""font-size:16px; line-height:80%%;"">If they mismatch, press the Z Key</p><p class = center-block-text style = ""font-size:16px; line-height:80%%;"">Do not respond if you see a star!</p></div>",,,,48254,0.0,practice-stop-feedback,5,poldrack-single-stim,
6,400.0,350.0,350.0,400.0,500.0,<div class = bigbox><div class = starbox><img class = center src='/static/experiments/stop_signal_with_n_back/images/stopSignal.png'></img></div></div>,go,,2000.0,,90.0,1.0,0.0,3.0,1.0,stop_signal_with_n_back,,,,,,0.0-0.0-6.0,90.0,mismatch,"[77, 90]",G,,645,1000.0,<div class = bigbox><div class = centerbox><div class = gng_number><div class = cue-text><img class = center src='/static/experiments/stop_signal_with_n_back/images/uppercase_G.png'></img></div></div></div></div>,,go,,50259,0.0,practice_trial,6,stop-signal,
7,,,,,,,,,500.0,,,,,,,stop_signal_with_n_back,,,,,,0.0-0.0-7.0,-1.0,,none,,,-1,500.0,"<div class = fb_box><div class = center-text><font size = 20>Correct!</font></div></div><div class = prompt_box><p class = center-block-text style = ""font-size:16px; line-height:80%%;"">Match the current letter to the letter that appeared 1 trial ago</p><p class = center-block-text style = ""font-size:16px; line-height:80%%;"">If they match, press the M Key</p><p class = center-block-text style = ""font-size:16px; line-height:80%%;"">If they mismatch, press the Z Key</p><p class = center-block-text style = ""font-size:16px; line-height:80%%;"">Do not respond if you see a star!</p></div>",,,,50764,0.0,practice-stop-feedback,7,poldrack-single-stim,
8,400.0,350.0,350.0,400.0,500.0,<div class = bigbox><div class = starbox><img class = center src='/static/experiments/stop_signal_with_n_back/images/stopSignal.png'></img></div></div>,go,,2000.0,,90.0,1.0,0.0,4.0,1.0,stop_signal_with_n_back,,,,,,0.0-0.0-8.0,90.0,mismatch,"[77, 90]",B,,624,1000.0,<div class = bigbox><div class = centerbox><div class = gng_number><div class = cue-text><img class = center src='/static/experiments/stop_signal_with_n_back/images/uppercase_B.png'></img></div></div></div></div>,,go,,52767,0.0,practice_trial,8,stop-signal,
9,,,,,,,,,500.0,,,,,,,stop_signal_with_n_back,,,,,,0.0-0.0-9.0,-1.0,,none,,,-1,500.0,"<div class = fb_box><div class = center-text><font size = 20>Correct!</font></div></div><div class = prompt_box><p class = center-block-text style = ""font-size:16px; line-height:80%%;"">Match the current letter to the letter that appeared 1 trial ago</p><p class = center-block-text style = ""font-size:16px; line-height:80%%;"">If they match, press the M Key</p><p class = center-block-text style = ""font-size:16px; line-height:80%%;"">If they mismatch, press the Z Key</p><p class = center-block-text style = ""font-size:16px; line-height:80%%;"">Do not respond if you see a star!</p></div>",,,,53271,0.0,practice-stop-feedback,9,poldrack-single-stim,
10,400.0,350.0,350.0,400.0,500.0,<div class = bigbox><div class = starbox><img class = center src='/static/experiments/stop_signal_with_n_back/images/stopSignal.png'></img></div></div>,go,,2000.0,,90.0,1.0,0.0,5.0,1.0,stop_signal_with_n_back,,,,,,0.0-0.0-10.0,90.0,mismatch,"[77, 90]",v,,693,1000.0,<div class = bigbox><div class = centerbox><div class = gng_number><div class = cue-text><img class = center src='/static/experiments/stop_signal_with_n_back/images/lowercase_V.png'></img></div></div></div></div>,,go,,55275,0.0,practice_trial,10,stop-signal,
11,,,,,,,,,500.0,,,,,,,stop_signal_with_n_back,,,,,,0.0-0.0-11.0,-1.0,,none,,,-1,500.0,"<div class = fb_box><div class = center-text><font size = 20>Correct!</font></div></div><div class = prompt_box><p class = center-block-text style = ""font-size:16px; line-height:80%%;"">Match the current letter to the letter that appeared 1 trial ago</p><p class = center-block-text style = ""font-size:16px; line-height:80%%;"">If they match, press the M Key</p><p class = center-block-text style = ""font-size:16px; line-height:80%%;"">If they mismatch, press the Z Key</p><p class = center-block-text style = ""font-size:16px; line-height:80%%;"">Do not respond if you see a star!</p></div>",,,,55779,0.0,practice-stop-feedback,11,poldrack-single-stim,
12,400.0,350.0,350.0,400.0,500.0,<div class = bigbox><div class = starbox><img class = center src='/static/experiments/stop_signal_with_n_back/images/stopSignal.png'></img></div></div>,stop,,2000.0,,-1.0,0.0,0.0,6.0,1.0,stop_signal_with_n_back,,,,,,0.0-0.0-12.0,90.0,mismatch,"[77, 90]",T,,601,1000.0,<div class = bigbox><div class = centerbox><div class = gng_number><div class = cue-text><img class = center src='/static/experiments/stop_signal_with_n_back/images/uppercase_T.png'></img></div></div></div></div>,0.0,stop,,57782,0.0,practice_trial,12,stop-signal,
13,,,,,,,,,500.0,,,,,,,stop_signal_with_n_back,,,,,,0.0-0.0-13.0,-1.0,,none,,,-1,500.0,"<div class = fb_box><div class = center-text><font size = 20>There was a star.</font></div></div><div class = prompt_box><p class = center-block-text style = ""font-size:16px; line-height:80%%;"">Match the current letter to the letter that appeared 1 trial ago</p><p class = center-block-text style = ""font-size:16px; line-height:80%%;"">If they match, press the M Key</p><p class = center-block-text style = ""font-size:16px; line-height:80%%;"">If they mismatch, press the Z Key</p><p class = center-block-text style = ""font-size:16px; line-height:80%%;"">Do not respond if you see a star!</p></div>",,,,58286,0.0,practice-stop-feedback,13,poldrack-single-stim,
14,350.0,350.0,350.0,350.0,500.0,<div class = bigbox><div class = starbox><img class = center src='/static/experiments/stop_signal_with_n_back/images/stopSignal.png'></img></div></div>,stop,,2000.0,,-1.0,0.0,0.0,7.0,1.0,stop_signal_with_n_back,,,,,,0.0-0.0-14.0,90.0,mismatch,"[77, 90]",b,,1215,1000.0,<div class = bigbox><div class = centerbox><div class = gng_number><div class = cue-text><img class = center src='/static/experiments/stop_signal_with_n_back/images/lowercase_B.png'></img></div></div></div></div>,0.0,stop,,60289,0.0,practice_trial,14,stop-signal,
15,,,,,,,,,500.0,,,,,,,stop_signal_with_n_back,,,,,,0.0-0.0-15.0,-1.0,,none,,,-1,500.0,"<div class = fb_box><div class = center-text><font size = 20>There was a star.</font></div></div><div class = prompt_box><p class = center-block-text style = ""font-size:16px; line-height:80%%;"">Match the current letter to the letter that appeared 1 trial ago</p><p class = center-block-text style = ""font-size:16px; line-height:80%%;"">If they match, press the M Key</p><p class = center-block-text style = ""font-size:16px; line-height:80%%;"">If they mismatch, press the Z Key</p><p class = center-block-text style = ""font-size:16px; line-height:80%%;"">Do not respond if you see a star!</p></div>",,,,60793,0.0,practice-stop-feedback,15,poldrack-single-stim,
16,300.0,350.0,350.0,300.0,500.0,<div class = bigbox><div class = starbox><img class = center src='/static/experiments/stop_signal_with_n_back/images/stopSignal.png'></img></div></div>,go,,2000.0,,90.0,1.0,0.0,8.0,1.0,stop_signal_with_n_back,,,,,,0.0-0.0-16.0,90.0,mismatch,"[77, 90]",G,,780,1000.0,<div class = bigbox><div class = centerbox><div class = gng_number><div class = cue-text><img class = center src='/static/experiments/stop_signal_with_n_back/images/uppercase_G.png'></img></div></div></div></div>,,go,,62795,0.0,practice_trial,16,stop-signal,
17,,,,,,,,,500.0,,,,,,,stop_signal_with_n_back,,,,,,0.0-0.0-17.0,-1.0,,none,,,-1,500.0,"<div class = fb_box><div class = center-text><font size = 20>Correct!</font></div></div><div class = prompt_box><p class = center-block-text style = ""font-size:16px; line-height:80%%;"">Match the current letter to the letter that appeared 1 trial ago</p><p class = center-block-text style = ""font-size:16px; line-height:80%%;"">If they match, press the M Key</p><p class = center-block-text style = ""font-size:16px; line-height:80%%;"">If they mismatch, press the Z Key</p><p class = center-block-text style = ""font-size:16px; line-height:80%%;"">Do not respond if you see a star!</p></div>",,,,63297,0.0,practice-stop-feedback,17,poldrack-single-stim,
18,300.0,350.0,350.0,300.0,500.0,<div class = bigbox><div class = starbox><img class = center src='/static/experiments/stop_signal_with_n_back/images/stopSignal.png'></img></div></div>,go,,2000.0,,90.0,1.0,0.0,9.0,1.0,stop_signal_with_n_back,,,,,,0.0-0.0-18.0,90.0,mismatch,"[77, 90]",v,,1105,1000.0,<div class = bigbox><div class = centerbox><div class = gng_number><div class = cue-text><img class = center src='/static/experiments/stop_signal_with_n_back/images/lowercase_V.png'></img></div></div></div></div>,,go,,65302,0.0,practice_trial,18,stop-signal,
19,,,,,,,,,500.0,,,,,,,stop_signal_with_n_back,,,,,,0.0-0.0-19.0,-1.0,,none,,,-1,500.0,"<div class = fb_box><div class = center-text><font size = 20>Correct!</font></div></div><div class = prompt_box><p class = center-block-text style = ""font-size:16px; line-height:80%%;"">Match the current letter to the letter that appeared 1 trial ago</p><p class = center-block-text style = ""font-size:16px; line-height:80%%;"">If they match, press the M Key</p><p class = center-block-text style = ""font-size:16px; line-height:80%%;"">If they mismatch, press the Z Key</p><p class = center-block-text style = ""font-size:16px; line-height:80%%;"">Do not respond if you see a star!</p></div>",,,,65805,0.0,practice-stop-feedback,19,poldrack-single-stim,
20,300.0,350.0,350.0,300.0,500.0,<div class = bigbox><div class = starbox><img class = center src='/static/experiments/stop_signal_with_n_back/images/stopSignal.png'></img></div></div>,stop,,2000.0,,-1.0,1.0,0.0,10.0,1.0,stop_signal_with_n_back,,,,,,0.0-0.0-20.0,-1.0,mismatch,"[77, 90]",D,,-1,1000.0,<div class = bigbox><div class = centerbox><div class = gng_number><div class = cue-text><img class = center src='/static/experiments/stop_signal_with_n_back/images/uppercase_D.png'></img></div></div></div></div>,1.0,stop,,67807,0.0,practice_trial,20,stop-signal,
21,,,,,,,,,500.0,,,,,,,stop_signal_with_n_back,,,,,,0.0-0.0-21.0,-1.0,,none,,,-1,500.0,"<div class = fb_box><div class = center-text><font size = 20>Correct!</font></div></div><div class = prompt_box><p class = center-block-text style = ""font-size:16px; line-height:80%%;"">Match the current letter to the letter that appeared 1 trial ago</p><p class = center-block-text style = ""font-size:16px; line-height:80%%;"">If they match, press the M Key</p><p class = center-block-text style = ""font-size:16px; line-height:80%%;"">If they mismatch, press the Z Key</p><p class = center-block-text style = ""font-size:16px; line-height:80%%;"">Do not respond if you see a star!</p></div>",,,,68311,0.0,practice-stop-feedback,21,poldrack-single-stim,
22,350.0,350.0,350.0,350.0,500.0,<div class = bigbox><div class = starbox><img class = center src='/static/experiments/stop_signal_with_n_back/images/stopSignal.png'></img></div></div>,go,,2000.0,,77.0,0.0,0.0,11.0,1.0,stop_signal_with_n_back,,,,,,0.0-0.0-22.0,90.0,match,"[77, 90]",D,,869,1000.0,<div class = bigbox><div class = centerbox><div class = gng_number><div class = cue-text><img class = center src='/static/experiments/stop_signal_with_n_back/images/uppercase_D.png'></img></div></div></div></div>,,go,,70314,0.0,practice_trial,22,stop-signal,
23,,,,,,,,,500.0,,,,,,,stop_signal_with_n_back,,,,,,0.0-0.0-23.0,-1.0,,none,,,-1,500.0,"<div class = fb_box><div class = center-text><font size = 20>Incorrect</font></div></div><div class = prompt_box><p class = center-block-text style = ""font-size:16px; line-height:80%%;"">Match the current letter to the letter that appeared 1 trial ago</p><p class = center-block-text style = ""font-size:16px; line-height:80%%;"">If they match, press the M Key</p><p class = center-block-text style = ""font-size:16px; line-height:80%%;"">If they mismatch, press the Z Key</p><p class = center-block-text style = ""font-size:16px; line-height:80%%;"">Do not respond if you see a star!</p></div>",,,,70818,0.0,practice-stop-feedback,23,poldrack-single-stim,
24,350.0,350.0,350.0,350.0,500.0,<div class = bigbox><div class = starbox><img class = center src='/static/experiments/stop_signal_with_n_back/images/stopSignal.png'></img></div></div>,stop,,2000.0,,-1.0,1.0,0.0,12.0,1.0,stop_signal_with_n_back,,,,,,0.0-0.0-24.0,-1.0,mismatch,"[77, 90]",B,,-1,1000.0,<div class = bigbox><div class = centerbox><div class = gng_number><div class = cue-text><img class = center src='/static/experiments/stop_signal_with_n_back/images/uppercase_B.png'></img></div></div></div></div>,1.0,stop,,72822,0.0,practice_trial,24,stop-signal,
25,,,,,,,,,500.0,,,,,,,stop_signal_with_n_back,,,,,,0.0-0.0-25.0,-1.0,,none,,,-1,500.0,"<div class = fb_box><div class = center-text><font size = 20>Correct!</font></div></div><div class = prompt_box><p class = center-block-text style = ""font-size:16px; line-height:80%%;"">Match the current letter to the letter that appeared 1 trial ago</p><p class = center-block-text style = ""font-size:16px; line-height:80%%;"">If they match, press the M Key</p><p class = center-block-text style = ""font-size:16px; line-height:80%%;"">If they mismatch, press the Z Key</p><p class = center-block-text style = ""font-size:16px; line-height:80%%;"">Do not respond if you see a star!</p></div>",,,,73324,0.0,practice-stop-feedback,25,poldrack-single-stim,
26,400.0,350.0,350.0,400.0,500.0,<div class = bigbox><div class = starbox><img class = center src='/static/experiments/stop_signal_with_n_back/images/stopSignal.png'></img></div></div>,go,,2000.0,,77.0,0.0,0.0,13.0,1.0,stop_signal_with_n_back,,,,,,0.0-0.0-26.0,90.0,match,"[77, 90]",b,,631,1000.0,<div class = bigbox><div class = centerbox><div class = gng_number><div class = cue-text><img class = center src='/static/experiments/stop_signal_with_n_back/images/lowercase_B.png'></img></div></div></div></div>,,go,,75329,0.0,practice_trial,26,stop-signal,
27,,,,,,,,,500.0,,,,,,,stop_signal_with_n_back,,,,,,0.0-0.0-27.0,-1.0,,none,,,-1,500.0,"<div class = fb_box><div class = center-text><font size = 20>Incorrect</font></div></div><div class = prompt_box><p class = center-block-text style = ""font-size:16px; line-height:80%%;"">Match the current letter to the letter that appeared 1 trial ago</p><p class = center-block-text style = ""font-size:16px; line-height:80%%;"">If they match, press the M Key</p><p class = center-block-text style = ""font-size:16px; line-height:80%%;"">If they mismatch, press the Z Key</p><p class = center-block-text style = ""font-size:16px; line-height:80%%;"">Do not respond if you see a star!</p></div>",,,,75831,0.0,practice-stop-feedback,27,poldrack-single-stim,
28,400.0,350.0,350.0,400.0,500.0,<div class = bigbox><div class = starbox><img class = center src='/static/experiments/stop_signal_with_n_back/images/stopSignal.png'></img></div></div>,go,,2000.0,,90.0,1.0,0.0,14.0,1.0,stop_signal_with_n_back,,,,,,0.0-0.0-28.0,90.0,mismatch,"[77, 90]",D,,990,1000.0,<div class = bigbox><div class = centerbox><div class = gng_number><div class = cue-text><img class = center src='/static/experiments/stop_signal_with_n_back/images/uppercase_D.png'></img></div></div></div></div>,,go,,77834,0.0,practice_trial,28,stop-signal,
29,,,,,,,,,500.0,,,,,,,stop_signal_with_n_back,,,,,,0.0-0.0-29.0,-1.0,,none,,,-1,500.0,"<div class = fb_box><div class = center-text><font size = 20>Correct!</font></div></div><div class = prompt_box><p class = center-block-text style = ""font-size:16px; line-height:80%%;"">Match the current letter to the letter that appeared 1 trial ago</p><p class = center-block-text style = ""font-size:16px; line-height:80%%;"">If they match, press the M Key</p><p class = center-block-text style = ""font-size:16px; line-height:80%%;"">If they mismatch, press the Z Key</p><p class = center-block-text style = ""font-size:16px; line-height:80%%;"">Do not respond if you see a star!</p></div>",,,,78336,0.0,practice-stop-feedback,29,poldrack-single-stim,
30,400.0,350.0,350.0,400.0,500.0,<div class = bigbox><div class = starbox><img class = center src='/static/experiments/stop_signal_with_n_back/images/stopSignal.png'></img></div></div>,go,,2000.0,,77.0,0.0,0.0,15.0,1.0,stop_signal_with_n_back,,,,,,0.0-0.0-30.0,90.0,match,"[77, 90]",D,,771,1000.0,<div class = bigbox><div class = centerbox><div class = gng_number><div class = cue-text><img class = center src='/static/experiments/stop_signal_with_n_back/images/uppercase_D.png'></img></div></div></div></div>,,go,,80341,0.0,practice_trial,30,stop-signal,
31,,,,,,,,,500.0,,,,,,,stop_signal_with_n_back,,,,,,0.0-0.0-31.0,-1.0,,none,,,-1,500.0,"<div class = fb_box><div class = center-text><font size = 20>Incorrect</font></div></div><div class = prompt_box><p class = center-block-text style = ""font-size:16px; line-height:80%%;"">Match the current letter to the letter that appeared 1 trial ago</p><p class = center-block-text style = ""font-size:16px; line-height:80%%;"">If they match, press the M Key</p><p class = center-block-text style = ""font-size:16px; line-height:80%%;"">If they mismatch, press the Z Key</p><p class = center-block-text style = ""font-size:16px; line-height:80%%;"">Do not respond if you see a star!</p></div>",,,,80844,0.0,practice-stop-feedback,31,poldrack-single-stim,
32,400.0,350.0,350.0,400.0,500.0,<div class = bigbox><div class = starbox><img class = center src='/static/experiments/stop_signal_with_n_back/images/stopSignal.png'></img></div></div>,go,,2000.0,,90.0,1.0,0.0,16.0,1.0,stop_signal_with_n_back,,,,,,0.0-0.0-32.0,90.0,mismatch,"[77, 90]",b,,817,1000.0,<div class = bigbox><div class = centerbox><div class = gng_number><div class = cue-text><img class = center src='/static/experiments/stop_signal_with_n_back/images/lowercase_B.png'></img></div></div></div></div>,,go,,82847,0.0,practice_trial,32,stop-signal,
33,,,,,,,,,500.0,,,,,,,stop_signal_with_n_back,,,,,,0.0-0.0-33.0,-1.0,,none,,,-1,500.0,"<div class = fb_box><div class = center-text><font size = 20>Correct!</font></div></div><div class = prompt_box><p class = center-block-text style = ""font-size:16px; line-height:80%%;"">Match the current letter to the letter that appeared 1 trial ago</p><p class = center-block-text style = ""font-size:16px; line-height:80%%;"">If they match, press the M Key</p><p class = center-block-text style = ""font-size:16px; line-height:80%%;"">If they mismatch, press the Z Key</p><p class = center-block-text style = ""font-size:16px; line-height:80%%;"">Do not respond if you see a star!</p></div>",,,,83350,0.0,practice-stop-feedback,33,poldrack-single-stim,
34,400.0,350.0,350.0,400.0,500.0,<div class = bigbox><div class = starbox><img class = center src='/static/experiments/stop_signal_with_n_back/images/stopSignal.png'></img></div></div>,stop,,2000.0,,-1.0,1.0,0.0,17.0,1.0,stop_signal_with_n_back,,,,,,0.0-0.0-34.0,-1.0,mismatch,"[77, 90]",v,,-1,1000.0,<div class = bigbox><div class = centerbox><div class = gng_number><div class = cue-text><img class = center src='/static/experiments/stop_signal_with_n_back/images/lowercase_V.png'></img></div></div></div></div>,1.0,stop,,85353,0.0,practice_trial,34,stop-signal,
35,,,,,,,,,500.0,,,,,,,stop_signal_with_n_back,,,,,,0.0-0.0-35.0,-1.0,,none,,,-1,500.0,"<div class = fb_box><div class = center-text><font size = 20>Correct!</font></div></div><div class = prompt_box><p class = center-block-text style = ""font-size:16px; line-height:80%%;"">Match the current letter to the letter that appeared 1 trial ago</p><p class = center-block-text style = ""font-size:16px; line-height:80%%;"">If they match, press the M Key</p><p class = center-block-text style = ""font-size:16px; line-height:80%%;"">If they mismatch, press the Z Key</p><p class = center-block-text style = ""font-size:16px; line-height:80%%;"">Do not respond if you see a star!</p></div>",,,,85856,0.0,practice-stop-feedback,35,poldrack-single-stim,
36,450.0,350.0,350.0,450.0,500.0,<div class = bigbox><div class = starbox><img class = center src='/static/experiments/stop_signal_with_n_back/images/stopSignal.png'></img></div></div>,go,,2000.0,,90.0,1.0,0.0,18.0,1.0,stop_signal_with_n_back,,,,,,0.0-0.0-36.0,90.0,mismatch,"[77, 90]",D,,419,1000.0,<div class = bigbox><div class = centerbox><div class = gng_number><div class = cue-text><img class = center src='/static/experiments/stop_signal_with_n_back/images/uppercase_D.png'></img></div></div></div></div>,,go,,87860,0.0,practice_trial,36,stop-signal,
37,,,,,,,,,500.0,,,,,,,stop_signal_with_n_back,,,,,,0.0-0.0-37.0,-1.0,,none,,,-1,500.0,"<div class = fb_box><div class = center-text><font size = 20>Correct!</font></div></div><div class = prompt_box><p class = center-block-text style = ""font-size:16px; line-height:80%%;"">Match the current letter to the letter that appeared 1 trial ago</p><p class = center-block-text style = ""font-size:16px; line-height:80%%;"">If they match, press the M Key</p><p class = center-block-text style = ""font-size:16px; line-height:80%%;"">If they mismatch, press the Z Key</p><p class = center-block-text style = ""font-size:16px; line-height:80%%;"">Do not respond if you see a star!</p></div>",,,,88364,0.0,practice-stop-feedback,37,poldrack-single-stim,
38,450.0,350.0,350.0,450.0,500.0,<div class = bigbox><div class = starbox><img class = center src='/static/experiments/stop_signal_with_n_back/images/stopSignal.png'></img></div></div>,stop,,2000.0,,-1.0,1.0,0.0,19.0,1.0,stop_signal_with_n_back,,,,,,0.0-0.0-38.0,-1.0,mismatch,"[77, 90]",V,,-1,1000.0,<div class = bigbox><div class = centerbox><div class = gng_number><div class = cue-text><img class = center src='/static/experiments/stop_signal_with_n_back/images/uppercase_V.png'></img></div></div></div></div>,1.0,stop,,90367,0.0,practice_trial,38,stop-signal,
39,,,,,,,,,500.0,,,,,,,stop_signal_with_n_back,,,,,,0.0-0.0-39.0,-1.0,,none,,,-1,500.0,"<div class = fb_box><div class = center-text><font size = 20>Correct!</font></div></div><div class = prompt_box><p class = center-block-text style = ""font-size:16px; line-height:80%%;"">Match the current letter to the letter that appeared 1 trial ago</p><p class = center-block-text style = ""font-size:16px; line-height:80%%;"">If they match, press the M Key</p><p class = center-block-text style = ""font-size:16px; line-height:80%%;"">If they mismatch, press the Z Key</p><p class = center-block-text style = ""font-size:16px; line-height:80%%;"">Do not respond if you see a star!</p></div>",,,,90870,0.0,practice-stop-feedback,39,poldrack-single-stim,
40,500.0,350.0,350.0,500.0,500.0,<div class = bigbox><div class = starbox><img class = center src='/static/experiments/stop_signal_with_n_back/images/stopSignal.png'></img></div></div>,go,,2000.0,,77.0,1.0,0.0,20.0,1.0,stop_signal_with_n_back,,,,,,0.0-0.0-40.0,77.0,match,"[77, 90]",V,,589,1000.0,<div class = bigbox><div class = centerbox><div class = gng_number><div class = cue-text><img class = center src='/static/experiments/stop_signal_with_n_back/images/uppercase_V.png'></img></div></div></div></div>,,go,,92872,0.0,practice_trial,40,stop-signal,
41,,,,,,,,,500.0,,,,,,,stop_signal_with_n_back,,,,,,0.0-0.0-41.0,-1.0,,none,,,-1,500.0,"<div class = fb_box><div class = center-text><font size = 20>Correct!</font></div></div><div class = prompt_box><p class = center-block-text style = ""font-size:16px; line-height:80%%;"">Match the current letter to the letter that appeared 1 trial ago</p><p class = center-block-text style = ""font-size:16px; line-height:80%%;"">If they match, press the M Key</p><p class = center-block-text style = ""font-size:16px; line-height:80%%;"">If they mismatch, press the Z Key</p><p class = center-block-text style = ""font-size:16px; line-height:80%%;"">Do not respond if you see a star!</p></div>",,,,93375,0.0,practice-stop-feedback,41,poldrack-single-stim,
42,500.0,350.0,350.0,500.0,500.0,<div class = bigbox><div class = starbox><img class = center src='/static/experiments/stop_signal_with_n_back/images/stopSignal.png'></img></div></div>,stop,,2000.0,,-1.0,0.0,0.0,21.0,1.0,stop_signal_with_n_back,,,,,,0.0-0.0-42.0,90.0,mismatch,"[77, 90]",g,,764,1000.0,<div class = bigbox><div class = centerbox><div class = gng_number><div class = cue-text><img class = center src='/static/experiments/stop_signal_with_n_back/images/lowercase_G.png'></img></div></div></div></div>,0.0,stop,,95378,0.0,practice_trial,42,stop-signal,
43,,,,,,,,,500.0,,,,,,,stop_signal_with_n_back,,,,,,0.0-0.0-43.0,-1.0,,none,,,-1,500.0,"<div class = fb_box><div class = center-text><font size = 20>There was a star.</font></div></div><div class = prompt_box><p class = center-block-text style = ""font-size:16px; line-height:80%%;"">Match the current letter to the letter that appeared 1 trial ago</p><p class = center-block-text style = ""font-size:16px; line-height:80%%;"">If they match, press the M Key</p><p class = center-block-text style = ""font-size:16px; line-height:80%%;"">If they mismatch, press the Z Key</p><p class = center-block-text style = ""font-size:16px; line-height:80%%;"">Do not respond if you see a star!</p></div>",,,,95883,0.0,practice-stop-feedback,43,poldrack-single-stim,
44,450.0,350.0,350.0,450.0,500.0,<div class = bigbox><div class = starbox><img class = center src='/static/experiments/stop_signal_with_n_back/images/stopSignal.png'></img></div></div>,go,,2000.0,,90.0,1.0,0.0,22.0,1.0,stop_signal_with_n_back,,,,,,0.0-0.0-44.0,90.0,mismatch,"[77, 90]",V,,705,1000.0,<div class = bigbox><div class = centerbox><div class = gng_number><div class = cue-text><img class = center src='/static/experiments/stop_signal_with_n_back/images/uppercase_V.png'></img></div></div></div></div>,,go,,97886,0.0,practice_trial,44,stop-signal,
45,,,,,,,,,500.0,,,,,,,stop_signal_with_n_back,,,,,,0.0-0.0-45.0,-1.0,,none,,,-1,500.0,"<div class = fb_box><div class = center-text><font size = 20>Correct!</font></div></div><div class = prompt_box><p class = center-block-text style = ""font-size:16px; line-height:80%%;"">Match the current letter to the letter that appeared 1 trial ago</p><p class = center-block-text style = ""font-size:16px; line-height:80%%;"">If they match, press the M Key</p><p class = center-block-text style = ""font-size:16px; line-height:80%%;"">If they mismatch, press the Z Key</p><p class = center-block-text style = ""font-size:16px; line-height:80%%;"">Do not respond if you see a star!</p></div>",,,,98389,0.0,practice-stop-feedback,45,poldrack-single-stim,
46,450.0,350.0,350.0,450.0,500.0,<div class = bigbox><div class = starbox><img class = center src='/static/experiments/stop_signal_with_n_back/images/stopSignal.png'></img></div></div>,go,,2000.0,,90.0,1.0,0.0,23.0,1.0,stop_signal_with_n_back,,,,,,0.0-0.0-46.0,90.0,mismatch,"[77, 90]",B,,867,1000.0,<div class = bigbox><div class = centerbox><div class = gng_number><div class = cue-text><img class = center src='/static/experiments/stop_signal_with_n_back/images/uppercase_B.png'></img></div></div></div></div>,,go,,100396,0.0,practice_trial,46,stop-signal,
47,,,,,,,,,500.0,,,,,,,stop_signal_with_n_back,,,,,,0.0-0.0-47.0,-1.0,,none,,,-1,500.0,"<div class = fb_box><div class = center-text><font size = 20>Correct!</font></div></div><div class = prompt_box><p class = center-block-text style = ""font-size:16px; line-height:80%%;"">Match the current letter to the letter that appeared 1 trial ago</p><p class = center-block-text style = ""font-size:16px; line-height:80%%;"">If they match, press the M Key</p><p class = center-block-text style = ""font-size:16px; line-height:80%%;"">If they mismatch, press the Z Key</p><p class = center-block-text style = ""font-size:16px; line-height:80%%;"">Do not respond if you see a star!</p></div>",,,,100899,0.0,practice-stop-feedback,47,poldrack-single-stim,
48,450.0,350.0,350.0,450.0,500.0,<div class = bigbox><div class = starbox><img class = center src='/static/experiments/stop_signal_with_n_back/images/stopSignal.png'></img></div></div>,go,,2000.0,,77.0,0.0,0.0,24.0,1.0,stop_signal_with_n_back,,,,,,0.0-0.0-48.0,90.0,match,"[77, 90]",b,,1545,1000.0,<div class = bigbox><div class = centerbox><div class = gng_number><div class = cue-text><img class = center src='/static/experiments/stop_signal_with_n_back/images/lowercase_B.png'></img></div></div></div></div>,,go,,102901,0.0,practice_trial,48,stop-signal,
49,,,,,,,,,500.0,,,,,,,stop_signal_with_n_back,,,,,,0.0-0.0-49.0,-1.0,,none,,,-1,500.0,"<div class = fb_box><div class = center-text><font size = 20>Incorrect</font></div></div><div class = prompt_box><p class = center-block-text style = ""font-size:16px; line-height:80%%;"">Match the current letter to the letter that appeared 1 trial ago</p><p class = center-block-text style = ""font-size:16px; line-height:80%%;"">If they match, press the M Key</p><p class = center-block-text style = ""font-size:16px; line-height:80%%;"">If they mismatch, press the Z Key</p><p class = center-block-text style = ""font-size:16px; line-height:80%%;"">Do not respond if you see a star!</p></div>",,,,103404,0.0,practice-stop-feedback,49,poldrack-single-stim,
50,450.0,350.0,350.0,450.0,500.0,<div class = bigbox><div class = starbox><img class = center src='/static/experiments/stop_signal_with_n_back/images/stopSignal.png'></img></div></div>,stop,,2000.0,,-1.0,0.0,0.0,25.0,1.0,stop_signal_with_n_back,,,,,,0.0-0.0-50.0,77.0,match,"[77, 90]",b,,661,1000.0,<div class = bigbox><div class = centerbox><div class = gng_number><div class = cue-text><img class = center src='/static/experiments/stop_signal_with_n_back/images/lowercase_B.png'></img></div></div></div></div>,0.0,stop,,105409,0.0,practice_trial,50,stop-signal,
51,,,,,,,,,500.0,,,,,,,stop_signal_with_n_back,,,,,,0.0-0.0-51.0,-1.0,,none,,,-1,500.0,"<div class = fb_box><div class = center-text><font size = 20>There was a star.</font></div></div><div class = prompt_box><p class = center-block-text style = ""font-size:16px; line-height:80%%;"">Match the current letter to the letter that appeared 1 trial ago</p><p class = center-block-text style = ""font-size:16px; line-height:80%%;"">If they match, press the M Key</p><p class = center-block-text style = ""font-size:16px; line-height:80%%;"">If they mismatch, press the Z Key</p><p class = center-block-text style = ""font-size:16px; line-height:80%%;"">Do not respond if you see a star!</p></div>",,,,105911,0.0,practice-stop-feedback,51,poldrack-single-stim,
52,400.0,350.0,350.0,400.0,500.0,<div class = bigbox><div class = starbox><img class = center src='/static/experiments/stop_signal_with_n_back/images/stopSignal.png'></img></div></div>,stop,,2000.0,,-1.0,0.0,0.0,26.0,1.0,stop_signal_with_n_back,,,,,,0.0-0.0-52.0,90.0,mismatch,"[77, 90]",D,,669,1000.0,<div class = bigbox><div class = centerbox><div class = gng_number><div class = cue-text><img class = center src='/static/experiments/stop_signal_with_n_back/images/uppercase_D.png'></img></div></div></div></div>,0.0,stop,,107913,0.0,practice_trial,52,stop-signal,
53,,,,,,,,,500.0,,,,,,,stop_signal_with_n_back,,,,,,0.0-0.0-53.0,-1.0,,none,,,-1,500.0,"<div class = fb_box><div class = center-text><font size = 20>There was a star.</font></div></div><div class = prompt_box><p class = center-block-text style = ""font-size:16px; line-height:80%%;"">Match the current letter to the letter that appeared 1 trial ago</p><p class = center-block-text style = ""font-size:16px; line-height:80%%;"">If they match, press the M Key</p><p class = center-block-text style = ""font-size:16px; line-height:80%%;"">If they mismatch, press the Z Key</p><p class = center-block-text style = ""font-size:16px; line-height:80%%;"">Do not respond if you see a star!</p></div>",,,,108418,0.0,practice-stop-feedback,53,poldrack-single-stim,
54,350.0,350.0,350.0,350.0,500.0,<div class = bigbox><div class = starbox><img class = center src='/static/experiments/stop_signal_with_n_back/images/stopSignal.png'></img></div></div>,go,,2000.0,,90.0,1.0,0.0,27.0,1.0,stop_signal_with_n_back,,,,,,0.0-0.0-54.0,90.0,mismatch,"[77, 90]",G,,906,1000.0,<div class = bigbox><div class = centerbox><div class = gng_number><div class = cue-text><img class = center src='/static/experiments/stop_signal_with_n_back/images/uppercase_G.png'></img></div></div></div></div>,,go,,110420,0.0,practice_trial,54,stop-signal,
55,,,,,,,,,500.0,,,,,,,stop_signal_with_n_back,,,,,,0.0-0.0-55.0,-1.0,,none,,,-1,500.0,"<div class = fb_box><div class = center-text><font size = 20>Correct!</font></div></div><div class = prompt_box><p class = center-block-text style = ""font-size:16px; line-height:80%%;"">Match the current letter to the letter that appeared 1 trial ago</p><p class = center-block-text style = ""font-size:16px; line-height:80%%;"">If they match, press the M Key</p><p class = center-block-text style = ""font-size:16px; line-height:80%%;"">If they mismatch, press the Z Key</p><p class = center-block-text style = ""font-size:16px; line-height:80%%;"">Do not respond if you see a star!</p></div>",,,,110923,0.0,practice-stop-feedback,55,poldrack-single-stim,
56,350.0,350.0,350.0,350.0,500.0,<div class = bigbox><div class = starbox><img class = center src='/static/experiments/stop_signal_with_n_back/images/stopSignal.png'></img></div></div>,go,,2000.0,,90.0,1.0,0.0,28.0,1.0,stop_signal_with_n_back,,,,,,0.0-0.0-56.0,90.0,mismatch,"[77, 90]",b,,880,1000.0,<div class = bigbox><div class = centerbox><div class = gng_number><div class = cue-text><img class = center src='/static/experiments/stop_signal_with_n_back/images/lowercase_B.png'></img></div></div></div></div>,,go,,112926,0.0,practice_trial,56,stop-signal,
57,,,,,,,,,500.0,,,,,,,stop_signal_with_n_back,,,,,,0.0-0.0-57.0,-1.0,,none,,,-1,500.0,"<div class = fb_box><div class = center-text><font size = 20>Correct!</font></div></div><div class = prompt_box><p class = center-block-text style = ""font-size:16px; line-height:80%%;"">Match the current letter to the letter that appeared 1 trial ago</p><p class = center-block-text style = ""font-size:16px; line-height:80%%;"">If they match, press the M Key</p><p class = center-block-text style = ""font-size:16px; line-height:80%%;"">If they mismatch, press the Z Key</p><p class = center-block-text style = ""font-size:16px; line-height:80%%;"">Do not respond if you see a star!</p></div>",,,,113428,0.0,practice-stop-feedback,57,poldrack-single-stim,
58,350.0,350.0,350.0,350.0,500.0,<div class = bigbox><div class = starbox><img class = center src='/static/experiments/stop_signal_with_n_back/images/stopSignal.png'></img></div></div>,go,,2000.0,,90.0,1.0,0.0,29.0,1.0,stop_signal_with_n_back,,,,,,0.0-0.0-58.0,90.0,mismatch,"[77, 90]",v,,759,1000.0,<div class = bigbox><div class = centerbox><div class = gng_number><div class = cue-text><img class = center src='/static/experiments/stop_signal_with_n_back/images/lowercase_V.png'></img></div></div></div></div>,,go,,115431,0.0,practice_trial,58,stop-signal,
59,,,,,,,,,500.0,,,,,,,stop_signal_with_n_back,,,,,,0.0-0.0-59.0,-1.0,,none,,,-1,500.0,"<div class = fb_box><div class = center-text><font size = 20>Correct!</font></div></div><div class = prompt_box><p class = center-block-text style = ""font-size:16px; line-height:80%%;"">Match the current letter to the letter that appeared 1 trial ago</p><p class = center-block-text style = ""font-size:16px; line-height:80%%;"">If they match, press the M Key</p><p class = center-block-text style = ""font-size:16px; line-height:80%%;"">If they mismatch, press the Z Key</p><p class = center-block-text style = ""font-size:16px; line-height:80%%;"">Do not respond if you see a star!</p></div>",,,,115933,0.0,practice-stop-feedback,59,poldrack-single-stim,
60,350.0,350.0,350.0,350.0,500.0,<div class = bigbox><div class = starbox><img class = center src='/static/experiments/stop_signal_with_n_back/images/stopSignal.png'></img></div></div>,go,,2000.0,,90.0,1.0,0.0,30.0,1.0,stop_signal_with_n_back,,,,,,0.0-0.0-60.0,90.0,mismatch,"[77, 90]",T,,830,1000.0,<div class = bigbox><div class = centerbox><div class = gng_number><div class = cue-text><img class = center src='/static/experiments/stop_signal_with_n_back/images/uppercase_T.png'></img></div></div></div></div>,,go,,117938,0.0,practice_trial,60,stop-signal,
61,,,,,,,,,500.0,,,,,,,stop_signal_with_n_back,,,,,,0.0-0.0-61.0,-1.0,,none,,,-1,500.0,"<div class = fb_box><div class = center-text><font size = 20>Correct!</font></div></div><div class = prompt_box><p class = center-block-text style = ""font-size:16px; line-height:80%%;"">Match the current letter to the letter that appeared 1 trial ago</p><p class = center-block-text style = ""font-size:16px; line-height:80%%;"">If they match, press the M Key</p><p class = center-block-text style = ""font-size:16px; line-height:80%%;"">If they mismatch, press the Z Key</p><p class = center-block-text style = ""font-size:16px; line-height:80%%;"">Do not respond if you see a star!</p></div>",,,,118440,0.0,practice-stop-feedback,61,poldrack-single-stim,
62,350.0,350.0,350.0,350.0,500.0,<div class = bigbox><div class = starbox><img class = center src='/static/experiments/stop_signal_with_n_back/images/stopSignal.png'></img></div></div>,go,,2000.0,,90.0,1.0,0.0,31.0,1.0,stop_signal_with_n_back,,,,,,0.0-0.0-62.0,90.0,mismatch,"[77, 90]",v,,556,1000.0,<div class = bigbox><div class = centerbox><div class = gng_number><div class = cue-text><img class = center src='/static/experiments/stop_signal_with_n_back/images/lowercase_V.png'></img></div></div></div></div>,,go,,120444,0.0,practice_trial,62,stop-signal,
63,,,,,,,,,500.0,,,,,,,stop_signal_with_n_back,,,,,,0.0-0.0-63.0,-1.0,,none,,,-1,500.0,"<div class = fb_box><div class = center-text><font size = 20>Correct!</font></div></div><div class = prompt_box><p class = center-block-text style = ""font-size:16px; line-height:80%%;"">Match the current letter to the letter that appeared 1 trial ago</p><p class = center-block-text style = ""font-size:16px; line-height:80%%;"">If they match, press the M Key</p><p class = center-block-text style = ""font-size:16px; line-height:80%%;"">If they mismatch, press the Z Key</p><p class = center-block-text style = ""font-size:16px; line-height:80%%;"">Do not respond if you see a star!</p></div>",,,,120946,0.0,practice-stop-feedback,63,poldrack-single-stim,
64,350.0,350.0,350.0,350.0,500.0,<div class = bigbox><div class = starbox><img class = center src='/static/experiments/stop_signal_with_n_back/images/stopSignal.png'></img></div></div>,go,,2000.0,,90.0,0.0,0.0,32.0,1.0,stop_signal_with_n_back,,,,,,0.0-0.0-64.0,-1.0,mismatch,"[77, 90]",d,,-1,1000.0,<div class = bigbox><div class = centerbox><div class = gng_number><div class = cue-text><img class = center src='/static/experiments/stop_signal_with_n_back/images/lowercase_D.png'></img></div></div></div></div>,,go,,122948,0.0,practice_trial,64,stop-signal,
65,,,,,,,,,500.0,,,,,,,stop_signal_with_n_back,,,,,,0.0-0.0-65.0,-1.0,,none,,,-1,500.0,"<div class = fb_box><div class = center-text><font size = 20>Respond Faster!</font></div></div><div class = prompt_box><p class = center-block-text style = ""font-size:16px; line-height:80%%;"">Match the current letter to the letter that appeared 1 trial ago</p><p class = center-block-text style = ""font-size:16px; line-height:80%%;"">If they match, press the M Key</p><p class = center-block-text style = ""font-size:16px; line-height:80%%;"">If they mismatch, press the Z Key</p><p class = center-block-text style = ""font-size:16px; line-height:80%%;"">Do not respond if you see a star!</p></div>",,,,123450,0.0,practice-stop-feedback,65,poldrack-single-stim,
66,350.0,350.0,350.0,350.0,500.0,<div class = bigbox><div class = starbox><img class = center src='/static/experiments/stop_signal_with_n_back/images/stopSignal.png'></img></div></div>,go,,2000.0,,90.0,0.0,0.0,33.0,1.0,stop_signal_with_n_back,,,,,,0.0-0.0-66.0,-1.0,mismatch,"[77, 90]",V,,-1,1000.0,<div class = bigbox><div class = centerbox><div class = gng_number><div class = cue-text><img class = center src='/static/experiments/stop_signal_with_n_back/images/uppercase_V.png'></img></div></div></div></div>,,go,,125452,0.0,practice_trial,66,stop-signal,
67,,,,,,,,,500.0,,,,,,,stop_signal_with_n_back,,,,,,0.0-0.0-67.0,-1.0,,none,,,-1,500.0,"<div class = fb_box><div class = center-text><font size = 20>Respond Faster!</font></div></div><div class = prompt_box><p class = center-block-text style = ""font-size:16px; line-height:80%%;"">Match the current letter to the letter that appeared 1 trial ago</p><p class = center-block-text style = ""font-size:16px; line-height:80%%;"">If they match, press the M Key</p><p class = center-block-text style = ""font-size:16px; line-height:80%%;"">If they mismatch, press the Z Key</p><p class = center-block-text style = ""font-size:16px; line-height:80%%;"">Do not respond if you see a star!</p></div>",,,,125956,0.0,practice-stop-feedback,67,poldrack-single-stim,
68,350.0,350.0,350.0,350.0,500.0,<div class = bigbox><div class = starbox><img class = center src='/static/experiments/stop_signal_with_n_back/images/stopSignal.png'></img></div></div>,go,,2000.0,,77.0,0.0,0.0,34.0,1.0,stop_signal_with_n_back,,,,,,0.0-0.0-68.0,90.0,match,"[77, 90]",V,,457,1000.0,<div class = bigbox><div class = centerbox><div class = gng_number><div class = cue-text><img class = center src='/static/experiments/stop_signal_with_n_back/images/uppercase_V.png'></img></div></div></div></div>,,go,,127959,0.0,practice_trial,68,stop-signal,
69,,,,,,,,,500.0,,,,,,,stop_signal_with_n_back,,,,,,0.0-0.0-69.0,-1.0,,none,,,-1,500.0,"<div class = fb_box><div class = center-text><font size = 20>Incorrect</font></div></div><div class = prompt_box><p class = center-block-text style = ""font-size:16px; line-height:80%%;"">Match the current letter to the letter that appeared 1 trial ago</p><p class = center-block-text style = ""font-size:16px; line-height:80%%;"">If they match, press the M Key</p><p class = center-block-text style = ""font-size:16px; line-height:80%%;"">If they mismatch, press the Z Key</p><p class = center-block-text style = ""font-size:16px; line-height:80%%;"">Do not respond if you see a star!</p></div>",,,,128461,0.0,practice-stop-feedback,69,poldrack-single-stim,
70,350.0,350.0,350.0,350.0,500.0,<div class = bigbox><div class = starbox><img class = center src='/static/experiments/stop_signal_with_n_back/images/stopSignal.png'></img></div></div>,go,,2000.0,,90.0,1.0,0.0,35.0,1.0,stop_signal_with_n_back,,,,,,0.0-0.0-70.0,90.0,mismatch,"[77, 90]",D,,750,1000.0,<div class = bigbox><div class = centerbox><div class = gng_number><div class = cue-text><img class = center src='/static/experiments/stop_signal_with_n_back/images/uppercase_D.png'></img></div></div></div></div>,,go,,130465,0.0,practice_trial,70,stop-signal,
71,,,,,,,,,500.0,,,,,,,stop_signal_with_n_back,,,,,,0.0-0.0-71.0,-1.0,,none,,,-1,500.0,"<div class = fb_box><div class = center-text><font size = 20>Correct!</font></div></div><div class = prompt_box><p class = center-block-text style = ""font-size:16px; line-height:80%%;"">Match the current letter to the letter that appeared 1 trial ago</p><p class = center-block-text style = ""font-size:16px; line-height:80%%;"">If they match, press the M Key</p><p class = center-block-text style = ""font-size:16px; line-height:80%%;"">If they mismatch, press the Z Key</p><p class = center-block-text style = ""font-size:16px; line-height:80%%;"">Do not respond if you see a star!</p></div>",,,,130967,0.0,practice-stop-feedback,71,poldrack-single-stim,
72,350.0,350.0,350.0,350.0,500.0,<div class = bigbox><div class = starbox><img class = center src='/static/experiments/stop_signal_with_n_back/images/stopSignal.png'></img></div></div>,go,,2000.0,,90.0,1.0,0.0,36.0,1.0,stop_signal_with_n_back,,,,,,0.0-0.0-72.0,90.0,mismatch,"[77, 90]",b,,564,1000.0,<div class = bigbox><div class = centerbox><div class = gng_number><div class = cue-text><img class = center src='/static/experiments/stop_signal_with_n_back/images/lowercase_B.png'></img></div></div></div></div>,,go,,132971,0.0,practice_trial,72,stop-signal,
73,,,,,,,,,500.0,,,,,,,stop_signal_with_n_back,,,,,,0.0-0.0-73.0,-1.0,,none,,,-1,500.0,"<div class = fb_box><div class = center-text><font size = 20>Correct!</font></div></div><div class = prompt_box><p class = center-block-text style = ""font-size:16px; line-height:80%%;"">Match the current letter to the letter that appeared 1 trial ago</p><p class = center-block-text style = ""font-size:16px; line-height:80%%;"">If they match, press the M Key</p><p class = center-block-text style = ""font-size:16px; line-height:80%%;"">If they mismatch, press the Z Key</p><p class = center-block-text style = ""font-size:16px; line-height:80%%;"">Do not respond if you see a star!</p></div>",,,,133474,0.0,practice-stop-feedback,73,poldrack-single-stim,
74,350.0,350.0,350.0,350.0,500.0,<div class = bigbox><div class = starbox><img class = center src='/static/experiments/stop_signal_with_n_back/images/stopSignal.png'></img></div></div>,go,,2000.0,,90.0,1.0,0.0,37.0,1.0,stop_signal_with_n_back,,,,,,0.0-0.0-74.0,90.0,mismatch,"[77, 90]",V,,672,1000.0,<div class = bigbox><div class = centerbox><div class = gng_number><div class = cue-text><img class = center src='/static/experiments/stop_signal_with_n_back/images/uppercase_V.png'></img></div></div></div></div>,,go,,135478,0.0,practice_trial,74,stop-signal,
75,,,,,,,,,500.0,,,,,,,stop_signal_with_n_back,,,,,,0.0-0.0-75.0,-1.0,,none,,,-1,500.0,"<div class = fb_box><div class = center-text><font size = 20>Correct!</font></div></div><div class = prompt_box><p class = center-block-text style = ""font-size:16px; line-height:80%%;"">Match the current letter to the letter that appeared 1 trial ago</p><p class = center-block-text style = ""font-size:16px; line-height:80%%;"">If they match, press the M Key</p><p class = center-block-text style = ""font-size:16px; line-height:80%%;"">If they mismatch, press the Z Key</p><p class = center-block-text style = ""font-size:16px; line-height:80%%;"">Do not respond if you see a star!</p></div>",,,,135980,0.0,practice-stop-feedback,75,poldrack-single-stim,
76,350.0,350.0,350.0,350.0,500.0,<div class = bigbox><div class = starbox><img class = center src='/static/experiments/stop_signal_with_n_back/images/stopSignal.png'></img></div></div>,stop,,2000.0,,-1.0,1.0,0.0,38.0,1.0,stop_signal_with_n_back,,,,,,0.0-0.0-76.0,-1.0,mismatch,"[77, 90]",g,,-1,1000.0,<div class = bigbox><div class = centerbox><div class = gng_number><div class = cue-text><img class = center src='/static/experiments/stop_signal_with_n_back/images/lowercase_G.png'></img></div></div></div></div>,1.0,stop,,137983,0.0,practice_trial,76,stop-signal,
77,,,,,,,,,500.0,,,,,,,stop_signal_with_n_back,,,,,,0.0-0.0-77.0,-1.0,,none,,,-1,500.0,"<div class = fb_box><div class = center-text><font size = 20>Correct!</font></div></div><div class = prompt_box><p class = center-block-text style = ""font-size:16px; line-height:80%%;"">Match the current letter to the letter that appeared 1 trial ago</p><p class = center-block-text style = ""font-size:16px; line-height:80%%;"">If they match, press the M Key</p><p class = center-block-text style = ""font-size:16px; line-height:80%%;"">If they mismatch, press the Z Key</p><p class = center-block-text style = ""font-size:16px; line-height:80%%;"">Do not respond if you see a star!</p></div>",,,,138486,0.0,practice-stop-feedback,77,poldrack-single-stim,
78,400.0,350.0,350.0,400.0,500.0,<div class = bigbox><div class = starbox><img class = center src='/static/experiments/stop_signal_with_n_back/images/stopSignal.png'></img></div></div>,go,,2000.0,,90.0,1.0,0.0,39.0,1.0,stop_signal_with_n_back,,,,,,0.0-0.0-78.0,90.0,mismatch,"[77, 90]",v,,654,1000.0,<div class = bigbox><div class = centerbox><div class = gng_number><div class = cue-text><img class = center src='/static/experiments/stop_signal_with_n_back/images/lowercase_V.png'></img></div></div></div></div>,,go,,140489,0.0,practice_trial,78,stop-signal,
79,,,,,,,,,500.0,,,,,,,stop_signal_with_n_back,,,,,,0.0-0.0-79.0,-1.0,,none,,,-1,500.0,"<div class = fb_box><div class = center-text><font size = 20>Correct!</font></div></div><div class = prompt_box><p class = center-block-text style = ""font-size:16px; line-height:80%%;"">Match the current letter to the letter that appeared 1 trial ago</p><p class = center-block-text style = ""font-size:16px; line-height:80%%;"">If they match, press the M Key</p><p class = center-block-text style = ""font-size:16px; line-height:80%%;"">If they mismatch, press the Z Key</p><p class = center-block-text style = ""font-size:16px; line-height:80%%;"">Do not respond if you see a star!</p></div>",,,,140992,0.0,practice-stop-feedback,79,poldrack-single-stim,
80,400.0,350.0,350.0,400.0,500.0,<div class = bigbox><div class = starbox><img class = center src='/static/experiments/stop_signal_with_n_back/images/stopSignal.png'></img></div></div>,stop,,2000.0,,-1.0,1.0,0.0,40.0,1.0,stop_signal_with_n_back,,,,,,0.0-0.0-80.0,-1.0,mismatch,"[77, 90]",d,,-1,1000.0,<div class = bigbox><div class = centerbox><div class = gng_number><div class = cue-text><img class = center src='/static/experiments/stop_signal_with_n_back/images/lowercase_D.png'></img></div></div></div></div>,1.0,stop,,142995,0.0,practice_trial,80,stop-signal,
81,,,,,,,,,500.0,,,,,,,stop_signal_with_n_back,,,,,,0.0-0.0-81.0,-1.0,,none,,,-1,500.0,"<div class = fb_box><div class = center-text><font size = 20>Correct!</font></div></div><div class = prompt_box><p class = center-block-text style = ""font-size:16px; line-height:80%%;"">Match the current letter to the letter that appeared 1 trial ago</p><p class = center-block-text style = ""font-size:16px; line-height:80%%;"">If they match, press the M Key</p><p class = center-block-text style = ""font-size:16px; line-height:80%%;"">If they mismatch, press the Z Key</p><p class = center-block-text style = ""font-size:16px; line-height:80%%;"">Do not respond if you see a star!</p></div>",,,,143499,0.0,practice-stop-feedback,81,poldrack-single-stim,
82,450.0,350.0,350.0,450.0,500.0,<div class = bigbox><div class = starbox><img class = center src='/static/experiments/stop_signal_with_n_back/images/stopSignal.png'></img></div></div>,stop,,2000.0,,-1.0,1.0,0.0,41.0,1.0,stop_signal_with_n_back,,,,,,0.0-0.0-82.0,-1.0,match,"[77, 90]",d,,-1,1000.0,<div class = bigbox><div class = centerbox><div class = gng_number><div class = cue-text><img class = center src='/static/experiments/stop_signal_with_n_back/images/lowercase_D.png'></img></div></div></div></div>,1.0,stop,,145502,0.0,practice_trial,82,stop-signal,
83,,,,,,,,,500.0,,,,,,,stop_signal_with_n_back,,,,,,0.0-0.0-83.0,-1.0,,none,,,-1,500.0,"<div class = fb_box><div class = center-text><font size = 20>Correct!</font></div></div><div class = prompt_box><p class = center-block-text style = ""font-size:16px; line-height:80%%;"">Match the current letter to the letter that appeared 1 trial ago</p><p class = center-block-text style = ""font-size:16px; line-height:80%%;"">If they match, press the M Key</p><p class = center-block-text style = ""font-size:16px; line-height:80%%;"">If they mismatch, press the Z Key</p><p class = center-block-text style = ""font-size:16px; line-height:80%%;"">Do not respond if you see a star!</p></div>",,,,146005,0.0,practice-stop-feedback,83,poldrack-single-stim,
84,500.0,350.0,350.0,500.0,500.0,<div class = bigbox><div class = starbox><img class = center src='/static/experiments/stop_signal_with_n_back/images/stopSignal.png'></img></div></div>,go,,2000.0,,90.0,1.0,0.0,42.0,1.0,stop_signal_with_n_back,,,,,,0.0-0.0-84.0,90.0,mismatch,"[77, 90]",g,,775,1000.0,<div class = bigbox><div class = centerbox><div class = gng_number><div class = cue-text><img class = center src='/static/experiments/stop_signal_with_n_back/images/lowercase_G.png'></img></div></div></div></div>,,go,,148007,0.0,practice_trial,84,stop-signal,
85,,,,,,,,,500.0,,,,,,,stop_signal_with_n_back,,,,,,0.0-0.0-85.0,-1.0,,none,,,-1,500.0,"<div class = fb_box><div class = center-text><font size = 20>Correct!</font></div></div><div class = prompt_box><p class = center-block-text style = ""font-size:16px; line-height:80%%;"">Match the current letter to the letter that appeared 1 trial ago</p><p class = center-block-text style = ""font-size:16px; line-height:80%%;"">If they match, press the M Key</p><p class = center-block-text style = ""font-size:16px; line-height:80%%;"">If they mismatch, press the Z Key</p><p class = center-block-text style = ""font-size:16px; line-height:80%%;"">Do not respond if you see a star!</p></div>",,,,148510,0.0,practice-stop-feedback,85,poldrack-single-stim,
86,500.0,350.0,350.0,500.0,500.0,<div class = bigbox><div class = starbox><img class = center src='/static/experiments/stop_signal_with_n_back/images/stopSignal.png'></img></div></div>,stop,,2000.0,,-1.0,1.0,0.0,43.0,1.0,stop_signal_with_n_back,,,,,,0.0-0.0-86.0,-1.0,mismatch,"[77, 90]",D,,-1,1000.0,<div class = bigbox><div class = centerbox><div class = gng_number><div class = cue-text><img class = center src='/static/experiments/stop_signal_with_n_back/images/uppercase_D.png'></img></div></div></div></div>,1.0,stop,,150513,0.0,practice_trial,86,stop-signal,
87,,,,,,,,,500.0,,,,,,,stop_signal_with_n_back,,,,,,0.0-0.0-87.0,-1.0,,none,,,-1,500.0,"<div class = fb_box><div class = center-text><font size = 20>Correct!</font></div></div><div class = prompt_box><p class = center-block-text style = ""font-size:16px; line-height:80%%;"">Match the current letter to the letter that appeared 1 trial ago</p><p class = center-block-text style = ""font-size:16px; line-height:80%%;"">If they match, press the M Key</p><p class = center-block-text style = ""font-size:16px; line-height:80%%;"">If they mismatch, press the Z Key</p><p class = center-block-text style = ""font-size:16px; line-height:80%%;"">Do not respond if you see a star!</p></div>",,,,151015,0.0,practice-stop-feedback,87,poldrack-single-stim,
88,550.0,350.0,350.0,550.0,500.0,<div class = bigbox><div class = starbox><img class = center src='/static/experiments/stop_signal_with_n_back/images/stopSignal.png'></img></div></div>,stop,,2000.0,,-1.0,0.0,0.0,44.0,1.0,stop_signal_with_n_back,,,,,,0.0-0.0-88.0,90.0,mismatch,"[77, 90]",B,,734,1000.0,<div class = bigbox><div class = centerbox><div class = gng_number><div class = cue-text><img class = center src='/static/experiments/stop_signal_with_n_back/images/uppercase_B.png'></img></div></div></div></div>,0.0,stop,,153018,0.0,practice_trial,88,stop-signal,
89,,,,,,,,,500.0,,,,,,,stop_signal_with_n_back,,,,,,0.0-0.0-89.0,-1.0,,none,,,-1,500.0,"<div class = fb_box><div class = center-text><font size = 20>There was a star.</font></div></div><div class = prompt_box><p class = center-block-text style = ""font-size:16px; line-height:80%%;"">Match the current letter to the letter that appeared 1 trial ago</p><p class = center-block-text style = ""font-size:16px; line-height:80%%;"">If they match, press the M Key</p><p class = center-block-text style = ""font-size:16px; line-height:80%%;"">If they mismatch, press the Z Key</p><p class = center-block-text style = ""font-size:16px; line-height:80%%;"">Do not respond if you see a star!</p></div>",,,,153521,0.0,practice-stop-feedback,89,poldrack-single-stim,
90,500.0,350.0,350.0,500.0,500.0,<div class = bigbox><div class = starbox><img class = center src='/static/experiments/stop_signal_with_n_back/images/stopSignal.png'></img></div></div>,go,,2000.0,,90.0,1.0,0.0,45.0,1.0,stop_signal_with_n_back,,,,,,0.0-0.0-90.0,90.0,mismatch,"[77, 90]",t,,803,1000.0,<div class = bigbox><div class = centerbox><div class = gng_number><div class = cue-text><img class = center src='/static/experiments/stop_signal_with_n_back/images/lowercase_T.png'></img></div></div></div></div>,,go,,155523,0.0,practice_trial,90,stop-signal,
91,,,,,,,,,500.0,,,,,,,stop_signal_with_n_back,,,,,,0.0-0.0-91.0,-1.0,,none,,,-1,500.0,"<div class = fb_box><div class = center-text><font size = 20>Correct!</font></div></div><div class = prompt_box><p class = center-block-text style = ""font-size:16px; line-height:80%%;"">Match the current letter to the letter that appeared 1 trial ago</p><p class = center-block-text style = ""font-size:16px; line-height:80%%;"">If they match, press the M Key</p><p class = center-block-text style = ""font-size:16px; line-height:80%%;"">If they mismatch, press the Z Key</p><p class = center-block-text style = ""font-size:16px; line-height:80%%;"">Do not respond if you see a star!</p></div>",,,,156026,0.0,practice-stop-feedback,91,poldrack-single-stim,
92,500.0,350.0,350.0,500.0,500.0,<div class = bigbox><div class = starbox><img class = center src='/static/experiments/stop_signal_with_n_back/images/stopSignal.png'></img></div></div>,go,,2000.0,,90.0,1.0,0.0,46.0,1.0,stop_signal_with_n_back,,,,,,0.0-0.0-92.0,90.0,mismatch,"[77, 90]",d,,1129,1000.0,<div class = bigbox><div class = centerbox><div class = gng_number><div class = cue-text><img class = center src='/static/experiments/stop_signal_with_n_back/images/lowercase_D.png'></img></div></div></div></div>,,go,,158029,0.0,practice_trial,92,stop-signal,
93,,,,,,,,,500.0,,,,,,,stop_signal_with_n_back,,,,,,0.0-0.0-93.0,-1.0,,none,,,-1,500.0,"<div class = fb_box><div class = center-text><font size = 20>Correct!</font></div></div><div class = prompt_box><p class = center-block-text style = ""font-size:16px; line-height:80%%;"">Match the current letter to the letter that appeared 1 trial ago</p><p class = center-block-text style = ""font-size:16px; line-height:80%%;"">If they match, press the M Key</p><p class = center-block-text style = ""font-size:16px; line-height:80%%;"">If they mismatch, press the Z Key</p><p class = center-block-text style = ""font-size:16px; line-height:80%%;"">Do not respond if you see a star!</p></div>",,,,158532,0.0,practice-stop-feedback,93,poldrack-single-stim,
94,500.0,350.0,350.0,500.0,500.0,<div class = bigbox><div class = starbox><img class = center src='/static/experiments/stop_signal_with_n_back/images/stopSignal.png'></img></div></div>,stop,,2000.0,,-1.0,0.0,0.0,47.0,1.0,stop_signal_with_n_back,,,,,,0.0-0.0-94.0,77.0,match,"[77, 90]",D,,727,1000.0,<div class = bigbox><div class = centerbox><div class = gng_number><div class = cue-text><img class = center src='/static/experiments/stop_signal_with_n_back/images/uppercase_D.png'></img></div></div></div></div>,0.0,stop,,160535,0.0,practice_trial,94,stop-signal,
95,,,,,,,,,500.0,,,,,,,stop_signal_with_n_back,,,,,,0.0-0.0-95.0,-1.0,,none,,,-1,500.0,"<div class = fb_box><div class = center-text><font size = 20>There was a star.</font></div></div><div class = prompt_box><p class = center-block-text style = ""font-size:16px; line-height:80%%;"">Match the current letter to the letter that appeared 1 trial ago</p><p class = center-block-text style = ""font-size:16px; line-height:80%%;"">If they match, press the M Key</p><p class = center-block-text style = ""font-size:16px; line-height:80%%;"">If they mismatch, press the Z Key</p><p class = center-block-text style = ""font-size:16px; line-height:80%%;"">Do not respond if you see a star!</p></div>",,,,161038,0.0,practice-stop-feedback,95,poldrack-single-stim,
96,450.0,350.0,350.0,450.0,500.0,<div class = bigbox><div class = starbox><img class = center src='/static/experiments/stop_signal_with_n_back/images/stopSignal.png'></img></div></div>,go,,2000.0,,90.0,1.0,0.0,48.0,1.0,stop_signal_with_n_back,,,,,,0.0-0.0-96.0,90.0,mismatch,"[77, 90]",G,,701,1000.0,<div class = bigbox><div class = centerbox><div class = gng_number><div class = cue-text><img class = center src='/static/experiments/stop_signal_with_n_back/images/uppercase_G.png'></img></div></div></div></div>,,go,,163040,0.0,practice_trial,96,stop-signal,
97,,,,,,,,,500.0,,,,,,,stop_signal_with_n_back,,,,,,0.0-0.0-97.0,-1.0,,none,,,-1,500.0,"<div class = fb_box><div class = center-text><font size = 20>Correct!</font></div></div><div class = prompt_box><p class = center-block-text style = ""font-size:16px; line-height:80%%;"">Match the current letter to the letter that appeared 1 trial ago</p><p class = center-block-text style = ""font-size:16px; line-height:80%%;"">If they match, press the M Key</p><p class = center-block-text style = ""font-size:16px; line-height:80%%;"">If they mismatch, press the Z Key</p><p class = center-block-text style = ""font-size:16px; line-height:80%%;"">Do not respond if you see a star!</p></div>",,,,163547,0.0,practice-stop-feedback,97,poldrack-single-stim,
98,,,,,,,,,15154.0,,,,,,,stop_signal_with_n_back,,,,,,0.0-0.1-0.1,13.0,,[13],,,15154,15154.0,"<div class = bigbox><div class = picture_box><p class = block-text><font color=""white""><br>Please take this time to read your feedback and to take a short break! Press enter to continue.</p><p class = block-text>Redoing this practice. Press Enter to continue.</font></p></div></div>",,,,178711,0.0,practice-no-stop-feedback,98,poldrack-single-stim,
99,,,,,,,,,,,,,,,,stop_signal_with_n_back,,,,,,0.0-0.1-1.1,,,,,,11375,,,,,,190087,,instruction,99,poldrack-instructions,"[{""page_index"":0,""viewing_time"":7652},{""page_index"":1,""viewing_time"":2695},{""page_index"":2,""viewing_time"":1027}]"
100,450.0,350.0,350.0,450.0,500.0,<div class = bigbox><div class = starbox><img class = center src='/static/experiments/stop_signal_with_n_back/images/stopSignal.png'></img></div></div>,go,,2000.0,,90.0,0.0,1.0,1.0,1.0,stop_signal_with_n_back,,,,,,0.0-0.1-2.1,-1.0,N/A,"[77, 90]",D,,-1,1000.0,<div class = bigbox><div class = centerbox><div class = gng_number><div class = cue-text><img class = center src='/static/experiments/stop_signal_with_n_back/images/uppercase_D.png'></img></div></div></div></div>,,go,,193091,0.0,practice_trial,100,stop-signal,
101,,,,,,,,,500.0,,,,,,,stop_signal_with_n_back,,,,,,0.0-0.1-3.1,-1.0,,none,,,-1,500.0,"<div class = fb_box><div class = center-text><font size = 20>Respond Faster!</font></div></div><div class = prompt_box><p class = center-block-text style = ""font-size:16px; line-height:80%%;"">Match the current letter to the letter that appeared 1 trial ago</p><p class = center-block-text style = ""font-size:16px; line-height:80%%;"">If they match, press the M Key</p><p class = center-block-text style = ""font-size:16px; line-height:80%%;"">If they mismatch, press the Z Key</p><p class = center-block-text style = ""font-size:16px; line-height:80%%;"">Do not respond if you see a star!</p></div>",,,,193595,0.0,practice-stop-feedback,101,poldrack-single-stim,
102,450.0,350.0,350.0,450.0,500.0,<div class = bigbox><div class = starbox><img class = center src='/static/experiments/stop_signal_with_n_back/images/stopSignal.png'></img></div></div>,stop,,2000.0,,77.0,0.0,1.0,2.0,1.0,stop_signal_with_n_back,,,,,,0.0-0.1-4.1,90.0,match,"[77, 90]",d,,800,1000.0,<div class = bigbox><div class = centerbox><div class = gng_number><div class = cue-text><img class = center src='/static/experiments/stop_signal_with_n_back/images/lowercase_D.png'></img></div></div></div></div>,0.0,stop,,195598,0.0,practice_trial,102,stop-signal,
103,,,,,,,,,500.0,,,,,,,stop_signal_with_n_back,,,,,,0.0-0.1-5.1,-1.0,,none,,,-1,500.0,"<div class = fb_box><div class = center-text><font size = 20>There was a star.</font></div></div><div class = prompt_box><p class = center-block-text style = ""font-size:16px; line-height:80%%;"">Match the current letter to the letter that appeared 1 trial ago</p><p class = center-block-text style = ""font-size:16px; line-height:80%%;"">If they match, press the M Key</p><p class = center-block-text style = ""font-size:16px; line-height:80%%;"">If they mismatch, press the Z Key</p><p class = center-block-text style = ""font-size:16px; line-height:80%%;"">Do not respond if you see a star!</p></div>",,,,196100,0.0,practice-stop-feedback,103,poldrack-single-stim,
104,400.0,350.0,350.0,400.0,500.0,<div class = bigbox><div class = starbox><img class = center src='/static/experiments/stop_signal_with_n_back/images/stopSignal.png'></img></div></div>,stop,,2000.0,,90.0,0.0,1.0,3.0,1.0,stop_signal_with_n_back,,,,,,0.0-0.1-6.1,-1.0,mismatch,"[77, 90]",t,,-1,1000.0,<div class = bigbox><div class = centerbox><div class = gng_number><div class = cue-text><img class = center src='/static/experiments/stop_signal_with_n_back/images/lowercase_T.png'></img></div></div></div></div>,1.0,stop,,198103,0.0,practice_trial,104,stop-signal,
105,,,,,,,,,500.0,,,,,,,stop_signal_with_n_back,,,,,,0.0-0.1-7.1,-1.0,,none,,,-1,500.0,"<div class = fb_box><div class = center-text><font size = 20>Correct!</font></div></div><div class = prompt_box><p class = center-block-text style = ""font-size:16px; line-height:80%%;"">Match the current letter to the letter that appeared 1 trial ago</p><p class = center-block-text style = ""font-size:16px; line-height:80%%;"">If they match, press the M Key</p><p class = center-block-text style = ""font-size:16px; line-height:80%%;"">If they mismatch, press the Z Key</p><p class = center-block-text style = ""font-size:16px; line-height:80%%;"">Do not respond if you see a star!</p></div>",,,,198606,0.0,practice-stop-feedback,105,poldrack-single-stim,
106,450.0,350.0,350.0,450.0,500.0,<div class = bigbox><div class = starbox><img class = center src='/static/experiments/stop_signal_with_n_back/images/stopSignal.png'></img></div></div>,go,,2000.0,,90.0,1.0,1.0,4.0,1.0,stop_signal_with_n_back,,,,,,0.0-0.1-8.1,90.0,mismatch,"[77, 90]",b,,597,1000.0,<div class = bigbox><div class = centerbox><div class = gng_number><div class = cue-text><img class = center src='/static/experiments/stop_signal_with_n_back/images/lowercase_B.png'></img></div></div></div></div>,,go,,200610,0.0,practice_trial,106,stop-signal,
107,,,,,,,,,500.0,,,,,,,stop_signal_with_n_back,,,,,,0.0-0.1-9.1,-1.0,,none,,,-1,500.0,"<div class = fb_box><div class = center-text><font size = 20>Correct!</font></div></div><div class = prompt_box><p class = center-block-text style = ""font-size:16px; line-height:80%%;"">Match the current letter to the letter that appeared 1 trial ago</p><p class = center-block-text style = ""font-size:16px; line-height:80%%;"">If they match, press the M Key</p><p class = center-block-text style = ""font-size:16px; line-height:80%%;"">If they mismatch, press the Z Key</p><p class = center-block-text style = ""font-size:16px; line-height:80%%;"">Do not respond if you see a star!</p></div>",,,,201113,0.0,practice-stop-feedback,107,poldrack-single-stim,
108,450.0,350.0,350.0,450.0,500.0,<div class = bigbox><div class = starbox><img class = center src='/static/experiments/stop_signal_with_n_back/images/stopSignal.png'></img></div></div>,stop,,2000.0,,-1.0,1.0,1.0,5.0,1.0,stop_signal_with_n_back,,,,,,0.0-0.1-10.1,-1.0,mismatch,"[77, 90]",g,,-1,1000.0,<div class = bigbox><div class = centerbox><div class = gng_number><div class = cue-text><img class = center src='/static/experiments/stop_signal_with_n_back/images/lowercase_G.png'></img></div></div></div></div>,1.0,stop,,203115,0.0,practice_trial,108,stop-signal,
109,,,,,,,,,500.0,,,,,,,stop_signal_with_n_back,,,,,,0.0-0.1-11.1,-1.0,,none,,,-1,500.0,"<div class = fb_box><div class = center-text><font size = 20>Correct!</font></div></div><div class = prompt_box><p class = center-block-text style = ""font-size:16px; line-height:80%%;"">Match the current letter to the letter that appeared 1 trial ago</p><p class = center-block-text style = ""font-size:16px; line-height:80%%;"">If they match, press the M Key</p><p class = center-block-text style = ""font-size:16px; line-height:80%%;"">If they mismatch, press the Z Key</p><p class = center-block-text style = ""font-size:16px; line-height:80%%;"">Do not respond if you see a star!</p></div>",,,,203619,0.0,practice-stop-feedback,109,poldrack-single-stim,
110,500.0,350.0,350.0,500.0,500.0,<div class = bigbox><div class = starbox><img class = center src='/static/experiments/stop_signal_with_n_back/images/stopSignal.png'></img></div></div>,go,,2000.0,,90.0,1.0,1.0,6.0,1.0,stop_signal_with_n_back,,,,,,0.0-0.1-12.1,90.0,mismatch,"[77, 90]",B,,736,1000.0,<div class = bigbox><div class = centerbox><div class = gng_number><div class = cue-text><img class = center src='/static/experiments/stop_signal_with_n_back/images/uppercase_B.png'></img></div></div></div></div>,,go,,205623,0.0,practice_trial,110,stop-signal,
111,,,,,,,,,500.0,,,,,,,stop_signal_with_n_back,,,,,,0.0-0.1-13.1,-1.0,,none,,,-1,500.0,"<div class = fb_box><div class = center-text><font size = 20>Correct!</font></div></div><div class = prompt_box><p class = center-block-text style = ""font-size:16px; line-height:80%%;"">Match the current letter to the letter that appeared 1 trial ago</p><p class = center-block-text style = ""font-size:16px; line-height:80%%;"">If they match, press the M Key</p><p class = center-block-text style = ""font-size:16px; line-height:80%%;"">If they mismatch, press the Z Key</p><p class = center-block-text style = ""font-size:16px; line-height:80%%;"">Do not respond if you see a star!</p></div>",,,,206125,0.0,practice-stop-feedback,111,poldrack-single-stim,
112,500.0,350.0,350.0,500.0,500.0,<div class = bigbox><div class = starbox><img class = center src='/static/experiments/stop_signal_with_n_back/images/stopSignal.png'></img></div></div>,go,,2000.0,,77.0,0.0,1.0,7.0,1.0,stop_signal_with_n_back,,,,,,0.0-0.1-14.1,90.0,match,"[77, 90]",b,,1006,1000.0,<div class = bigbox><div class = centerbox><div class = gng_number><div class = cue-text><img class = center src='/static/experiments/stop_signal_with_n_back/images/lowercase_B.png'></img></div></div></div></div>,,go,,208129,0.0,practice_trial,112,stop-signal,
113,,,,,,,,,500.0,,,,,,,stop_signal_with_n_back,,,,,,0.0-0.1-15.1,-1.0,,none,,,-1,500.0,"<div class = fb_box><div class = center-text><font size = 20>Incorrect</font></div></div><div class = prompt_box><p class = center-block-text style = ""font-size:16px; line-height:80%%;"">Match the current letter to the letter that appeared 1 trial ago</p><p class = center-block-text style = ""font-size:16px; line-height:80%%;"">If they match, press the M Key</p><p class = center-block-text style = ""font-size:16px; line-height:80%%;"">If they mismatch, press the Z Key</p><p class = center-block-text style = ""font-size:16px; line-height:80%%;"">Do not respond if you see a star!</p></div>",,,,208632,0.0,practice-stop-feedback,113,poldrack-single-stim,
114,500.0,350.0,350.0,500.0,500.0,<div class = bigbox><div class = starbox><img class = center src='/static/experiments/stop_signal_with_n_back/images/stopSignal.png'></img></div></div>,go,,2000.0,,90.0,1.0,1.0,8.0,1.0,stop_signal_with_n_back,,,,,,0.0-0.1-16.1,90.0,mismatch,"[77, 90]",V,,882,1000.0,<div class = bigbox><div class = centerbox><div class = gng_number><div class = cue-text><img class = center src='/static/experiments/stop_signal_with_n_back/images/uppercase_V.png'></img></div></div></div></div>,,go,,210637,0.0,practice_trial,114,stop-signal,
115,,,,,,,,,500.0,,,,,,,stop_signal_with_n_back,,,,,,0.0-0.1-17.1,-1.0,,none,,,-1,500.0,"<div class = fb_box><div class = center-text><font size = 20>Correct!</font></div></div><div class = prompt_box><p class = center-block-text style = ""font-size:16px; line-height:80%%;"">Match the current letter to the letter that appeared 1 trial ago</p><p class = center-block-text style = ""font-size:16px; line-height:80%%;"">If they match, press the M Key</p><p class = center-block-text style = ""font-size:16px; line-height:80%%;"">If they mismatch, press the Z Key</p><p class = center-block-text style = ""font-size:16px; line-height:80%%;"">Do not respond if you see a star!</p></div>",,,,211141,0.0,practice-stop-feedback,115,poldrack-single-stim,
116,500.0,350.0,350.0,500.0,500.0,<div class = bigbox><div class = starbox><img class = center src='/static/experiments/stop_signal_with_n_back/images/stopSignal.png'></img></div></div>,go,,2000.0,,77.0,1.0,1.0,9.0,1.0,stop_signal_with_n_back,,,,,,0.0-0.1-18.1,77.0,match,"[77, 90]",V,,855,1000.0,<div class = bigbox><div class = centerbox><div class = gng_number><div class = cue-text><img class = center src='/static/experiments/stop_signal_with_n_back/images/uppercase_V.png'></img></div></div></div></div>,,go,,213144,0.0,practice_trial,116,stop-signal,
117,,,,,,,,,500.0,,,,,,,stop_signal_with_n_back,,,,,,0.0-0.1-19.1,-1.0,,none,,,-1,500.0,"<div class = fb_box><div class = center-text><font size = 20>Correct!</font></div></div><div class = prompt_box><p class = center-block-text style = ""font-size:16px; line-height:80%%;"">Match the current letter to the letter that appeared 1 trial ago</p><p class = center-block-text style = ""font-size:16px; line-height:80%%;"">If they match, press the M Key</p><p class = center-block-text style = ""font-size:16px; line-height:80%%;"">If they mismatch, press the Z Key</p><p class = center-block-text style = ""font-size:16px; line-height:80%%;"">Do not respond if you see a star!</p></div>",,,,213647,0.0,practice-stop-feedback,117,poldrack-single-stim,
118,500.0,350.0,350.0,500.0,500.0,<div class = bigbox><div class = starbox><img class = center src='/static/experiments/stop_signal_with_n_back/images/stopSignal.png'></img></div></div>,stop,,2000.0,,-1.0,1.0,1.0,10.0,1.0,stop_signal_with_n_back,,,,,,0.0-0.1-20.1,-1.0,mismatch,"[77, 90]",G,,-1,1000.0,<div class = bigbox><div class = centerbox><div class = gng_number><div class = cue-text><img class = center src='/static/experiments/stop_signal_with_n_back/images/uppercase_G.png'></img></div></div></div></div>,1.0,stop,,215650,0.0,practice_trial,118,stop-signal,
119,,,,,,,,,500.0,,,,,,,stop_signal_with_n_back,,,,,,0.0-0.1-21.1,-1.0,,none,,,-1,500.0,"<div class = fb_box><div class = center-text><font size = 20>Correct!</font></div></div><div class = prompt_box><p class = center-block-text style = ""font-size:16px; line-height:80%%;"">Match the current letter to the letter that appeared 1 trial ago</p><p class = center-block-text style = ""font-size:16px; line-height:80%%;"">If they match, press the M Key</p><p class = center-block-text style = ""font-size:16px; line-height:80%%;"">If they mismatch, press the Z Key</p><p class = center-block-text style = ""font-size:16px; line-height:80%%;"">Do not respond if you see a star!</p></div>",,,,216154,0.0,practice-stop-feedback,119,poldrack-single-stim,
120,550.0,350.0,350.0,550.0,500.0,<div class = bigbox><div class = starbox><img class = center src='/static/experiments/stop_signal_with_n_back/images/stopSignal.png'></img></div></div>,go,,2000.0,,90.0,1.0,1.0,11.0,1.0,stop_signal_with_n_back,,,,,,0.0-0.1-22.1,90.0,mismatch,"[77, 90]",V,,679,1000.0,<div class = bigbox><div class = centerbox><div class = gng_number><div class = cue-text><img class = center src='/static/experiments/stop_signal_with_n_back/images/uppercase_V.png'></img></div></div></div></div>,,go,,218159,0.0,practice_trial,120,stop-signal,
121,,,,,,,,,500.0,,,,,,,stop_signal_with_n_back,,,,,,0.0-0.1-23.1,-1.0,,none,,,-1,500.0,"<div class = fb_box><div class = center-text><font size = 20>Correct!</font></div></div><div class = prompt_box><p class = center-block-text style = ""font-size:16px; line-height:80%%;"">Match the current letter to the letter that appeared 1 trial ago</p><p class = center-block-text style = ""font-size:16px; line-height:80%%;"">If they match, press the M Key</p><p class = center-block-text style = ""font-size:16px; line-height:80%%;"">If they mismatch, press the Z Key</p><p class = center-block-text style = ""font-size:16px; line-height:80%%;"">Do not respond if you see a star!</p></div>",,,,218662,0.0,practice-stop-feedback,121,poldrack-single-stim,
122,550.0,350.0,350.0,550.0,500.0,<div class = bigbox><div class = starbox><img class = center src='/static/experiments/stop_signal_with_n_back/images/stopSignal.png'></img></div></div>,go,,2000.0,,90.0,1.0,1.0,12.0,1.0,stop_signal_with_n_back,,,,,,0.0-0.1-24.1,90.0,mismatch,"[77, 90]",T,,813,1000.0,<div class = bigbox><div class = centerbox><div class = gng_number><div class = cue-text><img class = center src='/static/experiments/stop_signal_with_n_back/images/uppercase_T.png'></img></div></div></div></div>,,go,,220665,0.0,practice_trial,122,stop-signal,
123,,,,,,,,,500.0,,,,,,,stop_signal_with_n_back,,,,,,0.0-0.1-25.1,-1.0,,none,,,-1,500.0,"<div class = fb_box><div class = center-text><font size = 20>Correct!</font></div></div><div class = prompt_box><p class = center-block-text style = ""font-size:16px; line-height:80%%;"">Match the current letter to the letter that appeared 1 trial ago</p><p class = center-block-text style = ""font-size:16px; line-height:80%%;"">If they match, press the M Key</p><p class = center-block-text style = ""font-size:16px; line-height:80%%;"">If they mismatch, press the Z Key</p><p class = center-block-text style = ""font-size:16px; line-height:80%%;"">Do not respond if you see a star!</p></div>",,,,221167,0.0,practice-stop-feedback,123,poldrack-single-stim,
124,550.0,350.0,350.0,550.0,500.0,<div class = bigbox><div class = starbox><img class = center src='/static/experiments/stop_signal_with_n_back/images/stopSignal.png'></img></div></div>,go,,2000.0,,90.0,1.0,1.0,13.0,1.0,stop_signal_with_n_back,,,,,,0.0-0.1-26.1,90.0,mismatch,"[77, 90]",V,,796,1000.0,<div class = bigbox><div class = centerbox><div class = gng_number><div class = cue-text><img class = center src='/static/experiments/stop_signal_with_n_back/images/uppercase_V.png'></img></div></div></div></div>,,go,,223170,0.0,practice_trial,124,stop-signal,
125,,,,,,,,,500.0,,,,,,,stop_signal_with_n_back,,,,,,0.0-0.1-27.1,-1.0,,none,,,-1,500.0,"<div class = fb_box><div class = center-text><font size = 20>Correct!</font></div></div><div class = prompt_box><p class = center-block-text style = ""font-size:16px; line-height:80%%;"">Match the current letter to the letter that appeared 1 trial ago</p><p class = center-block-text style = ""font-size:16px; line-height:80%%;"">If they match, press the M Key</p><p class = center-block-text style = ""font-size:16px; line-height:80%%;"">If they mismatch, press the Z Key</p><p class = center-block-text style = ""font-size:16px; line-height:80%%;"">Do not respond if you see a star!</p></div>",,,,223672,0.0,practice-stop-feedback,125,poldrack-single-stim,
126,550.0,350.0,350.0,550.0,500.0,<div class = bigbox><div class = starbox><img class = center src='/static/experiments/stop_signal_with_n_back/images/stopSignal.png'></img></div></div>,go,,2000.0,,77.0,1.0,1.0,14.0,1.0,stop_signal_with_n_back,,,,,,0.0-0.1-28.1,77.0,match,"[77, 90]",v,,963,1000.0,<div class = bigbox><div class = centerbox><div class = gng_number><div class = cue-text><img class = center src='/static/experiments/stop_signal_with_n_back/images/lowercase_V.png'></img></div></div></div></div>,,go,,225675,0.0,practice_trial,126,stop-signal,
127,,,,,,,,,500.0,,,,,,,stop_signal_with_n_back,,,,,,0.0-0.1-29.1,-1.0,,none,,,-1,500.0,"<div class = fb_box><div class = center-text><font size = 20>Correct!</font></div></div><div class = prompt_box><p class = center-block-text style = ""font-size:16px; line-height:80%%;"">Match the current letter to the letter that appeared 1 trial ago</p><p class = center-block-text style = ""font-size:16px; line-height:80%%;"">If they match, press the M Key</p><p class = center-block-text style = ""font-size:16px; line-height:80%%;"">If they mismatch, press the Z Key</p><p class = center-block-text style = ""font-size:16px; line-height:80%%;"">Do not respond if you see a star!</p></div>",,,,226177,0.0,practice-stop-feedback,127,poldrack-single-stim,
128,550.0,350.0,350.0,550.0,500.0,<div class = bigbox><div class = starbox><img class = center src='/static/experiments/stop_signal_with_n_back/images/stopSignal.png'></img></div></div>,go,,2000.0,,77.0,1.0,1.0,15.0,1.0,stop_signal_with_n_back,,,,,,0.0-0.1-30.1,77.0,match,"[77, 90]",v,,875,1000.0,<div class = bigbox><div class = centerbox><div class = gng_number><div class = cue-text><img class = center src='/static/experiments/stop_signal_with_n_back/images/lowercase_V.png'></img></div></div></div></div>,,go,,228179,0.0,practice_trial,128,stop-signal,
129,,,,,,,,,500.0,,,,,,,stop_signal_with_n_back,,,,,,0.0-0.1-31.1,-1.0,,none,,,-1,500.0,"<div class = fb_box><div class = center-text><font size = 20>Correct!</font></div></div><div class = prompt_box><p class = center-block-text style = ""font-size:16px; line-height:80%%;"">Match the current letter to the letter that appeared 1 trial ago</p><p class = center-block-text style = ""font-size:16px; line-height:80%%;"">If they match, press the M Key</p><p class = center-block-text style = ""font-size:16px; line-height:80%%;"">If they mismatch, press the Z Key</p><p class = center-block-text style = ""font-size:16px; line-height:80%%;"">Do not respond if you see a star!</p></div>",,,,228682,0.0,practice-stop-feedback,129,poldrack-single-stim,
130,550.0,350.0,350.0,550.0,500.0,<div class = bigbox><div class = starbox><img class = center src='/static/experiments/stop_signal_with_n_back/images/stopSignal.png'></img></div></div>,go,,2000.0,,90.0,1.0,1.0,16.0,1.0,stop_signal_with_n_back,,,,,,0.0-0.1-32.1,90.0,mismatch,"[77, 90]",g,,921,1000.0,<div class = bigbox><div class = centerbox><div class = gng_number><div class = cue-text><img class = center src='/static/experiments/stop_signal_with_n_back/images/lowercase_G.png'></img></div></div></div></div>,,go,,230684,0.0,practice_trial,130,stop-signal,
131,,,,,,,,,500.0,,,,,,,stop_signal_with_n_back,,,,,,0.0-0.1-33.1,-1.0,,none,,,-1,500.0,"<div class = fb_box><div class = center-text><font size = 20>Correct!</font></div></div><div class = prompt_box><p class = center-block-text style = ""font-size:16px; line-height:80%%;"">Match the current letter to the letter that appeared 1 trial ago</p><p class = center-block-text style = ""font-size:16px; line-height:80%%;"">If they match, press the M Key</p><p class = center-block-text style = ""font-size:16px; line-height:80%%;"">If they mismatch, press the Z Key</p><p class = center-block-text style = ""font-size:16px; line-height:80%%;"">Do not respond if you see a star!</p></div>",,,,231186,0.0,practice-stop-feedback,131,poldrack-single-stim,
132,550.0,350.0,350.0,550.0,500.0,<div class = bigbox><div class = starbox><img class = center src='/static/experiments/stop_signal_with_n_back/images/stopSignal.png'></img></div></div>,go,,2000.0,,90.0,1.0,1.0,17.0,1.0,stop_signal_with_n_back,,,,,,0.0-0.1-34.1,90.0,mismatch,"[77, 90]",v,,897,1000.0,<div class = bigbox><div class = centerbox><div class = gng_number><div class = cue-text><img class = center src='/static/experiments/stop_signal_with_n_back/images/lowercase_V.png'></img></div></div></div></div>,,go,,233189,0.0,practice_trial,132,stop-signal,
133,,,,,,,,,500.0,,,,,,,stop_signal_with_n_back,,,,,,0.0-0.1-35.1,-1.0,,none,,,-1,500.0,"<div class = fb_box><div class = center-text><font size = 20>Correct!</font></div></div><div class = prompt_box><p class = center-block-text style = ""font-size:16px; line-height:80%%;"">Match the current letter to the letter that appeared 1 trial ago</p><p class = center-block-text style = ""font-size:16px; line-height:80%%;"">If they match, press the M Key</p><p class = center-block-text style = ""font-size:16px; line-height:80%%;"">If they mismatch, press the Z Key</p><p class = center-block-text style = ""font-size:16px; line-height:80%%;"">Do not respond if you see a star!</p></div>",,,,233692,0.0,practice-stop-feedback,133,poldrack-single-stim,
134,550.0,350.0,350.0,550.0,500.0,<div class = bigbox><div class = starbox><img class = center src='/static/experiments/stop_signal_with_n_back/images/stopSignal.png'></img></div></div>,go,,2000.0,,90.0,1.0,1.0,18.0,1.0,stop_signal_with_n_back,,,,,,0.0-0.1-36.1,90.0,mismatch,"[77, 90]",d,,1096,1000.0,<div class = bigbox><div class = centerbox><div class = gng_number><div class = cue-text><img class = center src='/static/experiments/stop_signal_with_n_back/images/lowercase_D.png'></img></div></div></div></div>,,go,,235694,0.0,practice_trial,134,stop-signal,
135,,,,,,,,,500.0,,,,,,,stop_signal_with_n_back,,,,,,0.0-0.1-37.1,-1.0,,none,,,-1,500.0,"<div class = fb_box><div class = center-text><font size = 20>Correct!</font></div></div><div class = prompt_box><p class = center-block-text style = ""font-size:16px; line-height:80%%;"">Match the current letter to the letter that appeared 1 trial ago</p><p class = center-block-text style = ""font-size:16px; line-height:80%%;"">If they match, press the M Key</p><p class = center-block-text style = ""font-size:16px; line-height:80%%;"">If they mismatch, press the Z Key</p><p class = center-block-text style = ""font-size:16px; line-height:80%%;"">Do not respond if you see a star!</p></div>",,,,236198,0.0,practice-stop-feedback,135,poldrack-single-stim,
136,550.0,350.0,350.0,550.0,500.0,<div class = bigbox><div class = starbox><img class = center src='/static/experiments/stop_signal_with_n_back/images/stopSignal.png'></img></div></div>,go,,2000.0,,90.0,1.0,1.0,19.0,1.0,stop_signal_with_n_back,,,,,,0.0-0.1-38.1,90.0,mismatch,"[77, 90]",T,,725,1000.0,<div class = bigbox><div class = centerbox><div class = gng_number><div class = cue-text><img class = center src='/static/experiments/stop_signal_with_n_back/images/uppercase_T.png'></img></div></div></div></div>,,go,,238200,0.0,practice_trial,136,stop-signal,
137,,,,,,,,,500.0,,,,,,,stop_signal_with_n_back,,,,,,0.0-0.1-39.1,-1.0,,none,,,-1,500.0,"<div class = fb_box><div class = center-text><font size = 20>Correct!</font></div></div><div class = prompt_box><p class = center-block-text style = ""font-size:16px; line-height:80%%;"">Match the current letter to the letter that appeared 1 trial ago</p><p class = center-block-text style = ""font-size:16px; line-height:80%%;"">If they match, press the M Key</p><p class = center-block-text style = ""font-size:16px; line-height:80%%;"">If they mismatch, press the Z Key</p><p class = center-block-text style = ""font-size:16px; line-height:80%%;"">Do not respond if you see a star!</p></div>",,,,238703,0.0,practice-stop-feedback,137,poldrack-single-stim,
138,550.0,350.0,350.0,550.0,500.0,<div class = bigbox><div class = starbox><img class = center src='/static/experiments/stop_signal_with_n_back/images/stopSignal.png'></img></div></div>,go,,2000.0,,90.0,1.0,1.0,20.0,1.0,stop_signal_with_n_back,,,,,,0.0-0.1-40.1,90.0,mismatch,"[77, 90]",d,,796,1000.0,<div class = bigbox><div class = centerbox><div class = gng_number><div class = cue-text><img class = center src='/static/experiments/stop_signal_with_n_back/images/lowercase_D.png'></img></div></div></div></div>,,go,,240707,0.0,practice_trial,138,stop-signal,
139,,,,,,,,,500.0,,,,,,,stop_signal_with_n_back,,,,,,0.0-0.1-41.1,-1.0,,none,,,-1,500.0,"<div class = fb_box><div class = center-text><font size = 20>Correct!</font></div></div><div class = prompt_box><p class = center-block-text style = ""font-size:16px; line-height:80%%;"">Match the current letter to the letter that appeared 1 trial ago</p><p class = center-block-text style = ""font-size:16px; line-height:80%%;"">If they match, press the M Key</p><p class = center-block-text style = ""font-size:16px; line-height:80%%;"">If they mismatch, press the Z Key</p><p class = center-block-text style = ""font-size:16px; line-height:80%%;"">Do not respond if you see a star!</p></div>",,,,241210,0.0,practice-stop-feedback,139,poldrack-single-stim,
140,550.0,350.0,350.0,550.0,500.0,<div class = bigbox><div class = starbox><img class = center src='/static/experiments/stop_signal_with_n_back/images/stopSignal.png'></img></div></div>,go,,2000.0,,90.0,1.0,1.0,21.0,1.0,stop_signal_with_n_back,,,,,,0.0-0.1-42.1,90.0,mismatch,"[77, 90]",B,,801,1000.0,<div class = bigbox><div class = centerbox><div class = gng_number><div class = cue-text><img class = center src='/static/experiments/stop_signal_with_n_back/images/uppercase_B.png'></img></div></div></div></div>,,go,,243214,0.0,practice_trial,140,stop-signal,
141,,,,,,,,,500.0,,,,,,,stop_signal_with_n_back,,,,,,0.0-0.1-43.1,-1.0,,none,,,-1,500.0,"<div class = fb_box><div class = center-text><font size = 20>Correct!</font></div></div><div class = prompt_box><p class = center-block-text style = ""font-size:16px; line-height:80%%;"">Match the current letter to the letter that appeared 1 trial ago</p><p class = center-block-text style = ""font-size:16px; line-height:80%%;"">If they match, press the M Key</p><p class = center-block-text style = ""font-size:16px; line-height:80%%;"">If they mismatch, press the Z Key</p><p class = center-block-text style = ""font-size:16px; line-height:80%%;"">Do not respond if you see a star!</p></div>",,,,243716,0.0,practice-stop-feedback,141,poldrack-single-stim,
142,550.0,350.0,350.0,550.0,500.0,<div class = bigbox><div class = starbox><img class = center src='/static/experiments/stop_signal_with_n_back/images/stopSignal.png'></img></div></div>,go,,2000.0,,90.0,1.0,1.0,22.0,1.0,stop_signal_with_n_back,,,,,,0.0-0.1-44.1,90.0,mismatch,"[77, 90]",t,,720,1000.0,<div class = bigbox><div class = centerbox><div class = gng_number><div class = cue-text><img class = center src='/static/experiments/stop_signal_with_n_back/images/lowercase_T.png'></img></div></div></div></div>,,go,,245719,0.0,practice_trial,142,stop-signal,
143,,,,,,,,,500.0,,,,,,,stop_signal_with_n_back,,,,,,0.0-0.1-45.1,-1.0,,none,,,-1,500.0,"<div class = fb_box><div class = center-text><font size = 20>Correct!</font></div></div><div class = prompt_box><p class = center-block-text style = ""font-size:16px; line-height:80%%;"">Match the current letter to the letter that appeared 1 trial ago</p><p class = center-block-text style = ""font-size:16px; line-height:80%%;"">If they match, press the M Key</p><p class = center-block-text style = ""font-size:16px; line-height:80%%;"">If they mismatch, press the Z Key</p><p class = center-block-text style = ""font-size:16px; line-height:80%%;"">Do not respond if you see a star!</p></div>",,,,246221,0.0,practice-stop-feedback,143,poldrack-single-stim,
144,550.0,350.0,350.0,550.0,500.0,<div class = bigbox><div class = starbox><img class = center src='/static/experiments/stop_signal_with_n_back/images/stopSignal.png'></img></div></div>,stop,,2000.0,,-1.0,1.0,1.0,23.0,1.0,stop_signal_with_n_back,,,,,,0.0-0.1-46.1,-1.0,mismatch,"[77, 90]",B,,-1,1000.0,<div class = bigbox><div class = centerbox><div class = gng_number><div class = cue-text><img class = center src='/static/experiments/stop_signal_with_n_back/images/uppercase_B.png'></img></div></div></div></div>,1.0,stop,,248224,0.0,practice_trial,144,stop-signal,
145,,,,,,,,,500.0,,,,,,,stop_signal_with_n_back,,,,,,0.0-0.1-47.1,-1.0,,none,,,-1,500.0,"<div class = fb_box><div class = center-text><font size = 20>Correct!</font></div></div><div class = prompt_box><p class = center-block-text style = ""font-size:16px; line-height:80%%;"">Match the current letter to the letter that appeared 1 trial ago</p><p class = center-block-text style = ""font-size:16px; line-height:80%%;"">If they match, press the M Key</p><p class = center-block-text style = ""font-size:16px; line-height:80%%;"">If they mismatch, press the Z Key</p><p class = center-block-text style = ""font-size:16px; line-height:80%%;"">Do not respond if you see a star!</p></div>",,,,248727,0.0,practice-stop-feedback,145,poldrack-single-stim,
146,600.0,350.0,350.0,600.0,500.0,<div class = bigbox><div class = starbox><img class = center src='/static/experiments/stop_signal_with_n_back/images/stopSignal.png'></img></div></div>,stop,,2000.0,,-1.0,0.0,1.0,24.0,1.0,stop_signal_with_n_back,,,,,,0.0-0.1-48.1,90.0,mismatch,"[77, 90]",g,,761,1000.0,<div class = bigbox><div class = centerbox><div class = gng_number><div class = cue-text><img class = center src='/static/experiments/stop_signal_with_n_back/images/lowercase_G.png'></img></div></div></div></div>,0.0,stop,,250733,0.0,practice_trial,146,stop-signal,
147,,,,,,,,,500.0,,,,,,,stop_signal_with_n_back,,,,,,0.0-0.1-49.1,-1.0,,none,,,-1,500.0,"<div class = fb_box><div class = center-text><font size = 20>There was a star.</font></div></div><div class = prompt_box><p class = center-block-text style = ""font-size:16px; line-height:80%%;"">Match the current letter to the letter that appeared 1 trial ago</p><p class = center-block-text style = ""font-size:16px; line-height:80%%;"">If they match, press the M Key</p><p class = center-block-text style = ""font-size:16px; line-height:80%%;"">If they mismatch, press the Z Key</p><p class = center-block-text style = ""font-size:16px; line-height:80%%;"">Do not respond if you see a star!</p></div>",,,,251235,0.0,practice-stop-feedback,147,poldrack-single-stim,
148,550.0,350.0,350.0,550.0,500.0,<div class = bigbox><div class = starbox><img class = center src='/static/experiments/stop_signal_with_n_back/images/stopSignal.png'></img></div></div>,go,,2000.0,,90.0,1.0,1.0,25.0,1.0,stop_signal_with_n_back,,,,,,0.0-0.1-50.1,90.0,mismatch,"[77, 90]",v,,935,1000.0,<div class = bigbox><div class = centerbox><div class = gng_number><div class = cue-text><img class = center src='/static/experiments/stop_signal_with_n_back/images/lowercase_V.png'></img></div></div></div></div>,,go,,253239,0.0,practice_trial,148,stop-signal,
149,,,,,,,,,500.0,,,,,,,stop_signal_with_n_back,,,,,,0.0-0.1-51.1,-1.0,,none,,,-1,500.0,"<div class = fb_box><div class = center-text><font size = 20>Correct!</font></div></div><div class = prompt_box><p class = center-block-text style = ""font-size:16px; line-height:80%%;"">Match the current letter to the letter that appeared 1 trial ago</p><p class = center-block-text style = ""font-size:16px; line-height:80%%;"">If they match, press the M Key</p><p class = center-block-text style = ""font-size:16px; line-height:80%%;"">If they mismatch, press the Z Key</p><p class = center-block-text style = ""font-size:16px; line-height:80%%;"">Do not respond if you see a star!</p></div>",,,,253742,0.0,practice-stop-feedback,149,poldrack-single-stim,
150,550.0,350.0,350.0,550.0,500.0,<div class = bigbox><div class = starbox><img class = center src='/static/experiments/stop_signal_with_n_back/images/stopSignal.png'></img></div></div>,go,,2000.0,,77.0,1.0,1.0,26.0,1.0,stop_signal_with_n_back,,,,,,0.0-0.1-52.1,77.0,match,"[77, 90]",V,,1036,1000.0,<div class = bigbox><div class = centerbox><div class = gng_number><div class = cue-text><img class = center src='/static/experiments/stop_signal_with_n_back/images/uppercase_V.png'></img></div></div></div></div>,,go,,255746,0.0,practice_trial,150,stop-signal,
151,,,,,,,,,500.0,,,,,,,stop_signal_with_n_back,,,,,,0.0-0.1-53.1,-1.0,,none,,,-1,500.0,"<div class = fb_box><div class = center-text><font size = 20>Correct!</font></div></div><div class = prompt_box><p class = center-block-text style = ""font-size:16px; line-height:80%%;"">Match the current letter to the letter that appeared 1 trial ago</p><p class = center-block-text style = ""font-size:16px; line-height:80%%;"">If they match, press the M Key</p><p class = center-block-text style = ""font-size:16px; line-height:80%%;"">If they mismatch, press the Z Key</p><p class = center-block-text style = ""font-size:16px; line-height:80%%;"">Do not respond if you see a star!</p></div>",,,,256248,0.0,practice-stop-feedback,151,poldrack-single-stim,
152,550.0,350.0,350.0,550.0,500.0,<div class = bigbox><div class = starbox><img class = center src='/static/experiments/stop_signal_with_n_back/images/stopSignal.png'></img></div></div>,go,,2000.0,,90.0,0.0,1.0,27.0,1.0,stop_signal_with_n_back,,,,,,0.0-0.1-54.1,77.0,mismatch,"[77, 90]",D,,1043,1000.0,<div class = bigbox><div class = centerbox><div class = gng_number><div class = cue-text><img class = center src='/static/experiments/stop_signal_with_n_back/images/uppercase_D.png'></img></div></div></div></div>,,go,,258251,0.0,practice_trial,152,stop-signal,
