,SSD_1,SSD_2,SSD_3,SS_delay,SS_duration,SS_stimulus,SS_trial_type,att_check_percent,block_duration,correct,correct_response,correct_trial,current_block,current_trial,delay,exp_id,final_accuracy,final_avg_rt,final_credit_var,final_missed_percent,final_responses_ok,internal_node_id,key_press,n_back_condition,possible_responses,probe,responses,rt,stim_duration,stimulus,stop_acc,stop_signal_condition,text,time_elapsed,timing_post_trial,trial_id,trial_index,trial_type,view_history
0,,,,,,,,,28709.0,,,,,,,stop_signal_with_n_back,,,,,,0.0-0.0-0.0,13.0,,[13],,,28709,28709.0,"<div class = bigbox><div class = picture_box><p class = block-text><font color=""white"">Welcome to the experiment. This experiment will take about 10 minutes. Press <i>enter</i> to begin.</font></p></div></div>",,,,28717,0.0,practice-no-stop-feedback,0,poldrack-single-stim,
1,,,,,,,,,,,,,,,,stop_signal_with_n_back,,,,,,0.0-0.0-1.0,,,,,,129057,,,,,,157781,,instruction,1,poldrack-instructions,"[{""page_index"":0,""viewing_time"":48302},{""page_index"":1,""viewing_time"":64903},{""page_index"":2,""viewing_time"":15850}]"
2,350.0,350.0,350.0,350.0,500.0,<div class = bigbox><div class = starbox><img class = center src='/static/experiments/stop_signal_with_n_back/images/stopSignal.png'></img></div></div>,go,,2000.0,,90.0,1.0,0.0,1.0,1.0,stop_signal_with_n_back,,,,,,0.0-0.0-2.0,90.0,N/A,"[77, 90]",d,,1063,1000.0,<div class = bigbox><div class = centerbox><div class = gng_number><div class = cue-text><img class = center src='/static/experiments/stop_signal_with_n_back/images/lowercase_D.png'></img></div></div></div></div>,,go,,160796,0.0,practice_trial,2,stop-signal,
3,,,,,,,,,500.0,,,,,,,stop_signal_with_n_back,,,,,,0.0-0.0-3.0,-1.0,,none,,,-1,500.0,"<div class = fb_box><div class = center-text><font size = 20>Correct!</font></div></div><div class = prompt_box><p class = center-block-text style = ""font-size:16px; line-height:80%%;"">Match the current letter to the letter that appeared 1 trial ago</p><p class = center-block-text style = ""font-size:16px; line-height:80%%;"">If they match, press the M Key</p><p class = center-block-text style = ""font-size:16px; line-height:80%%;"">If they mismatch, press the Z Key</p><p class = center-block-text style = ""font-size:16px; line-height:80%%;"">Do not respond if you see a star!</p></div>",,,,161308,0.0,practice-stop-feedback,3,poldrack-single-stim,
4,350.0,350.0,350.0,350.0,500.0,<div class = bigbox><div class = starbox><img class = center src='/static/experiments/stop_signal_with_n_back/images/stopSignal.png'></img></div></div>,stop,,2000.0,,90.0,0.0,0.0,2.0,1.0,stop_signal_with_n_back,,,,,,0.0-0.0-4.0,-1.0,mismatch,"[77, 90]",t,,-1,1000.0,<div class = bigbox><div class = centerbox><div class = gng_number><div class = cue-text><img class = center src='/static/experiments/stop_signal_with_n_back/images/lowercase_T.png'></img></div></div></div></div>,1.0,stop,,163318,0.0,practice_trial,4,stop-signal,
5,,,,,,,,,500.0,,,,,,,stop_signal_with_n_back,,,,,,0.0-0.0-5.0,-1.0,,none,,,-1,500.0,"<div class = fb_box><div class = center-text><font size = 20>Correct!</font></div></div><div class = prompt_box><p class = center-block-text style = ""font-size:16px; line-height:80%%;"">Match the current letter to the letter that appeared 1 trial ago</p><p class = center-block-text style = ""font-size:16px; line-height:80%%;"">If they match, press the M Key</p><p class = center-block-text style = ""font-size:16px; line-height:80%%;"">If they mismatch, press the Z Key</p><p class = center-block-text style = ""font-size:16px; line-height:80%%;"">Do not respond if you see a star!</p></div>",,,,163829,0.0,practice-stop-feedback,5,poldrack-single-stim,
6,400.0,350.0,350.0,400.0,500.0,<div class = bigbox><div class = starbox><img class = center src='/static/experiments/stop_signal_with_n_back/images/stopSignal.png'></img></div></div>,go,,2000.0,,90.0,1.0,0.0,3.0,1.0,stop_signal_with_n_back,,,,,,0.0-0.0-6.0,90.0,mismatch,"[77, 90]",B,,801,1000.0,<div class = bigbox><div class = centerbox><div class = gng_number><div class = cue-text><img class = center src='/static/experiments/stop_signal_with_n_back/images/uppercase_B.png'></img></div></div></div></div>,,go,,165839,0.0,practice_trial,6,stop-signal,
7,,,,,,,,,500.0,,,,,,,stop_signal_with_n_back,,,,,,0.0-0.0-7.0,-1.0,,none,,,-1,500.0,"<div class = fb_box><div class = center-text><font size = 20>Correct!</font></div></div><div class = prompt_box><p class = center-block-text style = ""font-size:16px; line-height:80%%;"">Match the current letter to the letter that appeared 1 trial ago</p><p class = center-block-text style = ""font-size:16px; line-height:80%%;"">If they match, press the M Key</p><p class = center-block-text style = ""font-size:16px; line-height:80%%;"">If they mismatch, press the Z Key</p><p class = center-block-text style = ""font-size:16px; line-height:80%%;"">Do not respond if you see a star!</p></div>",,,,166349,0.0,practice-stop-feedback,7,poldrack-single-stim,
8,400.0,350.0,350.0,400.0,500.0,<div class = bigbox><div class = starbox><img class = center src='/static/experiments/stop_signal_with_n_back/images/stopSignal.png'></img></div></div>,go,,2000.0,,90.0,1.0,0.0,4.0,1.0,stop_signal_with_n_back,,,,,,0.0-0.0-8.0,90.0,mismatch,"[77, 90]",D,,801,1000.0,<div class = bigbox><div class = centerbox><div class = gng_number><div class = cue-text><img class = center src='/static/experiments/stop_signal_with_n_back/images/uppercase_D.png'></img></div></div></div></div>,,go,,168357,0.0,practice_trial,8,stop-signal,
9,,,,,,,,,500.0,,,,,,,stop_signal_with_n_back,,,,,,0.0-0.0-9.0,-1.0,,none,,,-1,500.0,"<div class = fb_box><div class = center-text><font size = 20>Correct!</font></div></div><div class = prompt_box><p class = center-block-text style = ""font-size:16px; line-height:80%%;"">Match the current letter to the letter that appeared 1 trial ago</p><p class = center-block-text style = ""font-size:16px; line-height:80%%;"">If they match, press the M Key</p><p class = center-block-text style = ""font-size:16px; line-height:80%%;"">If they mismatch, press the Z Key</p><p class = center-block-text style = ""font-size:16px; line-height:80%%;"">Do not respond if you see a star!</p></div>",,,,168867,0.0,practice-stop-feedback,9,poldrack-single-stim,
10,400.0,350.0,350.0,400.0,500.0,<div class = bigbox><div class = starbox><img class = center src='/static/experiments/stop_signal_with_n_back/images/stopSignal.png'></img></div></div>,stop,,2000.0,,-1.0,1.0,0.0,5.0,1.0,stop_signal_with_n_back,,,,,,0.0-0.0-10.0,-1.0,mismatch,"[77, 90]",T,,-1,1000.0,<div class = bigbox><div class = centerbox><div class = gng_number><div class = cue-text><img class = center src='/static/experiments/stop_signal_with_n_back/images/uppercase_T.png'></img></div></div></div></div>,1.0,stop,,170877,0.0,practice_trial,10,stop-signal,
11,,,,,,,,,500.0,,,,,,,stop_signal_with_n_back,,,,,,0.0-0.0-11.0,-1.0,,none,,,-1,500.0,"<div class = fb_box><div class = center-text><font size = 20>Correct!</font></div></div><div class = prompt_box><p class = center-block-text style = ""font-size:16px; line-height:80%%;"">Match the current letter to the letter that appeared 1 trial ago</p><p class = center-block-text style = ""font-size:16px; line-height:80%%;"">If they match, press the M Key</p><p class = center-block-text style = ""font-size:16px; line-height:80%%;"">If they mismatch, press the Z Key</p><p class = center-block-text style = ""font-size:16px; line-height:80%%;"">Do not respond if you see a star!</p></div>",,,,171387,0.0,practice-stop-feedback,11,poldrack-single-stim,
12,450.0,350.0,350.0,450.0,500.0,<div class = bigbox><div class = starbox><img class = center src='/static/experiments/stop_signal_with_n_back/images/stopSignal.png'></img></div></div>,go,,2000.0,,90.0,0.0,0.0,6.0,1.0,stop_signal_with_n_back,,,,,,0.0-0.0-12.0,77.0,mismatch,"[77, 90]",G,,657,1000.0,<div class = bigbox><div class = centerbox><div class = gng_number><div class = cue-text><img class = center src='/static/experiments/stop_signal_with_n_back/images/uppercase_G.png'></img></div></div></div></div>,,go,,173395,0.0,practice_trial,12,stop-signal,
13,,,,,,,,,500.0,,,,,,,stop_signal_with_n_back,,,,,,0.0-0.0-13.0,-1.0,,none,,,-1,500.0,"<div class = fb_box><div class = center-text><font size = 20>Incorrect</font></div></div><div class = prompt_box><p class = center-block-text style = ""font-size:16px; line-height:80%%;"">Match the current letter to the letter that appeared 1 trial ago</p><p class = center-block-text style = ""font-size:16px; line-height:80%%;"">If they match, press the M Key</p><p class = center-block-text style = ""font-size:16px; line-height:80%%;"">If they mismatch, press the Z Key</p><p class = center-block-text style = ""font-size:16px; line-height:80%%;"">Do not respond if you see a star!</p></div>",,,,173901,0.0,practice-stop-feedback,13,poldrack-single-stim,
14,450.0,350.0,350.0,450.0,500.0,<div class = bigbox><div class = starbox><img class = center src='/static/experiments/stop_signal_with_n_back/images/stopSignal.png'></img></div></div>,go,,2000.0,,90.0,1.0,0.0,7.0,1.0,stop_signal_with_n_back,,,,,,0.0-0.0-14.0,90.0,mismatch,"[77, 90]",v,,775,1000.0,<div class = bigbox><div class = centerbox><div class = gng_number><div class = cue-text><img class = center src='/static/experiments/stop_signal_with_n_back/images/lowercase_V.png'></img></div></div></div></div>,,go,,175908,0.0,practice_trial,14,stop-signal,
15,,,,,,,,,500.0,,,,,,,stop_signal_with_n_back,,,,,,0.0-0.0-15.0,-1.0,,none,,,-1,500.0,"<div class = fb_box><div class = center-text><font size = 20>Correct!</font></div></div><div class = prompt_box><p class = center-block-text style = ""font-size:16px; line-height:80%%;"">Match the current letter to the letter that appeared 1 trial ago</p><p class = center-block-text style = ""font-size:16px; line-height:80%%;"">If they match, press the M Key</p><p class = center-block-text style = ""font-size:16px; line-height:80%%;"">If they mismatch, press the Z Key</p><p class = center-block-text style = ""font-size:16px; line-height:80%%;"">Do not respond if you see a star!</p></div>",,,,176416,0.0,practice-stop-feedback,15,poldrack-single-stim,
16,450.0,350.0,350.0,450.0,500.0,<div class = bigbox><div class = starbox><img class = center src='/static/experiments/stop_signal_with_n_back/images/stopSignal.png'></img></div></div>,go,,2000.0,,90.0,1.0,0.0,8.0,1.0,stop_signal_with_n_back,,,,,,0.0-0.0-16.0,90.0,mismatch,"[77, 90]",B,,631,1000.0,<div class = bigbox><div class = centerbox><div class = gng_number><div class = cue-text><img class = center src='/static/experiments/stop_signal_with_n_back/images/uppercase_B.png'></img></div></div></div></div>,,go,,178423,0.0,practice_trial,16,stop-signal,
17,,,,,,,,,500.0,,,,,,,stop_signal_with_n_back,,,,,,0.0-0.0-17.0,-1.0,,none,,,-1,500.0,"<div class = fb_box><div class = center-text><font size = 20>Correct!</font></div></div><div class = prompt_box><p class = center-block-text style = ""font-size:16px; line-height:80%%;"">Match the current letter to the letter that appeared 1 trial ago</p><p class = center-block-text style = ""font-size:16px; line-height:80%%;"">If they match, press the M Key</p><p class = center-block-text style = ""font-size:16px; line-height:80%%;"">If they mismatch, press the Z Key</p><p class = center-block-text style = ""font-size:16px; line-height:80%%;"">Do not respond if you see a star!</p></div>",,,,178931,0.0,practice-stop-feedback,17,poldrack-single-stim,
18,450.0,350.0,350.0,450.0,500.0,<div class = bigbox><div class = starbox><img class = center src='/static/experiments/stop_signal_with_n_back/images/stopSignal.png'></img></div></div>,stop,,2000.0,,-1.0,1.0,0.0,9.0,1.0,stop_signal_with_n_back,,,,,,0.0-0.0-18.0,-1.0,mismatch,"[77, 90]",V,,-1,1000.0,<div class = bigbox><div class = centerbox><div class = gng_number><div class = cue-text><img class = center src='/static/experiments/stop_signal_with_n_back/images/uppercase_V.png'></img></div></div></div></div>,1.0,stop,,180938,0.0,practice_trial,18,stop-signal,
19,,,,,,,,,500.0,,,,,,,stop_signal_with_n_back,,,,,,0.0-0.0-19.0,-1.0,,none,,,-1,500.0,"<div class = fb_box><div class = center-text><font size = 20>Correct!</font></div></div><div class = prompt_box><p class = center-block-text style = ""font-size:16px; line-height:80%%;"">Match the current letter to the letter that appeared 1 trial ago</p><p class = center-block-text style = ""font-size:16px; line-height:80%%;"">If they match, press the M Key</p><p class = center-block-text style = ""font-size:16px; line-height:80%%;"">If they mismatch, press the Z Key</p><p class = center-block-text style = ""font-size:16px; line-height:80%%;"">Do not respond if you see a star!</p></div>",,,,181448,0.0,practice-stop-feedback,19,poldrack-single-stim,
20,500.0,350.0,350.0,500.0,500.0,<div class = bigbox><div class = starbox><img class = center src='/static/experiments/stop_signal_with_n_back/images/stopSignal.png'></img></div></div>,go,,2000.0,,90.0,1.0,0.0,10.0,1.0,stop_signal_with_n_back,,,,,,0.0-0.0-20.0,90.0,mismatch,"[77, 90]",D,,475,1000.0,<div class = bigbox><div class = centerbox><div class = gng_number><div class = cue-text><img class = center src='/static/experiments/stop_signal_with_n_back/images/uppercase_D.png'></img></div></div></div></div>,,go,,183456,0.0,practice_trial,20,stop-signal,
21,,,,,,,,,500.0,,,,,,,stop_signal_with_n_back,,,,,,0.0-0.0-21.0,-1.0,,none,,,-1,500.0,"<div class = fb_box><div class = center-text><font size = 20>Correct!</font></div></div><div class = prompt_box><p class = center-block-text style = ""font-size:16px; line-height:80%%;"">Match the current letter to the letter that appeared 1 trial ago</p><p class = center-block-text style = ""font-size:16px; line-height:80%%;"">If they match, press the M Key</p><p class = center-block-text style = ""font-size:16px; line-height:80%%;"">If they mismatch, press the Z Key</p><p class = center-block-text style = ""font-size:16px; line-height:80%%;"">Do not respond if you see a star!</p></div>",,,,183965,0.0,practice-stop-feedback,21,poldrack-single-stim,
22,500.0,350.0,350.0,500.0,500.0,<div class = bigbox><div class = starbox><img class = center src='/static/experiments/stop_signal_with_n_back/images/stopSignal.png'></img></div></div>,stop,,2000.0,,-1.0,1.0,0.0,11.0,1.0,stop_signal_with_n_back,,,,,,0.0-0.0-22.0,-1.0,match,"[77, 90]",d,,-1,1000.0,<div class = bigbox><div class = centerbox><div class = gng_number><div class = cue-text><img class = center src='/static/experiments/stop_signal_with_n_back/images/lowercase_D.png'></img></div></div></div></div>,1.0,stop,,185973,0.0,practice_trial,22,stop-signal,
23,,,,,,,,,500.0,,,,,,,stop_signal_with_n_back,,,,,,0.0-0.0-23.0,-1.0,,none,,,-1,500.0,"<div class = fb_box><div class = center-text><font size = 20>Correct!</font></div></div><div class = prompt_box><p class = center-block-text style = ""font-size:16px; line-height:80%%;"">Match the current letter to the letter that appeared 1 trial ago</p><p class = center-block-text style = ""font-size:16px; line-height:80%%;"">If they match, press the M Key</p><p class = center-block-text style = ""font-size:16px; line-height:80%%;"">If they mismatch, press the Z Key</p><p class = center-block-text style = ""font-size:16px; line-height:80%%;"">Do not respond if you see a star!</p></div>",,,,186480,0.0,practice-stop-feedback,23,poldrack-single-stim,
24,550.0,350.0,350.0,550.0,500.0,<div class = bigbox><div class = starbox><img class = center src='/static/experiments/stop_signal_with_n_back/images/stopSignal.png'></img></div></div>,go,,2000.0,,90.0,1.0,0.0,12.0,1.0,stop_signal_with_n_back,,,,,,0.0-0.0-24.0,90.0,mismatch,"[77, 90]",v,,685,1000.0,<div class = bigbox><div class = centerbox><div class = gng_number><div class = cue-text><img class = center src='/static/experiments/stop_signal_with_n_back/images/lowercase_V.png'></img></div></div></div></div>,,go,,188489,0.0,practice_trial,24,stop-signal,
25,,,,,,,,,500.0,,,,,,,stop_signal_with_n_back,,,,,,0.0-0.0-25.0,-1.0,,none,,,-1,500.0,"<div class = fb_box><div class = center-text><font size = 20>Correct!</font></div></div><div class = prompt_box><p class = center-block-text style = ""font-size:16px; line-height:80%%;"">Match the current letter to the letter that appeared 1 trial ago</p><p class = center-block-text style = ""font-size:16px; line-height:80%%;"">If they match, press the M Key</p><p class = center-block-text style = ""font-size:16px; line-height:80%%;"">If they mismatch, press the Z Key</p><p class = center-block-text style = ""font-size:16px; line-height:80%%;"">Do not respond if you see a star!</p></div>",,,,189002,0.0,practice-stop-feedback,25,poldrack-single-stim,
26,550.0,350.0,350.0,550.0,500.0,<div class = bigbox><div class = starbox><img class = center src='/static/experiments/stop_signal_with_n_back/images/stopSignal.png'></img></div></div>,stop,,2000.0,,-1.0,0.0,0.0,13.0,1.0,stop_signal_with_n_back,,,,,,0.0-0.0-26.0,90.0,mismatch,"[77, 90]",g,,668,1000.0,<div class = bigbox><div class = centerbox><div class = gng_number><div class = cue-text><img class = center src='/static/experiments/stop_signal_with_n_back/images/lowercase_G.png'></img></div></div></div></div>,0.0,stop,,191010,0.0,practice_trial,26,stop-signal,
27,,,,,,,,,500.0,,,,,,,stop_signal_with_n_back,,,,,,0.0-0.0-27.0,-1.0,,none,,,-1,500.0,"<div class = fb_box><div class = center-text><font size = 20>There was a star.</font></div></div><div class = prompt_box><p class = center-block-text style = ""font-size:16px; line-height:80%%;"">Match the current letter to the letter that appeared 1 trial ago</p><p class = center-block-text style = ""font-size:16px; line-height:80%%;"">If they match, press the M Key</p><p class = center-block-text style = ""font-size:16px; line-height:80%%;"">If they mismatch, press the Z Key</p><p class = center-block-text style = ""font-size:16px; line-height:80%%;"">Do not respond if you see a star!</p></div>",,,,191518,0.0,practice-stop-feedback,27,poldrack-single-stim,
28,500.0,350.0,350.0,500.0,500.0,<div class = bigbox><div class = starbox><img class = center src='/static/experiments/stop_signal_with_n_back/images/stopSignal.png'></img></div></div>,go,,2000.0,,90.0,1.0,0.0,14.0,1.0,stop_signal_with_n_back,,,,,,0.0-0.0-28.0,90.0,mismatch,"[77, 90]",v,,775,1000.0,<div class = bigbox><div class = centerbox><div class = gng_number><div class = cue-text><img class = center src='/static/experiments/stop_signal_with_n_back/images/lowercase_V.png'></img></div></div></div></div>,,go,,193526,0.0,practice_trial,28,stop-signal,
29,,,,,,,,,500.0,,,,,,,stop_signal_with_n_back,,,,,,0.0-0.0-29.0,-1.0,,none,,,-1,500.0,"<div class = fb_box><div class = center-text><font size = 20>Correct!</font></div></div><div class = prompt_box><p class = center-block-text style = ""font-size:16px; line-height:80%%;"">Match the current letter to the letter that appeared 1 trial ago</p><p class = center-block-text style = ""font-size:16px; line-height:80%%;"">If they match, press the M Key</p><p class = center-block-text style = ""font-size:16px; line-height:80%%;"">If they mismatch, press the Z Key</p><p class = center-block-text style = ""font-size:16px; line-height:80%%;"">Do not respond if you see a star!</p></div>",,,,194033,0.0,practice-stop-feedback,29,poldrack-single-stim,
30,500.0,350.0,350.0,500.0,500.0,<div class = bigbox><div class = starbox><img class = center src='/static/experiments/stop_signal_with_n_back/images/stopSignal.png'></img></div></div>,go,,2000.0,,90.0,1.0,0.0,15.0,1.0,stop_signal_with_n_back,,,,,,0.0-0.0-30.0,90.0,mismatch,"[77, 90]",g,,652,1000.0,<div class = bigbox><div class = centerbox><div class = gng_number><div class = cue-text><img class = center src='/static/experiments/stop_signal_with_n_back/images/lowercase_G.png'></img></div></div></div></div>,,go,,196042,0.0,practice_trial,30,stop-signal,
31,,,,,,,,,500.0,,,,,,,stop_signal_with_n_back,,,,,,0.0-0.0-31.0,-1.0,,none,,,-1,500.0,"<div class = fb_box><div class = center-text><font size = 20>Correct!</font></div></div><div class = prompt_box><p class = center-block-text style = ""font-size:16px; line-height:80%%;"">Match the current letter to the letter that appeared 1 trial ago</p><p class = center-block-text style = ""font-size:16px; line-height:80%%;"">If they match, press the M Key</p><p class = center-block-text style = ""font-size:16px; line-height:80%%;"">If they mismatch, press the Z Key</p><p class = center-block-text style = ""font-size:16px; line-height:80%%;"">Do not respond if you see a star!</p></div>",,,,196551,0.0,practice-stop-feedback,31,poldrack-single-stim,
32,500.0,350.0,350.0,500.0,500.0,<div class = bigbox><div class = starbox><img class = center src='/static/experiments/stop_signal_with_n_back/images/stopSignal.png'></img></div></div>,go,,2000.0,,90.0,1.0,0.0,16.0,1.0,stop_signal_with_n_back,,,,,,0.0-0.0-32.0,90.0,mismatch,"[77, 90]",t,,729,1000.0,<div class = bigbox><div class = centerbox><div class = gng_number><div class = cue-text><img class = center src='/static/experiments/stop_signal_with_n_back/images/lowercase_T.png'></img></div></div></div></div>,,go,,198559,0.0,practice_trial,32,stop-signal,
33,,,,,,,,,500.0,,,,,,,stop_signal_with_n_back,,,,,,0.0-0.0-33.0,-1.0,,none,,,-1,500.0,"<div class = fb_box><div class = center-text><font size = 20>Correct!</font></div></div><div class = prompt_box><p class = center-block-text style = ""font-size:16px; line-height:80%%;"">Match the current letter to the letter that appeared 1 trial ago</p><p class = center-block-text style = ""font-size:16px; line-height:80%%;"">If they match, press the M Key</p><p class = center-block-text style = ""font-size:16px; line-height:80%%;"">If they mismatch, press the Z Key</p><p class = center-block-text style = ""font-size:16px; line-height:80%%;"">Do not respond if you see a star!</p></div>",,,,199066,0.0,practice-stop-feedback,33,poldrack-single-stim,
34,500.0,350.0,350.0,500.0,500.0,<div class = bigbox><div class = starbox><img class = center src='/static/experiments/stop_signal_with_n_back/images/stopSignal.png'></img></div></div>,go,,2000.0,,90.0,1.0,0.0,17.0,1.0,stop_signal_with_n_back,,,,,,0.0-0.0-34.0,90.0,mismatch,"[77, 90]",V,,618,1000.0,<div class = bigbox><div class = centerbox><div class = gng_number><div class = cue-text><img class = center src='/static/experiments/stop_signal_with_n_back/images/uppercase_V.png'></img></div></div></div></div>,,go,,201074,0.0,practice_trial,34,stop-signal,
35,,,,,,,,,500.0,,,,,,,stop_signal_with_n_back,,,,,,0.0-0.0-35.0,-1.0,,none,,,-1,500.0,"<div class = fb_box><div class = center-text><font size = 20>Correct!</font></div></div><div class = prompt_box><p class = center-block-text style = ""font-size:16px; line-height:80%%;"">Match the current letter to the letter that appeared 1 trial ago</p><p class = center-block-text style = ""font-size:16px; line-height:80%%;"">If they match, press the M Key</p><p class = center-block-text style = ""font-size:16px; line-height:80%%;"">If they mismatch, press the Z Key</p><p class = center-block-text style = ""font-size:16px; line-height:80%%;"">Do not respond if you see a star!</p></div>",,,,201582,0.0,practice-stop-feedback,35,poldrack-single-stim,
36,500.0,350.0,350.0,500.0,500.0,<div class = bigbox><div class = starbox><img class = center src='/static/experiments/stop_signal_with_n_back/images/stopSignal.png'></img></div></div>,go,,2000.0,,77.0,1.0,0.0,18.0,1.0,stop_signal_with_n_back,,,,,,0.0-0.0-36.0,77.0,match,"[77, 90]",V,,606,1000.0,<div class = bigbox><div class = centerbox><div class = gng_number><div class = cue-text><img class = center src='/static/experiments/stop_signal_with_n_back/images/uppercase_V.png'></img></div></div></div></div>,,go,,203589,0.0,practice_trial,36,stop-signal,
37,,,,,,,,,500.0,,,,,,,stop_signal_with_n_back,,,,,,0.0-0.0-37.0,-1.0,,none,,,-1,500.0,"<div class = fb_box><div class = center-text><font size = 20>Correct!</font></div></div><div class = prompt_box><p class = center-block-text style = ""font-size:16px; line-height:80%%;"">Match the current letter to the letter that appeared 1 trial ago</p><p class = center-block-text style = ""font-size:16px; line-height:80%%;"">If they match, press the M Key</p><p class = center-block-text style = ""font-size:16px; line-height:80%%;"">If they mismatch, press the Z Key</p><p class = center-block-text style = ""font-size:16px; line-height:80%%;"">Do not respond if you see a star!</p></div>",,,,204095,0.0,practice-stop-feedback,37,poldrack-single-stim,
38,500.0,350.0,350.0,500.0,500.0,<div class = bigbox><div class = starbox><img class = center src='/static/experiments/stop_signal_with_n_back/images/stopSignal.png'></img></div></div>,stop,,2000.0,,-1.0,0.0,0.0,19.0,1.0,stop_signal_with_n_back,,,,,,0.0-0.0-38.0,90.0,mismatch,"[77, 90]",b,,581,1000.0,<div class = bigbox><div class = centerbox><div class = gng_number><div class = cue-text><img class = center src='/static/experiments/stop_signal_with_n_back/images/lowercase_B.png'></img></div></div></div></div>,0.0,stop,,206103,0.0,practice_trial,38,stop-signal,
39,,,,,,,,,500.0,,,,,,,stop_signal_with_n_back,,,,,,0.0-0.0-39.0,-1.0,,none,,,-1,500.0,"<div class = fb_box><div class = center-text><font size = 20>There was a star.</font></div></div><div class = prompt_box><p class = center-block-text style = ""font-size:16px; line-height:80%%;"">Match the current letter to the letter that appeared 1 trial ago</p><p class = center-block-text style = ""font-size:16px; line-height:80%%;"">If they match, press the M Key</p><p class = center-block-text style = ""font-size:16px; line-height:80%%;"">If they mismatch, press the Z Key</p><p class = center-block-text style = ""font-size:16px; line-height:80%%;"">Do not respond if you see a star!</p></div>",,,,206620,0.0,practice-stop-feedback,39,poldrack-single-stim,
40,450.0,350.0,350.0,450.0,500.0,<div class = bigbox><div class = starbox><img class = center src='/static/experiments/stop_signal_with_n_back/images/stopSignal.png'></img></div></div>,go,,2000.0,,90.0,1.0,0.0,20.0,1.0,stop_signal_with_n_back,,,,,,0.0-0.0-40.0,90.0,mismatch,"[77, 90]",g,,599,1000.0,<div class = bigbox><div class = centerbox><div class = gng_number><div class = cue-text><img class = center src='/static/experiments/stop_signal_with_n_back/images/lowercase_G.png'></img></div></div></div></div>,,go,,208630,0.0,practice_trial,40,stop-signal,
41,,,,,,,,,500.0,,,,,,,stop_signal_with_n_back,,,,,,0.0-0.0-41.0,-1.0,,none,,,-1,500.0,"<div class = fb_box><div class = center-text><font size = 20>Correct!</font></div></div><div class = prompt_box><p class = center-block-text style = ""font-size:16px; line-height:80%%;"">Match the current letter to the letter that appeared 1 trial ago</p><p class = center-block-text style = ""font-size:16px; line-height:80%%;"">If they match, press the M Key</p><p class = center-block-text style = ""font-size:16px; line-height:80%%;"">If they mismatch, press the Z Key</p><p class = center-block-text style = ""font-size:16px; line-height:80%%;"">Do not respond if you see a star!</p></div>",,,,209137,0.0,practice-stop-feedback,41,poldrack-single-stim,
42,450.0,350.0,350.0,450.0,500.0,<div class = bigbox><div class = starbox><img class = center src='/static/experiments/stop_signal_with_n_back/images/stopSignal.png'></img></div></div>,go,,2000.0,,77.0,1.0,0.0,21.0,1.0,stop_signal_with_n_back,,,,,,0.0-0.0-42.0,77.0,match,"[77, 90]",g,,736,1000.0,<div class = bigbox><div class = centerbox><div class = gng_number><div class = cue-text><img class = center src='/static/experiments/stop_signal_with_n_back/images/lowercase_G.png'></img></div></div></div></div>,,go,,211145,0.0,practice_trial,42,stop-signal,
43,,,,,,,,,500.0,,,,,,,stop_signal_with_n_back,,,,,,0.0-0.0-43.0,-1.0,,none,,,-1,500.0,"<div class = fb_box><div class = center-text><font size = 20>Correct!</font></div></div><div class = prompt_box><p class = center-block-text style = ""font-size:16px; line-height:80%%;"">Match the current letter to the letter that appeared 1 trial ago</p><p class = center-block-text style = ""font-size:16px; line-height:80%%;"">If they match, press the M Key</p><p class = center-block-text style = ""font-size:16px; line-height:80%%;"">If they mismatch, press the Z Key</p><p class = center-block-text style = ""font-size:16px; line-height:80%%;"">Do not respond if you see a star!</p></div>",,,,211657,0.0,practice-stop-feedback,43,poldrack-single-stim,
44,450.0,350.0,350.0,450.0,500.0,<div class = bigbox><div class = starbox><img class = center src='/static/experiments/stop_signal_with_n_back/images/stopSignal.png'></img></div></div>,go,,2000.0,,90.0,1.0,0.0,22.0,1.0,stop_signal_with_n_back,,,,,,0.0-0.0-44.0,90.0,mismatch,"[77, 90]",d,,612,1000.0,<div class = bigbox><div class = centerbox><div class = gng_number><div class = cue-text><img class = center src='/static/experiments/stop_signal_with_n_back/images/lowercase_D.png'></img></div></div></div></div>,,go,,213667,0.0,practice_trial,44,stop-signal,
45,,,,,,,,,500.0,,,,,,,stop_signal_with_n_back,,,,,,0.0-0.0-45.0,-1.0,,none,,,-1,500.0,"<div class = fb_box><div class = center-text><font size = 20>Correct!</font></div></div><div class = prompt_box><p class = center-block-text style = ""font-size:16px; line-height:80%%;"">Match the current letter to the letter that appeared 1 trial ago</p><p class = center-block-text style = ""font-size:16px; line-height:80%%;"">If they match, press the M Key</p><p class = center-block-text style = ""font-size:16px; line-height:80%%;"">If they mismatch, press the Z Key</p><p class = center-block-text style = ""font-size:16px; line-height:80%%;"">Do not respond if you see a star!</p></div>",,,,214174,0.0,practice-stop-feedback,45,poldrack-single-stim,
46,450.0,350.0,350.0,450.0,500.0,<div class = bigbox><div class = starbox><img class = center src='/static/experiments/stop_signal_with_n_back/images/stopSignal.png'></img></div></div>,stop,,2000.0,,-1.0,0.0,0.0,23.0,1.0,stop_signal_with_n_back,,,,,,0.0-0.0-46.0,90.0,mismatch,"[77, 90]",B,,605,1000.0,<div class = bigbox><div class = centerbox><div class = gng_number><div class = cue-text><img class = center src='/static/experiments/stop_signal_with_n_back/images/uppercase_B.png'></img></div></div></div></div>,0.0,stop,,216184,0.0,practice_trial,46,stop-signal,
47,,,,,,,,,500.0,,,,,,,stop_signal_with_n_back,,,,,,0.0-0.0-47.0,-1.0,,none,,,-1,500.0,"<div class = fb_box><div class = center-text><font size = 20>There was a star.</font></div></div><div class = prompt_box><p class = center-block-text style = ""font-size:16px; line-height:80%%;"">Match the current letter to the letter that appeared 1 trial ago</p><p class = center-block-text style = ""font-size:16px; line-height:80%%;"">If they match, press the M Key</p><p class = center-block-text style = ""font-size:16px; line-height:80%%;"">If they mismatch, press the Z Key</p><p class = center-block-text style = ""font-size:16px; line-height:80%%;"">Do not respond if you see a star!</p></div>",,,,216690,0.0,practice-stop-feedback,47,poldrack-single-stim,
48,400.0,350.0,350.0,400.0,500.0,<div class = bigbox><div class = starbox><img class = center src='/static/experiments/stop_signal_with_n_back/images/stopSignal.png'></img></div></div>,go,,2000.0,,77.0,1.0,0.0,24.0,1.0,stop_signal_with_n_back,,,,,,0.0-0.0-48.0,77.0,match,"[77, 90]",B,,671,1000.0,<div class = bigbox><div class = centerbox><div class = gng_number><div class = cue-text><img class = center src='/static/experiments/stop_signal_with_n_back/images/uppercase_B.png'></img></div></div></div></div>,,go,,218699,0.0,practice_trial,48,stop-signal,
49,,,,,,,,,500.0,,,,,,,stop_signal_with_n_back,,,,,,0.0-0.0-49.0,-1.0,,none,,,-1,500.0,"<div class = fb_box><div class = center-text><font size = 20>Correct!</font></div></div><div class = prompt_box><p class = center-block-text style = ""font-size:16px; line-height:80%%;"">Match the current letter to the letter that appeared 1 trial ago</p><p class = center-block-text style = ""font-size:16px; line-height:80%%;"">If they match, press the M Key</p><p class = center-block-text style = ""font-size:16px; line-height:80%%;"">If they mismatch, press the Z Key</p><p class = center-block-text style = ""font-size:16px; line-height:80%%;"">Do not respond if you see a star!</p></div>",,,,219206,0.0,practice-stop-feedback,49,poldrack-single-stim,
50,400.0,350.0,350.0,400.0,500.0,<div class = bigbox><div class = starbox><img class = center src='/static/experiments/stop_signal_with_n_back/images/stopSignal.png'></img></div></div>,go,,2000.0,,90.0,1.0,0.0,25.0,1.0,stop_signal_with_n_back,,,,,,0.0-0.0-50.0,90.0,mismatch,"[77, 90]",T,,685,1000.0,<div class = bigbox><div class = centerbox><div class = gng_number><div class = cue-text><img class = center src='/static/experiments/stop_signal_with_n_back/images/uppercase_T.png'></img></div></div></div></div>,,go,,221215,0.0,practice_trial,50,stop-signal,
51,,,,,,,,,500.0,,,,,,,stop_signal_with_n_back,,,,,,0.0-0.0-51.0,-1.0,,none,,,-1,500.0,"<div class = fb_box><div class = center-text><font size = 20>Correct!</font></div></div><div class = prompt_box><p class = center-block-text style = ""font-size:16px; line-height:80%%;"">Match the current letter to the letter that appeared 1 trial ago</p><p class = center-block-text style = ""font-size:16px; line-height:80%%;"">If they match, press the M Key</p><p class = center-block-text style = ""font-size:16px; line-height:80%%;"">If they mismatch, press the Z Key</p><p class = center-block-text style = ""font-size:16px; line-height:80%%;"">Do not respond if you see a star!</p></div>",,,,221721,0.0,practice-stop-feedback,51,poldrack-single-stim,
52,400.0,350.0,350.0,400.0,500.0,<div class = bigbox><div class = starbox><img class = center src='/static/experiments/stop_signal_with_n_back/images/stopSignal.png'></img></div></div>,stop,,2000.0,,-1.0,1.0,0.0,26.0,1.0,stop_signal_with_n_back,,,,,,0.0-0.0-52.0,-1.0,mismatch,"[77, 90]",d,,-1,1000.0,<div class = bigbox><div class = centerbox><div class = gng_number><div class = cue-text><img class = center src='/static/experiments/stop_signal_with_n_back/images/lowercase_D.png'></img></div></div></div></div>,1.0,stop,,223729,0.0,practice_trial,52,stop-signal,
53,,,,,,,,,500.0,,,,,,,stop_signal_with_n_back,,,,,,0.0-0.0-53.0,-1.0,,none,,,-1,500.0,"<div class = fb_box><div class = center-text><font size = 20>Correct!</font></div></div><div class = prompt_box><p class = center-block-text style = ""font-size:16px; line-height:80%%;"">Match the current letter to the letter that appeared 1 trial ago</p><p class = center-block-text style = ""font-size:16px; line-height:80%%;"">If they match, press the M Key</p><p class = center-block-text style = ""font-size:16px; line-height:80%%;"">If they mismatch, press the Z Key</p><p class = center-block-text style = ""font-size:16px; line-height:80%%;"">Do not respond if you see a star!</p></div>",,,,224239,0.0,practice-stop-feedback,53,poldrack-single-stim,
54,450.0,350.0,350.0,450.0,500.0,<div class = bigbox><div class = starbox><img class = center src='/static/experiments/stop_signal_with_n_back/images/stopSignal.png'></img></div></div>,go,,2000.0,,90.0,1.0,0.0,27.0,1.0,stop_signal_with_n_back,,,,,,0.0-0.0-54.0,90.0,mismatch,"[77, 90]",v,,601,1000.0,<div class = bigbox><div class = centerbox><div class = gng_number><div class = cue-text><img class = center src='/static/experiments/stop_signal_with_n_back/images/lowercase_V.png'></img></div></div></div></div>,,go,,226247,0.0,practice_trial,54,stop-signal,
55,,,,,,,,,500.0,,,,,,,stop_signal_with_n_back,,,,,,0.0-0.0-55.0,-1.0,,none,,,-1,500.0,"<div class = fb_box><div class = center-text><font size = 20>Correct!</font></div></div><div class = prompt_box><p class = center-block-text style = ""font-size:16px; line-height:80%%;"">Match the current letter to the letter that appeared 1 trial ago</p><p class = center-block-text style = ""font-size:16px; line-height:80%%;"">If they match, press the M Key</p><p class = center-block-text style = ""font-size:16px; line-height:80%%;"">If they mismatch, press the Z Key</p><p class = center-block-text style = ""font-size:16px; line-height:80%%;"">Do not respond if you see a star!</p></div>",,,,226754,0.0,practice-stop-feedback,55,poldrack-single-stim,
56,450.0,350.0,350.0,450.0,500.0,<div class = bigbox><div class = starbox><img class = center src='/static/experiments/stop_signal_with_n_back/images/stopSignal.png'></img></div></div>,go,,2000.0,,90.0,1.0,0.0,28.0,1.0,stop_signal_with_n_back,,,,,,0.0-0.0-56.0,90.0,mismatch,"[77, 90]",d,,604,1000.0,<div class = bigbox><div class = centerbox><div class = gng_number><div class = cue-text><img class = center src='/static/experiments/stop_signal_with_n_back/images/lowercase_D.png'></img></div></div></div></div>,,go,,228763,0.0,practice_trial,56,stop-signal,
57,,,,,,,,,500.0,,,,,,,stop_signal_with_n_back,,,,,,0.0-0.0-57.0,-1.0,,none,,,-1,500.0,"<div class = fb_box><div class = center-text><font size = 20>Correct!</font></div></div><div class = prompt_box><p class = center-block-text style = ""font-size:16px; line-height:80%%;"">Match the current letter to the letter that appeared 1 trial ago</p><p class = center-block-text style = ""font-size:16px; line-height:80%%;"">If they match, press the M Key</p><p class = center-block-text style = ""font-size:16px; line-height:80%%;"">If they mismatch, press the Z Key</p><p class = center-block-text style = ""font-size:16px; line-height:80%%;"">Do not respond if you see a star!</p></div>",,,,229270,0.0,practice-stop-feedback,57,poldrack-single-stim,
58,450.0,350.0,350.0,450.0,500.0,<div class = bigbox><div class = starbox><img class = center src='/static/experiments/stop_signal_with_n_back/images/stopSignal.png'></img></div></div>,go,,2000.0,,77.0,1.0,0.0,29.0,1.0,stop_signal_with_n_back,,,,,,0.0-0.0-58.0,77.0,match,"[77, 90]",d,,627,1000.0,<div class = bigbox><div class = centerbox><div class = gng_number><div class = cue-text><img class = center src='/static/experiments/stop_signal_with_n_back/images/lowercase_D.png'></img></div></div></div></div>,,go,,231278,0.0,practice_trial,58,stop-signal,
59,,,,,,,,,500.0,,,,,,,stop_signal_with_n_back,,,,,,0.0-0.0-59.0,-1.0,,none,,,-1,500.0,"<div class = fb_box><div class = center-text><font size = 20>Correct!</font></div></div><div class = prompt_box><p class = center-block-text style = ""font-size:16px; line-height:80%%;"">Match the current letter to the letter that appeared 1 trial ago</p><p class = center-block-text style = ""font-size:16px; line-height:80%%;"">If they match, press the M Key</p><p class = center-block-text style = ""font-size:16px; line-height:80%%;"">If they mismatch, press the Z Key</p><p class = center-block-text style = ""font-size:16px; line-height:80%%;"">Do not respond if you see a star!</p></div>",,,,231786,0.0,practice-stop-feedback,59,poldrack-single-stim,
60,450.0,350.0,350.0,450.0,500.0,<div class = bigbox><div class = starbox><img class = center src='/static/experiments/stop_signal_with_n_back/images/stopSignal.png'></img></div></div>,go,,2000.0,,77.0,1.0,0.0,30.0,1.0,stop_signal_with_n_back,,,,,,0.0-0.0-60.0,77.0,match,"[77, 90]",d,,646,1000.0,<div class = bigbox><div class = centerbox><div class = gng_number><div class = cue-text><img class = center src='/static/experiments/stop_signal_with_n_back/images/lowercase_D.png'></img></div></div></div></div>,,go,,233794,0.0,practice_trial,60,stop-signal,
61,,,,,,,,,500.0,,,,,,,stop_signal_with_n_back,,,,,,0.0-0.0-61.0,-1.0,,none,,,-1,500.0,"<div class = fb_box><div class = center-text><font size = 20>Correct!</font></div></div><div class = prompt_box><p class = center-block-text style = ""font-size:16px; line-height:80%%;"">Match the current letter to the letter that appeared 1 trial ago</p><p class = center-block-text style = ""font-size:16px; line-height:80%%;"">If they match, press the M Key</p><p class = center-block-text style = ""font-size:16px; line-height:80%%;"">If they mismatch, press the Z Key</p><p class = center-block-text style = ""font-size:16px; line-height:80%%;"">Do not respond if you see a star!</p></div>",,,,234301,0.0,practice-stop-feedback,61,poldrack-single-stim,
62,450.0,350.0,350.0,450.0,500.0,<div class = bigbox><div class = starbox><img class = center src='/static/experiments/stop_signal_with_n_back/images/stopSignal.png'></img></div></div>,go,,2000.0,,90.0,1.0,0.0,31.0,1.0,stop_signal_with_n_back,,,,,,0.0-0.0-62.0,90.0,mismatch,"[77, 90]",g,,702,1000.0,<div class = bigbox><div class = centerbox><div class = gng_number><div class = cue-text><img class = center src='/static/experiments/stop_signal_with_n_back/images/lowercase_G.png'></img></div></div></div></div>,,go,,236311,0.0,practice_trial,62,stop-signal,
63,,,,,,,,,500.0,,,,,,,stop_signal_with_n_back,,,,,,0.0-0.0-63.0,-1.0,,none,,,-1,500.0,"<div class = fb_box><div class = center-text><font size = 20>Correct!</font></div></div><div class = prompt_box><p class = center-block-text style = ""font-size:16px; line-height:80%%;"">Match the current letter to the letter that appeared 1 trial ago</p><p class = center-block-text style = ""font-size:16px; line-height:80%%;"">If they match, press the M Key</p><p class = center-block-text style = ""font-size:16px; line-height:80%%;"">If they mismatch, press the Z Key</p><p class = center-block-text style = ""font-size:16px; line-height:80%%;"">Do not respond if you see a star!</p></div>",,,,236818,0.0,practice-stop-feedback,63,poldrack-single-stim,
64,450.0,350.0,350.0,450.0,500.0,<div class = bigbox><div class = starbox><img class = center src='/static/experiments/stop_signal_with_n_back/images/stopSignal.png'></img></div></div>,stop,,2000.0,,-1.0,0.0,0.0,32.0,1.0,stop_signal_with_n_back,,,,,,0.0-0.0-64.0,90.0,mismatch,"[77, 90]",d,,645,1000.0,<div class = bigbox><div class = centerbox><div class = gng_number><div class = cue-text><img class = center src='/static/experiments/stop_signal_with_n_back/images/lowercase_D.png'></img></div></div></div></div>,0.0,stop,,238826,0.0,practice_trial,64,stop-signal,
65,,,,,,,,,500.0,,,,,,,stop_signal_with_n_back,,,,,,0.0-0.0-65.0,-1.0,,none,,,-1,500.0,"<div class = fb_box><div class = center-text><font size = 20>There was a star.</font></div></div><div class = prompt_box><p class = center-block-text style = ""font-size:16px; line-height:80%%;"">Match the current letter to the letter that appeared 1 trial ago</p><p class = center-block-text style = ""font-size:16px; line-height:80%%;"">If they match, press the M Key</p><p class = center-block-text style = ""font-size:16px; line-height:80%%;"">If they mismatch, press the Z Key</p><p class = center-block-text style = ""font-size:16px; line-height:80%%;"">Do not respond if you see a star!</p></div>",,,,239334,0.0,practice-stop-feedback,65,poldrack-single-stim,
66,400.0,350.0,350.0,400.0,500.0,<div class = bigbox><div class = starbox><img class = center src='/static/experiments/stop_signal_with_n_back/images/stopSignal.png'></img></div></div>,go,,2000.0,,90.0,1.0,0.0,33.0,1.0,stop_signal_with_n_back,,,,,,0.0-0.0-66.0,90.0,mismatch,"[77, 90]",v,,580,1000.0,<div class = bigbox><div class = centerbox><div class = gng_number><div class = cue-text><img class = center src='/static/experiments/stop_signal_with_n_back/images/lowercase_V.png'></img></div></div></div></div>,,go,,241343,0.0,practice_trial,66,stop-signal,
67,,,,,,,,,500.0,,,,,,,stop_signal_with_n_back,,,,,,0.0-0.0-67.0,-1.0,,none,,,-1,500.0,"<div class = fb_box><div class = center-text><font size = 20>Correct!</font></div></div><div class = prompt_box><p class = center-block-text style = ""font-size:16px; line-height:80%%;"">Match the current letter to the letter that appeared 1 trial ago</p><p class = center-block-text style = ""font-size:16px; line-height:80%%;"">If they match, press the M Key</p><p class = center-block-text style = ""font-size:16px; line-height:80%%;"">If they mismatch, press the Z Key</p><p class = center-block-text style = ""font-size:16px; line-height:80%%;"">Do not respond if you see a star!</p></div>",,,,241850,0.0,practice-stop-feedback,67,poldrack-single-stim,
68,400.0,350.0,350.0,400.0,500.0,<div class = bigbox><div class = starbox><img class = center src='/static/experiments/stop_signal_with_n_back/images/stopSignal.png'></img></div></div>,go,,2000.0,,77.0,1.0,0.0,34.0,1.0,stop_signal_with_n_back,,,,,,0.0-0.0-68.0,77.0,match,"[77, 90]",V,,632,1000.0,<div class = bigbox><div class = centerbox><div class = gng_number><div class = cue-text><img class = center src='/static/experiments/stop_signal_with_n_back/images/uppercase_V.png'></img></div></div></div></div>,,go,,243857,0.0,practice_trial,68,stop-signal,
69,,,,,,,,,500.0,,,,,,,stop_signal_with_n_back,,,,,,0.0-0.0-69.0,-1.0,,none,,,-1,500.0,"<div class = fb_box><div class = center-text><font size = 20>Correct!</font></div></div><div class = prompt_box><p class = center-block-text style = ""font-size:16px; line-height:80%%;"">Match the current letter to the letter that appeared 1 trial ago</p><p class = center-block-text style = ""font-size:16px; line-height:80%%;"">If they match, press the M Key</p><p class = center-block-text style = ""font-size:16px; line-height:80%%;"">If they mismatch, press the Z Key</p><p class = center-block-text style = ""font-size:16px; line-height:80%%;"">Do not respond if you see a star!</p></div>",,,,244364,0.0,practice-stop-feedback,69,poldrack-single-stim,
70,400.0,350.0,350.0,400.0,500.0,<div class = bigbox><div class = starbox><img class = center src='/static/experiments/stop_signal_with_n_back/images/stopSignal.png'></img></div></div>,go,,2000.0,,90.0,1.0,0.0,35.0,1.0,stop_signal_with_n_back,,,,,,0.0-0.0-70.0,90.0,mismatch,"[77, 90]",t,,655,1000.0,<div class = bigbox><div class = centerbox><div class = gng_number><div class = cue-text><img class = center src='/static/experiments/stop_signal_with_n_back/images/lowercase_T.png'></img></div></div></div></div>,,go,,246372,0.0,practice_trial,70,stop-signal,
71,,,,,,,,,500.0,,,,,,,stop_signal_with_n_back,,,,,,0.0-0.0-71.0,-1.0,,none,,,-1,500.0,"<div class = fb_box><div class = center-text><font size = 20>Correct!</font></div></div><div class = prompt_box><p class = center-block-text style = ""font-size:16px; line-height:80%%;"">Match the current letter to the letter that appeared 1 trial ago</p><p class = center-block-text style = ""font-size:16px; line-height:80%%;"">If they match, press the M Key</p><p class = center-block-text style = ""font-size:16px; line-height:80%%;"">If they mismatch, press the Z Key</p><p class = center-block-text style = ""font-size:16px; line-height:80%%;"">Do not respond if you see a star!</p></div>",,,,246878,0.0,practice-stop-feedback,71,poldrack-single-stim,
72,400.0,350.0,350.0,400.0,500.0,<div class = bigbox><div class = starbox><img class = center src='/static/experiments/stop_signal_with_n_back/images/stopSignal.png'></img></div></div>,stop,,2000.0,,-1.0,1.0,0.0,36.0,1.0,stop_signal_with_n_back,,,,,,0.0-0.0-72.0,-1.0,mismatch,"[77, 90]",G,,-1,1000.0,<div class = bigbox><div class = centerbox><div class = gng_number><div class = cue-text><img class = center src='/static/experiments/stop_signal_with_n_back/images/uppercase_G.png'></img></div></div></div></div>,1.0,stop,,248889,0.0,practice_trial,72,stop-signal,
73,,,,,,,,,500.0,,,,,,,stop_signal_with_n_back,,,,,,0.0-0.0-73.0,-1.0,,none,,,-1,500.0,"<div class = fb_box><div class = center-text><font size = 20>Correct!</font></div></div><div class = prompt_box><p class = center-block-text style = ""font-size:16px; line-height:80%%;"">Match the current letter to the letter that appeared 1 trial ago</p><p class = center-block-text style = ""font-size:16px; line-height:80%%;"">If they match, press the M Key</p><p class = center-block-text style = ""font-size:16px; line-height:80%%;"">If they mismatch, press the Z Key</p><p class = center-block-text style = ""font-size:16px; line-height:80%%;"">Do not respond if you see a star!</p></div>",,,,249395,0.0,practice-stop-feedback,73,poldrack-single-stim,
74,450.0,350.0,350.0,450.0,500.0,<div class = bigbox><div class = starbox><img class = center src='/static/experiments/stop_signal_with_n_back/images/stopSignal.png'></img></div></div>,stop,,2000.0,,-1.0,0.0,0.0,37.0,1.0,stop_signal_with_n_back,,,,,,0.0-0.0-74.0,90.0,mismatch,"[77, 90]",V,,562,1000.0,<div class = bigbox><div class = centerbox><div class = gng_number><div class = cue-text><img class = center src='/static/experiments/stop_signal_with_n_back/images/uppercase_V.png'></img></div></div></div></div>,0.0,stop,,251405,0.0,practice_trial,74,stop-signal,
75,,,,,,,,,500.0,,,,,,,stop_signal_with_n_back,,,,,,0.0-0.0-75.0,-1.0,,none,,,-1,500.0,"<div class = fb_box><div class = center-text><font size = 20>There was a star.</font></div></div><div class = prompt_box><p class = center-block-text style = ""font-size:16px; line-height:80%%;"">Match the current letter to the letter that appeared 1 trial ago</p><p class = center-block-text style = ""font-size:16px; line-height:80%%;"">If they match, press the M Key</p><p class = center-block-text style = ""font-size:16px; line-height:80%%;"">If they mismatch, press the Z Key</p><p class = center-block-text style = ""font-size:16px; line-height:80%%;"">Do not respond if you see a star!</p></div>",,,,251911,0.0,practice-stop-feedback,75,poldrack-single-stim,
76,400.0,350.0,350.0,400.0,500.0,<div class = bigbox><div class = starbox><img class = center src='/static/experiments/stop_signal_with_n_back/images/stopSignal.png'></img></div></div>,go,,2000.0,,90.0,1.0,0.0,38.0,1.0,stop_signal_with_n_back,,,,,,0.0-0.0-76.0,90.0,mismatch,"[77, 90]",T,,663,1000.0,<div class = bigbox><div class = centerbox><div class = gng_number><div class = cue-text><img class = center src='/static/experiments/stop_signal_with_n_back/images/uppercase_T.png'></img></div></div></div></div>,,go,,253921,0.0,practice_trial,76,stop-signal,
77,,,,,,,,,500.0,,,,,,,stop_signal_with_n_back,,,,,,0.0-0.0-77.0,-1.0,,none,,,-1,500.0,"<div class = fb_box><div class = center-text><font size = 20>Correct!</font></div></div><div class = prompt_box><p class = center-block-text style = ""font-size:16px; line-height:80%%;"">Match the current letter to the letter that appeared 1 trial ago</p><p class = center-block-text style = ""font-size:16px; line-height:80%%;"">If they match, press the M Key</p><p class = center-block-text style = ""font-size:16px; line-height:80%%;"">If they mismatch, press the Z Key</p><p class = center-block-text style = ""font-size:16px; line-height:80%%;"">Do not respond if you see a star!</p></div>",,,,254428,0.0,practice-stop-feedback,77,poldrack-single-stim,
78,400.0,350.0,350.0,400.0,500.0,<div class = bigbox><div class = starbox><img class = center src='/static/experiments/stop_signal_with_n_back/images/stopSignal.png'></img></div></div>,go,,2000.0,,90.0,1.0,0.0,39.0,1.0,stop_signal_with_n_back,,,,,,0.0-0.0-78.0,90.0,mismatch,"[77, 90]",g,,656,1000.0,<div class = bigbox><div class = centerbox><div class = gng_number><div class = cue-text><img class = center src='/static/experiments/stop_signal_with_n_back/images/lowercase_G.png'></img></div></div></div></div>,,go,,256438,0.0,practice_trial,78,stop-signal,
79,,,,,,,,,500.0,,,,,,,stop_signal_with_n_back,,,,,,0.0-0.0-79.0,-1.0,,none,,,-1,500.0,"<div class = fb_box><div class = center-text><font size = 20>Correct!</font></div></div><div class = prompt_box><p class = center-block-text style = ""font-size:16px; line-height:80%%;"">Match the current letter to the letter that appeared 1 trial ago</p><p class = center-block-text style = ""font-size:16px; line-height:80%%;"">If they match, press the M Key</p><p class = center-block-text style = ""font-size:16px; line-height:80%%;"">If they mismatch, press the Z Key</p><p class = center-block-text style = ""font-size:16px; line-height:80%%;"">Do not respond if you see a star!</p></div>",,,,256945,0.0,practice-stop-feedback,79,poldrack-single-stim,
80,400.0,350.0,350.0,400.0,500.0,<div class = bigbox><div class = starbox><img class = center src='/static/experiments/stop_signal_with_n_back/images/stopSignal.png'></img></div></div>,go,,2000.0,,90.0,1.0,0.0,40.0,1.0,stop_signal_with_n_back,,,,,,0.0-0.0-80.0,90.0,mismatch,"[77, 90]",T,,667,1000.0,<div class = bigbox><div class = centerbox><div class = gng_number><div class = cue-text><img class = center src='/static/experiments/stop_signal_with_n_back/images/uppercase_T.png'></img></div></div></div></div>,,go,,258956,0.0,practice_trial,80,stop-signal,
81,,,,,,,,,500.0,,,,,,,stop_signal_with_n_back,,,,,,0.0-0.0-81.0,-1.0,,none,,,-1,500.0,"<div class = fb_box><div class = center-text><font size = 20>Correct!</font></div></div><div class = prompt_box><p class = center-block-text style = ""font-size:16px; line-height:80%%;"">Match the current letter to the letter that appeared 1 trial ago</p><p class = center-block-text style = ""font-size:16px; line-height:80%%;"">If they match, press the M Key</p><p class = center-block-text style = ""font-size:16px; line-height:80%%;"">If they mismatch, press the Z Key</p><p class = center-block-text style = ""font-size:16px; line-height:80%%;"">Do not respond if you see a star!</p></div>",,,,259464,0.0,practice-stop-feedback,81,poldrack-single-stim,
82,400.0,350.0,350.0,400.0,500.0,<div class = bigbox><div class = starbox><img class = center src='/static/experiments/stop_signal_with_n_back/images/stopSignal.png'></img></div></div>,stop,,2000.0,,-1.0,1.0,0.0,41.0,1.0,stop_signal_with_n_back,,,,,,0.0-0.0-82.0,-1.0,mismatch,"[77, 90]",b,,-1,1000.0,<div class = bigbox><div class = centerbox><div class = gng_number><div class = cue-text><img class = center src='/static/experiments/stop_signal_with_n_back/images/lowercase_B.png'></img></div></div></div></div>,1.0,stop,,261473,0.0,practice_trial,82,stop-signal,
83,,,,,,,,,500.0,,,,,,,stop_signal_with_n_back,,,,,,0.0-0.0-83.0,-1.0,,none,,,-1,500.0,"<div class = fb_box><div class = center-text><font size = 20>Correct!</font></div></div><div class = prompt_box><p class = center-block-text style = ""font-size:16px; line-height:80%%;"">Match the current letter to the letter that appeared 1 trial ago</p><p class = center-block-text style = ""font-size:16px; line-height:80%%;"">If they match, press the M Key</p><p class = center-block-text style = ""font-size:16px; line-height:80%%;"">If they mismatch, press the Z Key</p><p class = center-block-text style = ""font-size:16px; line-height:80%%;"">Do not respond if you see a star!</p></div>",,,,261980,0.0,practice-stop-feedback,83,poldrack-single-stim,
84,450.0,350.0,350.0,450.0,500.0,<div class = bigbox><div class = starbox><img class = center src='/static/experiments/stop_signal_with_n_back/images/stopSignal.png'></img></div></div>,go,,2000.0,,90.0,1.0,0.0,42.0,1.0,stop_signal_with_n_back,,,,,,0.0-0.0-84.0,90.0,mismatch,"[77, 90]",T,,616,1000.0,<div class = bigbox><div class = centerbox><div class = gng_number><div class = cue-text><img class = center src='/static/experiments/stop_signal_with_n_back/images/uppercase_T.png'></img></div></div></div></div>,,go,,263990,0.0,practice_trial,84,stop-signal,
85,,,,,,,,,500.0,,,,,,,stop_signal_with_n_back,,,,,,0.0-0.0-85.0,-1.0,,none,,,-1,500.0,"<div class = fb_box><div class = center-text><font size = 20>Correct!</font></div></div><div class = prompt_box><p class = center-block-text style = ""font-size:16px; line-height:80%%;"">Match the current letter to the letter that appeared 1 trial ago</p><p class = center-block-text style = ""font-size:16px; line-height:80%%;"">If they match, press the M Key</p><p class = center-block-text style = ""font-size:16px; line-height:80%%;"">If they mismatch, press the Z Key</p><p class = center-block-text style = ""font-size:16px; line-height:80%%;"">Do not respond if you see a star!</p></div>",,,,264497,0.0,practice-stop-feedback,85,poldrack-single-stim,
86,450.0,350.0,350.0,450.0,500.0,<div class = bigbox><div class = starbox><img class = center src='/static/experiments/stop_signal_with_n_back/images/stopSignal.png'></img></div></div>,go,,2000.0,,90.0,1.0,0.0,43.0,1.0,stop_signal_with_n_back,,,,,,0.0-0.0-86.0,90.0,mismatch,"[77, 90]",d,,576,1000.0,<div class = bigbox><div class = centerbox><div class = gng_number><div class = cue-text><img class = center src='/static/experiments/stop_signal_with_n_back/images/lowercase_D.png'></img></div></div></div></div>,,go,,266507,0.0,practice_trial,86,stop-signal,
87,,,,,,,,,500.0,,,,,,,stop_signal_with_n_back,,,,,,0.0-0.0-87.0,-1.0,,none,,,-1,500.0,"<div class = fb_box><div class = center-text><font size = 20>Correct!</font></div></div><div class = prompt_box><p class = center-block-text style = ""font-size:16px; line-height:80%%;"">Match the current letter to the letter that appeared 1 trial ago</p><p class = center-block-text style = ""font-size:16px; line-height:80%%;"">If they match, press the M Key</p><p class = center-block-text style = ""font-size:16px; line-height:80%%;"">If they mismatch, press the Z Key</p><p class = center-block-text style = ""font-size:16px; line-height:80%%;"">Do not respond if you see a star!</p></div>",,,,267015,0.0,practice-stop-feedback,87,poldrack-single-stim,
88,450.0,350.0,350.0,450.0,500.0,<div class = bigbox><div class = starbox><img class = center src='/static/experiments/stop_signal_with_n_back/images/stopSignal.png'></img></div></div>,stop,,2000.0,,-1.0,0.0,0.0,44.0,1.0,stop_signal_with_n_back,,,,,,0.0-0.0-88.0,90.0,mismatch,"[77, 90]",T,,588,1000.0,<div class = bigbox><div class = centerbox><div class = gng_number><div class = cue-text><img class = center src='/static/experiments/stop_signal_with_n_back/images/uppercase_T.png'></img></div></div></div></div>,0.0,stop,,269025,0.0,practice_trial,88,stop-signal,
89,,,,,,,,,500.0,,,,,,,stop_signal_with_n_back,,,,,,0.0-0.0-89.0,-1.0,,none,,,-1,500.0,"<div class = fb_box><div class = center-text><font size = 20>There was a star.</font></div></div><div class = prompt_box><p class = center-block-text style = ""font-size:16px; line-height:80%%;"">Match the current letter to the letter that appeared 1 trial ago</p><p class = center-block-text style = ""font-size:16px; line-height:80%%;"">If they match, press the M Key</p><p class = center-block-text style = ""font-size:16px; line-height:80%%;"">If they mismatch, press the Z Key</p><p class = center-block-text style = ""font-size:16px; line-height:80%%;"">Do not respond if you see a star!</p></div>",,,,269532,0.0,practice-stop-feedback,89,poldrack-single-stim,
90,400.0,350.0,350.0,400.0,500.0,<div class = bigbox><div class = starbox><img class = center src='/static/experiments/stop_signal_with_n_back/images/stopSignal.png'></img></div></div>,go,,2000.0,,90.0,1.0,0.0,45.0,1.0,stop_signal_with_n_back,,,,,,0.0-0.0-90.0,90.0,mismatch,"[77, 90]",g,,638,1000.0,<div class = bigbox><div class = centerbox><div class = gng_number><div class = cue-text><img class = center src='/static/experiments/stop_signal_with_n_back/images/lowercase_G.png'></img></div></div></div></div>,,go,,271551,0.0,practice_trial,90,stop-signal,
91,,,,,,,,,500.0,,,,,,,stop_signal_with_n_back,,,,,,0.0-0.0-91.0,-1.0,,none,,,-1,500.0,"<div class = fb_box><div class = center-text><font size = 20>Correct!</font></div></div><div class = prompt_box><p class = center-block-text style = ""font-size:16px; line-height:80%%;"">Match the current letter to the letter that appeared 1 trial ago</p><p class = center-block-text style = ""font-size:16px; line-height:80%%;"">If they match, press the M Key</p><p class = center-block-text style = ""font-size:16px; line-height:80%%;"">If they mismatch, press the Z Key</p><p class = center-block-text style = ""font-size:16px; line-height:80%%;"">Do not respond if you see a star!</p></div>",,,,272060,0.0,practice-stop-feedback,91,poldrack-single-stim,
92,400.0,350.0,350.0,400.0,500.0,<div class = bigbox><div class = starbox><img class = center src='/static/experiments/stop_signal_with_n_back/images/stopSignal.png'></img></div></div>,stop,,2000.0,,-1.0,1.0,0.0,46.0,1.0,stop_signal_with_n_back,,,,,,0.0-0.0-92.0,-1.0,mismatch,"[77, 90]",d,,-1,1000.0,<div class = bigbox><div class = centerbox><div class = gng_number><div class = cue-text><img class = center src='/static/experiments/stop_signal_with_n_back/images/lowercase_D.png'></img></div></div></div></div>,1.0,stop,,274068,0.0,practice_trial,92,stop-signal,
93,,,,,,,,,500.0,,,,,,,stop_signal_with_n_back,,,,,,0.0-0.0-93.0,-1.0,,none,,,-1,500.0,"<div class = fb_box><div class = center-text><font size = 20>Correct!</font></div></div><div class = prompt_box><p class = center-block-text style = ""font-size:16px; line-height:80%%;"">Match the current letter to the letter that appeared 1 trial ago</p><p class = center-block-text style = ""font-size:16px; line-height:80%%;"">If they match, press the M Key</p><p class = center-block-text style = ""font-size:16px; line-height:80%%;"">If they mismatch, press the Z Key</p><p class = center-block-text style = ""font-size:16px; line-height:80%%;"">Do not respond if you see a star!</p></div>",,,,274576,0.0,practice-stop-feedback,93,poldrack-single-stim,
94,450.0,350.0,350.0,450.0,500.0,<div class = bigbox><div class = starbox><img class = center src='/static/experiments/stop_signal_with_n_back/images/stopSignal.png'></img></div></div>,stop,,2000.0,,-1.0,0.0,0.0,47.0,1.0,stop_signal_with_n_back,,,,,,0.0-0.0-94.0,77.0,match,"[77, 90]",D,,590,1000.0,<div class = bigbox><div class = centerbox><div class = gng_number><div class = cue-text><img class = center src='/static/experiments/stop_signal_with_n_back/images/uppercase_D.png'></img></div></div></div></div>,0.0,stop,,276584,0.0,practice_trial,94,stop-signal,
95,,,,,,,,,500.0,,,,,,,stop_signal_with_n_back,,,,,,0.0-0.0-95.0,-1.0,,none,,,-1,500.0,"<div class = fb_box><div class = center-text><font size = 20>There was a star.</font></div></div><div class = prompt_box><p class = center-block-text style = ""font-size:16px; line-height:80%%;"">Match the current letter to the letter that appeared 1 trial ago</p><p class = center-block-text style = ""font-size:16px; line-height:80%%;"">If they match, press the M Key</p><p class = center-block-text style = ""font-size:16px; line-height:80%%;"">If they mismatch, press the Z Key</p><p class = center-block-text style = ""font-size:16px; line-height:80%%;"">Do not respond if you see a star!</p></div>",,,,277093,0.0,practice-stop-feedback,95,poldrack-single-stim,
96,400.0,350.0,350.0,400.0,500.0,<div class = bigbox><div class = starbox><img class = center src='/static/experiments/stop_signal_with_n_back/images/stopSignal.png'></img></div></div>,stop,,2000.0,,-1.0,1.0,0.0,48.0,1.0,stop_signal_with_n_back,,,,,,0.0-0.0-96.0,-1.0,match,"[77, 90]",d,,-1,1000.0,<div class = bigbox><div class = centerbox><div class = gng_number><div class = cue-text><img class = center src='/static/experiments/stop_signal_with_n_back/images/lowercase_D.png'></img></div></div></div></div>,1.0,stop,,279101,0.0,practice_trial,96,stop-signal,
97,,,,,,,,,500.0,,,,,,,stop_signal_with_n_back,,,,,,0.0-0.0-97.0,-1.0,,none,,,-1,500.0,"<div class = fb_box><div class = center-text><font size = 20>Correct!</font></div></div><div class = prompt_box><p class = center-block-text style = ""font-size:16px; line-height:80%%;"">Match the current letter to the letter that appeared 1 trial ago</p><p class = center-block-text style = ""font-size:16px; line-height:80%%;"">If they match, press the M Key</p><p class = center-block-text style = ""font-size:16px; line-height:80%%;"">If they mismatch, press the Z Key</p><p class = center-block-text style = ""font-size:16px; line-height:80%%;"">Do not respond if you see a star!</p></div>",,,,279609,0.0,practice-stop-feedback,97,poldrack-single-stim,
98,,,,,,,,,5617.0,,,,,,,stop_signal_with_n_back,,,,,,0.0-1.0,13.0,,[13],,,5617,5617.0,"<div class = bigbox><div class = picture_box><p class = block-text><font color=""white""><br>Please take this time to read your feedback and to take a short break! Press enter to continue.</p><p class = block-text>Done with this practice. Press Enter to continue.</font></p></div></div>",,,,285246,0.0,practice-no-stop-feedback,98,poldrack-single-stim,
99,,,,,,,,,5447.0,,,,,,,stop_signal_with_n_back,,,,,,0.0-2.0,13.0,,,,,5447,,,,,"<div class = centerbox><p class = block-text>We will now begin the test portion.</p><p class = block-text>You will be asked to match the current letter to the letter that appeared either 1, 2, 3 trials ago depending on the delay given to you for that block.</p><p class = block-text>Press the M Key if they match, or the Z Key if they mismatch.</p><p class = block-text>Your delay (the number of trials ago to which you must match the current letter) will change from block to block.</p><p class = block-text>Do not respond if you see a star! You should remember the letter on that trial, however.</p><p class = block-text>Capitalization does not matter, so ""T"" matches with ""t"".</p> <p class = block-text>You will no longer receive the rule prompt, so remember the instructions before you continue. Press Enter to begin.</p></div>",290699,1000.0,instruction,99,poldrack-text,
100,,,,,,,,,7199.0,,,,,,,stop_signal_with_n_back,,,,,,0.0-3.0-0.0,13.0,,[13],,,7199,7199.0,"<div class = bigbox><div class = picture_box><p class = block-text><font color=""white"">Your delay for this block is 2. Please match the current letter to the letter that appeared 2 trial(s) ago. Press enter to begin.</font></p></div></div>",,,,298904,0.0,practice-no-stop-feedback,100,poldrack-single-stim,
101,,,,,,,,,6051.0,True,40.0,,,,,stop_signal_with_n_back,,,,,,0.0-3.0-1.0-0.0,40.0,,[],,,6051,6051.0,<p>Press the arrow key that indicates the direction of the floor when standing.</p>,,,,304962,200.0,attention_check,101,attention-check,
102,450.0,350.0,350.0,350.0,500.0,<div class = bigbox><div class = starbox><img class = center src='/static/experiments/stop_signal_with_n_back/images/stopSignal.png'></img></div></div>,go,,2000.0,,90.0,1.0,0.0,1.0,2.0,stop_signal_with_n_back,,,,,,0.0-3.0-2.0,90.0,N/A,"[77, 90]",G,,765,1000.0,<div class = bigbox><div class = centerbox><div class = gng_number><div class = cue-text><img class = center src='/static/experiments/stop_signal_with_n_back/images/uppercase_G.png'></img></div></div></div></div>,,go,,307172,0.0,test_trial,102,stop-signal,
103,450.0,350.0,350.0,350.0,500.0,<div class = bigbox><div class = starbox><img class = center src='/static/experiments/stop_signal_with_n_back/images/stopSignal.png'></img></div></div>,go,,2000.0,,90.0,1.0,0.0,2.0,2.0,stop_signal_with_n_back,,,,,,0.0-3.0-3.0,90.0,N/A,"[77, 90]",b,,746,1000.0,<div class = bigbox><div class = centerbox><div class = gng_number><div class = cue-text><img class = center src='/static/experiments/stop_signal_with_n_back/images/lowercase_B.png'></img></div></div></div></div>,,go,,309180,0.0,test_trial,103,stop-signal,
104,450.0,350.0,350.0,350.0,500.0,<div class = bigbox><div class = starbox><img class = center src='/static/experiments/stop_signal_with_n_back/images/stopSignal.png'></img></div></div>,go,,2000.0,,77.0,0.0,0.0,3.0,2.0,stop_signal_with_n_back,,,,,,0.0-3.0-4.0,90.0,match,"[77, 90]",g,,716,1000.0,<div class = bigbox><div class = centerbox><div class = gng_number><div class = cue-text><img class = center src='/static/experiments/stop_signal_with_n_back/images/lowercase_G.png'></img></div></div></div></div>,,go,,311188,0.0,test_trial,104,stop-signal,
105,450.0,350.0,350.0,350.0,500.0,<div class = bigbox><div class = starbox><img class = center src='/static/experiments/stop_signal_with_n_back/images/stopSignal.png'></img></div></div>,stop,,2000.0,,-1.0,1.0,0.0,4.0,2.0,stop_signal_with_n_back,,,,,,0.0-3.0-5.0,-1.0,mismatch,"[77, 90]",T,,-1,1000.0,<div class = bigbox><div class = centerbox><div class = gng_number><div class = cue-text><img class = center src='/static/experiments/stop_signal_with_n_back/images/uppercase_T.png'></img></div></div></div></div>,1.0,stop,,313196,0.0,test_trial,105,stop-signal,
106,450.0,400.0,350.0,400.0,500.0,<div class = bigbox><div class = starbox><img class = center src='/static/experiments/stop_signal_with_n_back/images/stopSignal.png'></img></div></div>,stop,,2000.0,,-1.0,1.0,0.0,5.0,2.0,stop_signal_with_n_back,,,,,,0.0-3.0-6.0,-1.0,mismatch,"[77, 90]",v,,-1,1000.0,<div class = bigbox><div class = centerbox><div class = gng_number><div class = cue-text><img class = center src='/static/experiments/stop_signal_with_n_back/images/lowercase_V.png'></img></div></div></div></div>,1.0,stop,,315215,0.0,test_trial,106,stop-signal,
107,450.0,450.0,350.0,450.0,500.0,<div class = bigbox><div class = starbox><img class = center src='/static/experiments/stop_signal_with_n_back/images/stopSignal.png'></img></div></div>,go,,2000.0,,77.0,1.0,0.0,6.0,2.0,stop_signal_with_n_back,,,,,,0.0-3.0-7.0,77.0,match,"[77, 90]",t,,796,1000.0,<div class = bigbox><div class = centerbox><div class = gng_number><div class = cue-text><img class = center src='/static/experiments/stop_signal_with_n_back/images/lowercase_T.png'></img></div></div></div></div>,,go,,317221,0.0,test_trial,107,stop-signal,
108,450.0,450.0,350.0,450.0,500.0,<div class = bigbox><div class = starbox><img class = center src='/static/experiments/stop_signal_with_n_back/images/stopSignal.png'></img></div></div>,stop,,2000.0,,-1.0,0.0,0.0,7.0,2.0,stop_signal_with_n_back,,,,,,0.0-3.0-8.0,90.0,mismatch,"[77, 90]",B,,1051,1000.0,<div class = bigbox><div class = centerbox><div class = gng_number><div class = cue-text><img class = center src='/static/experiments/stop_signal_with_n_back/images/uppercase_B.png'></img></div></div></div></div>,0.0,stop,,319233,0.0,test_trial,108,stop-signal,
109,450.0,400.0,350.0,400.0,500.0,<div class = bigbox><div class = starbox><img class = center src='/static/experiments/stop_signal_with_n_back/images/stopSignal.png'></img></div></div>,go,,2000.0,,90.0,1.0,0.0,8.0,2.0,stop_signal_with_n_back,,,,,,0.0-3.0-9.0,90.0,mismatch,"[77, 90]",g,,715,1000.0,<div class = bigbox><div class = centerbox><div class = gng_number><div class = cue-text><img class = center src='/static/experiments/stop_signal_with_n_back/images/lowercase_G.png'></img></div></div></div></div>,,go,,321247,0.0,test_trial,109,stop-signal,
110,450.0,400.0,350.0,400.0,500.0,<div class = bigbox><div class = starbox><img class = center src='/static/experiments/stop_signal_with_n_back/images/stopSignal.png'></img></div></div>,go,,2000.0,,90.0,1.0,0.0,9.0,2.0,stop_signal_with_n_back,,,,,,0.0-3.0-10.0,90.0,mismatch,"[77, 90]",t,,749,1000.0,<div class = bigbox><div class = centerbox><div class = gng_number><div class = cue-text><img class = center src='/static/experiments/stop_signal_with_n_back/images/lowercase_T.png'></img></div></div></div></div>,,go,,323255,0.0,test_trial,110,stop-signal,
111,450.0,400.0,350.0,400.0,500.0,<div class = bigbox><div class = starbox><img class = center src='/static/experiments/stop_signal_with_n_back/images/stopSignal.png'></img></div></div>,go,,2000.0,,77.0,1.0,0.0,10.0,2.0,stop_signal_with_n_back,,,,,,0.0-3.0-11.0,77.0,match,"[77, 90]",G,,495,1000.0,<div class = bigbox><div class = centerbox><div class = gng_number><div class = cue-text><img class = center src='/static/experiments/stop_signal_with_n_back/images/uppercase_G.png'></img></div></div></div></div>,,go,,325263,0.0,test_trial,111,stop-signal,
112,450.0,400.0,350.0,400.0,500.0,<div class = bigbox><div class = starbox><img class = center src='/static/experiments/stop_signal_with_n_back/images/stopSignal.png'></img></div></div>,go,,2000.0,,90.0,1.0,0.0,11.0,2.0,stop_signal_with_n_back,,,,,,0.0-3.0-12.0,90.0,mismatch,"[77, 90]",B,,597,1000.0,<div class = bigbox><div class = centerbox><div class = gng_number><div class = cue-text><img class = center src='/static/experiments/stop_signal_with_n_back/images/uppercase_B.png'></img></div></div></div></div>,,go,,327269,0.0,test_trial,112,stop-signal,
113,450.0,400.0,350.0,400.0,500.0,<div class = bigbox><div class = starbox><img class = center src='/static/experiments/stop_signal_with_n_back/images/stopSignal.png'></img></div></div>,stop,,2000.0,,-1.0,0.0,0.0,12.0,2.0,stop_signal_with_n_back,,,,,,0.0-3.0-13.0,90.0,mismatch,"[77, 90]",v,,556,1000.0,<div class = bigbox><div class = centerbox><div class = gng_number><div class = cue-text><img class = center src='/static/experiments/stop_signal_with_n_back/images/lowercase_V.png'></img></div></div></div></div>,0.0,stop,,329276,0.0,test_trial,113,stop-signal,
114,450.0,350.0,350.0,350.0,500.0,<div class = bigbox><div class = starbox><img class = center src='/static/experiments/stop_signal_with_n_back/images/stopSignal.png'></img></div></div>,stop,,2000.0,,-1.0,1.0,0.0,13.0,2.0,stop_signal_with_n_back,,,,,,0.0-3.0-14.0,-1.0,match,"[77, 90]",B,,-1,1000.0,<div class = bigbox><div class = centerbox><div class = gng_number><div class = cue-text><img class = center src='/static/experiments/stop_signal_with_n_back/images/uppercase_B.png'></img></div></div></div></div>,1.0,stop,,331282,0.0,test_trial,114,stop-signal,
115,450.0,400.0,350.0,400.0,500.0,<div class = bigbox><div class = starbox><img class = center src='/static/experiments/stop_signal_with_n_back/images/stopSignal.png'></img></div></div>,go,,2000.0,,77.0,1.0,0.0,14.0,2.0,stop_signal_with_n_back,,,,,,0.0-3.0-15.0,77.0,match,"[77, 90]",v,,567,1000.0,<div class = bigbox><div class = centerbox><div class = gng_number><div class = cue-text><img class = center src='/static/experiments/stop_signal_with_n_back/images/lowercase_V.png'></img></div></div></div></div>,,go,,333289,0.0,test_trial,115,stop-signal,
116,450.0,400.0,350.0,400.0,500.0,<div class = bigbox><div class = starbox><img class = center src='/static/experiments/stop_signal_with_n_back/images/stopSignal.png'></img></div></div>,stop,,2000.0,,-1.0,1.0,0.0,15.0,2.0,stop_signal_with_n_back,,,,,,0.0-3.0-16.0,-1.0,mismatch,"[77, 90]",V,,-1,1000.0,<div class = bigbox><div class = centerbox><div class = gng_number><div class = cue-text><img class = center src='/static/experiments/stop_signal_with_n_back/images/uppercase_V.png'></img></div></div></div></div>,1.0,stop,,335299,0.0,test_trial,116,stop-signal,
117,450.0,450.0,350.0,450.0,500.0,<div class = bigbox><div class = starbox><img class = center src='/static/experiments/stop_signal_with_n_back/images/stopSignal.png'></img></div></div>,go,,2000.0,,90.0,1.0,0.0,16.0,2.0,stop_signal_with_n_back,,,,,,0.0-3.0-17.0,90.0,mismatch,"[77, 90]",D,,543,1000.0,<div class = bigbox><div class = centerbox><div class = gng_number><div class = cue-text><img class = center src='/static/experiments/stop_signal_with_n_back/images/uppercase_D.png'></img></div></div></div></div>,,go,,337306,0.0,test_trial,117,stop-signal,
118,450.0,450.0,350.0,450.0,500.0,<div class = bigbox><div class = starbox><img class = center src='/static/experiments/stop_signal_with_n_back/images/stopSignal.png'></img></div></div>,go,,2000.0,,77.0,0.0,0.0,17.0,2.0,stop_signal_with_n_back,,,,,,0.0-3.0-18.0,90.0,match,"[77, 90]",V,,598,1000.0,<div class = bigbox><div class = centerbox><div class = gng_number><div class = cue-text><img class = center src='/static/experiments/stop_signal_with_n_back/images/uppercase_V.png'></img></div></div></div></div>,,go,,339314,0.0,test_trial,118,stop-signal,
119,450.0,450.0,350.0,450.0,500.0,<div class = bigbox><div class = starbox><img class = center src='/static/experiments/stop_signal_with_n_back/images/stopSignal.png'></img></div></div>,stop,,2000.0,,-1.0,1.0,0.0,18.0,2.0,stop_signal_with_n_back,,,,,,0.0-3.0-19.0,-1.0,mismatch,"[77, 90]",B,,-1,1000.0,<div class = bigbox><div class = centerbox><div class = gng_number><div class = cue-text><img class = center src='/static/experiments/stop_signal_with_n_back/images/uppercase_B.png'></img></div></div></div></div>,1.0,stop,,341321,0.0,test_trial,119,stop-signal,
120,450.0,500.0,350.0,500.0,500.0,<div class = bigbox><div class = starbox><img class = center src='/static/experiments/stop_signal_with_n_back/images/stopSignal.png'></img></div></div>,go,,2000.0,,90.0,1.0,0.0,19.0,2.0,stop_signal_with_n_back,,,,,,0.0-3.0-20.0,90.0,mismatch,"[77, 90]",T,,548,1000.0,<div class = bigbox><div class = centerbox><div class = gng_number><div class = cue-text><img class = center src='/static/experiments/stop_signal_with_n_back/images/uppercase_T.png'></img></div></div></div></div>,,go,,343328,0.0,test_trial,120,stop-signal,
121,450.0,500.0,350.0,500.0,500.0,<div class = bigbox><div class = starbox><img class = center src='/static/experiments/stop_signal_with_n_back/images/stopSignal.png'></img></div></div>,go,,2000.0,,90.0,1.0,0.0,20.0,2.0,stop_signal_with_n_back,,,,,,0.0-3.0-21.0,90.0,mismatch,"[77, 90]",T,,757,1000.0,<div class = bigbox><div class = centerbox><div class = gng_number><div class = cue-text><img class = center src='/static/experiments/stop_signal_with_n_back/images/uppercase_T.png'></img></div></div></div></div>,,go,,345336,0.0,test_trial,121,stop-signal,
122,450.0,500.0,350.0,500.0,500.0,<div class = bigbox><div class = starbox><img class = center src='/static/experiments/stop_signal_with_n_back/images/stopSignal.png'></img></div></div>,go,,2000.0,,90.0,0.0,0.0,21.0,2.0,stop_signal_with_n_back,,,,,,0.0-3.0-22.0,77.0,mismatch,"[77, 90]",G,,733,1000.0,<div class = bigbox><div class = centerbox><div class = gng_number><div class = cue-text><img class = center src='/static/experiments/stop_signal_with_n_back/images/uppercase_G.png'></img></div></div></div></div>,,go,,347345,0.0,test_trial,122,stop-signal,
123,450.0,500.0,350.0,500.0,500.0,<div class = bigbox><div class = starbox><img class = center src='/static/experiments/stop_signal_with_n_back/images/stopSignal.png'></img></div></div>,stop,,2000.0,,-1.0,0.0,0.0,22.0,2.0,stop_signal_with_n_back,,,,,,0.0-3.0-23.0,90.0,mismatch,"[77, 90]",d,,659,1000.0,<div class = bigbox><div class = centerbox><div class = gng_number><div class = cue-text><img class = center src='/static/experiments/stop_signal_with_n_back/images/lowercase_D.png'></img></div></div></div></div>,0.0,stop,,349351,0.0,test_trial,123,stop-signal,
124,450.0,450.0,350.0,450.0,500.0,<div class = bigbox><div class = starbox><img class = center src='/static/experiments/stop_signal_with_n_back/images/stopSignal.png'></img></div></div>,go,,2000.0,,90.0,1.0,0.0,23.0,2.0,stop_signal_with_n_back,,,,,,0.0-3.0-24.0,90.0,mismatch,"[77, 90]",b,,612,1000.0,<div class = bigbox><div class = centerbox><div class = gng_number><div class = cue-text><img class = center src='/static/experiments/stop_signal_with_n_back/images/lowercase_B.png'></img></div></div></div></div>,,go,,351358,0.0,test_trial,124,stop-signal,
125,450.0,450.0,350.0,450.0,500.0,<div class = bigbox><div class = starbox><img class = center src='/static/experiments/stop_signal_with_n_back/images/stopSignal.png'></img></div></div>,go,,2000.0,,90.0,1.0,0.0,24.0,2.0,stop_signal_with_n_back,,,,,,0.0-3.0-25.0,90.0,mismatch,"[77, 90]",v,,601,1000.0,<div class = bigbox><div class = centerbox><div class = gng_number><div class = cue-text><img class = center src='/static/experiments/stop_signal_with_n_back/images/lowercase_V.png'></img></div></div></div></div>,,go,,353365,0.0,test_trial,125,stop-signal,
126,450.0,450.0,350.0,450.0,500.0,<div class = bigbox><div class = starbox><img class = center src='/static/experiments/stop_signal_with_n_back/images/stopSignal.png'></img></div></div>,go,,2000.0,,77.0,1.0,0.0,25.0,2.0,stop_signal_with_n_back,,,,,,0.0-3.0-26.0,77.0,match,"[77, 90]",b,,477,1000.0,<div class = bigbox><div class = centerbox><div class = gng_number><div class = cue-text><img class = center src='/static/experiments/stop_signal_with_n_back/images/lowercase_B.png'></img></div></div></div></div>,,go,,355373,0.0,test_trial,126,stop-signal,
127,450.0,450.0,350.0,450.0,500.0,<div class = bigbox><div class = starbox><img class = center src='/static/experiments/stop_signal_with_n_back/images/stopSignal.png'></img></div></div>,go,,2000.0,,90.0,1.0,0.0,26.0,2.0,stop_signal_with_n_back,,,,,,0.0-3.0-27.0,90.0,mismatch,"[77, 90]",t,,601,1000.0,<div class = bigbox><div class = centerbox><div class = gng_number><div class = cue-text><img class = center src='/static/experiments/stop_signal_with_n_back/images/lowercase_T.png'></img></div></div></div></div>,,go,,357383,0.0,test_trial,127,stop-signal,
128,450.0,450.0,350.0,450.0,500.0,<div class = bigbox><div class = starbox><img class = center src='/static/experiments/stop_signal_with_n_back/images/stopSignal.png'></img></div></div>,go,,2000.0,,90.0,0.0,0.0,27.0,2.0,stop_signal_with_n_back,,,,,,0.0-3.0-28.0,77.0,mismatch,"[77, 90]",V,,687,1000.0,<div class = bigbox><div class = centerbox><div class = gng_number><div class = cue-text><img class = center src='/static/experiments/stop_signal_with_n_back/images/uppercase_V.png'></img></div></div></div></div>,,go,,359390,0.0,test_trial,128,stop-signal,
129,450.0,450.0,350.0,450.0,500.0,<div class = bigbox><div class = starbox><img class = center src='/static/experiments/stop_signal_with_n_back/images/stopSignal.png'></img></div></div>,go,,2000.0,,90.0,1.0,0.0,28.0,2.0,stop_signal_with_n_back,,,,,,0.0-3.0-29.0,90.0,mismatch,"[77, 90]",D,,599,1000.0,<div class = bigbox><div class = centerbox><div class = gng_number><div class = cue-text><img class = center src='/static/experiments/stop_signal_with_n_back/images/uppercase_D.png'></img></div></div></div></div>,,go,,361406,0.0,test_trial,129,stop-signal,
130,450.0,450.0,350.0,450.0,500.0,<div class = bigbox><div class = starbox><img class = center src='/static/experiments/stop_signal_with_n_back/images/stopSignal.png'></img></div></div>,stop,,2000.0,,-1.0,0.0,0.0,29.0,2.0,stop_signal_with_n_back,,,,,,0.0-3.0-30.0,90.0,mismatch,"[77, 90]",g,,502,1000.0,<div class = bigbox><div class = centerbox><div class = gng_number><div class = cue-text><img class = center src='/static/experiments/stop_signal_with_n_back/images/lowercase_G.png'></img></div></div></div></div>,0.0,stop,,363416,0.0,test_trial,130,stop-signal,
131,450.0,400.0,350.0,400.0,500.0,<div class = bigbox><div class = starbox><img class = center src='/static/experiments/stop_signal_with_n_back/images/stopSignal.png'></img></div></div>,go,,2000.0,,77.0,1.0,0.0,30.0,2.0,stop_signal_with_n_back,,,,,,0.0-3.0-31.0,77.0,match,"[77, 90]",D,,577,1000.0,<div class = bigbox><div class = centerbox><div class = gng_number><div class = cue-text><img class = center src='/static/experiments/stop_signal_with_n_back/images/uppercase_D.png'></img></div></div></div></div>,,go,,365422,0.0,test_trial,131,stop-signal,
132,450.0,400.0,350.0,400.0,500.0,<div class = bigbox><div class = starbox><img class = center src='/static/experiments/stop_signal_with_n_back/images/stopSignal.png'></img></div></div>,go,,2000.0,,90.0,0.0,0.0,31.0,2.0,stop_signal_with_n_back,,,,,,0.0-3.0-32.0,77.0,mismatch,"[77, 90]",D,,614,1000.0,<div class = bigbox><div class = centerbox><div class = gng_number><div class = cue-text><img class = center src='/static/experiments/stop_signal_with_n_back/images/uppercase_D.png'></img></div></div></div></div>,,go,,367431,0.0,test_trial,132,stop-signal,
133,450.0,400.0,350.0,400.0,500.0,<div class = bigbox><div class = starbox><img class = center src='/static/experiments/stop_signal_with_n_back/images/stopSignal.png'></img></div></div>,go,,2000.0,,90.0,1.0,0.0,32.0,2.0,stop_signal_with_n_back,,,,,,0.0-3.0-33.0,90.0,mismatch,"[77, 90]",B,,548,1000.0,<div class = bigbox><div class = centerbox><div class = gng_number><div class = cue-text><img class = center src='/static/experiments/stop_signal_with_n_back/images/uppercase_B.png'></img></div></div></div></div>,,go,,369438,0.0,test_trial,133,stop-signal,
134,450.0,400.0,350.0,400.0,500.0,<div class = bigbox><div class = starbox><img class = center src='/static/experiments/stop_signal_with_n_back/images/stopSignal.png'></img></div></div>,go,,2000.0,,90.0,1.0,0.0,33.0,2.0,stop_signal_with_n_back,,,,,,0.0-3.0-34.0,90.0,mismatch,"[77, 90]",V,,596,1000.0,<div class = bigbox><div class = centerbox><div class = gng_number><div class = cue-text><img class = center src='/static/experiments/stop_signal_with_n_back/images/uppercase_V.png'></img></div></div></div></div>,,go,,371445,0.0,test_trial,134,stop-signal,
135,450.0,400.0,350.0,400.0,500.0,<div class = bigbox><div class = starbox><img class = center src='/static/experiments/stop_signal_with_n_back/images/stopSignal.png'></img></div></div>,stop,,2000.0,,-1.0,0.0,0.0,34.0,2.0,stop_signal_with_n_back,,,,,,0.0-3.0-35.0,77.0,match,"[77, 90]",b,,483,1000.0,<div class = bigbox><div class = centerbox><div class = gng_number><div class = cue-text><img class = center src='/static/experiments/stop_signal_with_n_back/images/lowercase_B.png'></img></div></div></div></div>,0.0,stop,,373451,0.0,test_trial,135,stop-signal,
136,450.0,350.0,350.0,350.0,500.0,<div class = bigbox><div class = starbox><img class = center src='/static/experiments/stop_signal_with_n_back/images/stopSignal.png'></img></div></div>,go,,2000.0,,90.0,1.0,0.0,35.0,2.0,stop_signal_with_n_back,,,,,,0.0-3.0-36.0,90.0,mismatch,"[77, 90]",G,,502,1000.0,<div class = bigbox><div class = centerbox><div class = gng_number><div class = cue-text><img class = center src='/static/experiments/stop_signal_with_n_back/images/uppercase_G.png'></img></div></div></div></div>,,go,,375458,0.0,test_trial,136,stop-signal,
137,450.0,350.0,350.0,350.0,500.0,<div class = bigbox><div class = starbox><img class = center src='/static/experiments/stop_signal_with_n_back/images/stopSignal.png'></img></div></div>,stop,,2000.0,,-1.0,1.0,0.0,36.0,2.0,stop_signal_with_n_back,,,,,,0.0-3.0-37.0,-1.0,mismatch,"[77, 90]",g,,-1,1000.0,<div class = bigbox><div class = centerbox><div class = gng_number><div class = cue-text><img class = center src='/static/experiments/stop_signal_with_n_back/images/lowercase_G.png'></img></div></div></div></div>,1.0,stop,,377466,0.0,test_trial,137,stop-signal,
138,450.0,400.0,350.0,400.0,500.0,<div class = bigbox><div class = starbox><img class = center src='/static/experiments/stop_signal_with_n_back/images/stopSignal.png'></img></div></div>,go,,2000.0,,90.0,1.0,0.0,37.0,2.0,stop_signal_with_n_back,,,,,,0.0-3.0-38.0,90.0,mismatch,"[77, 90]",t,,489,1000.0,<div class = bigbox><div class = centerbox><div class = gng_number><div class = cue-text><img class = center src='/static/experiments/stop_signal_with_n_back/images/lowercase_T.png'></img></div></div></div></div>,,go,,379474,0.0,test_trial,138,stop-signal,
139,450.0,400.0,350.0,400.0,500.0,<div class = bigbox><div class = starbox><img class = center src='/static/experiments/stop_signal_with_n_back/images/stopSignal.png'></img></div></div>,stop,,2000.0,,-1.0,1.0,0.0,38.0,2.0,stop_signal_with_n_back,,,,,,0.0-3.0-39.0,-1.0,match,"[77, 90]",G,,-1,1000.0,<div class = bigbox><div class = centerbox><div class = gng_number><div class = cue-text><img class = center src='/static/experiments/stop_signal_with_n_back/images/uppercase_G.png'></img></div></div></div></div>,1.0,stop,,381485,0.0,test_trial,139,stop-signal,
140,450.0,450.0,350.0,450.0,500.0,<div class = bigbox><div class = starbox><img class = center src='/static/experiments/stop_signal_with_n_back/images/stopSignal.png'></img></div></div>,go,,2000.0,,90.0,1.0,0.0,39.0,2.0,stop_signal_with_n_back,,,,,,0.0-3.0-40.0,90.0,mismatch,"[77, 90]",D,,543,1000.0,<div class = bigbox><div class = centerbox><div class = gng_number><div class = cue-text><img class = center src='/static/experiments/stop_signal_with_n_back/images/uppercase_D.png'></img></div></div></div></div>,,go,,383493,0.0,test_trial,140,stop-signal,
141,450.0,450.0,350.0,450.0,500.0,<div class = bigbox><div class = starbox><img class = center src='/static/experiments/stop_signal_with_n_back/images/stopSignal.png'></img></div></div>,go,,2000.0,,90.0,1.0,0.0,40.0,2.0,stop_signal_with_n_back,,,,,,0.0-3.0-41.0,90.0,mismatch,"[77, 90]",v,,608,1000.0,<div class = bigbox><div class = centerbox><div class = gng_number><div class = cue-text><img class = center src='/static/experiments/stop_signal_with_n_back/images/lowercase_V.png'></img></div></div></div></div>,,go,,385500,0.0,test_trial,141,stop-signal,
142,450.0,450.0,350.0,450.0,500.0,<div class = bigbox><div class = starbox><img class = center src='/static/experiments/stop_signal_with_n_back/images/stopSignal.png'></img></div></div>,go,,2000.0,,90.0,1.0,0.0,41.0,2.0,stop_signal_with_n_back,,,,,,0.0-3.0-42.0,90.0,mismatch,"[77, 90]",V,,596,1000.0,<div class = bigbox><div class = centerbox><div class = gng_number><div class = cue-text><img class = center src='/static/experiments/stop_signal_with_n_back/images/uppercase_V.png'></img></div></div></div></div>,,go,,387507,0.0,test_trial,142,stop-signal,
143,450.0,450.0,350.0,450.0,500.0,<div class = bigbox><div class = starbox><img class = center src='/static/experiments/stop_signal_with_n_back/images/stopSignal.png'></img></div></div>,go,,2000.0,,90.0,1.0,0.0,42.0,2.0,stop_signal_with_n_back,,,,,,0.0-3.0-43.0,90.0,mismatch,"[77, 90]",b,,570,1000.0,<div class = bigbox><div class = centerbox><div class = gng_number><div class = cue-text><img class = center src='/static/experiments/stop_signal_with_n_back/images/lowercase_B.png'></img></div></div></div></div>,,go,,389513,0.0,test_trial,143,stop-signal,
144,450.0,450.0,350.0,450.0,500.0,<div class = bigbox><div class = starbox><img class = center src='/static/experiments/stop_signal_with_n_back/images/stopSignal.png'></img></div></div>,stop,,2000.0,,-1.0,0.0,0.0,43.0,2.0,stop_signal_with_n_back,,,,,,0.0-3.0-44.0,90.0,mismatch,"[77, 90]",d,,627,1000.0,<div class = bigbox><div class = centerbox><div class = gng_number><div class = cue-text><img class = center src='/static/experiments/stop_signal_with_n_back/images/lowercase_D.png'></img></div></div></div></div>,0.0,stop,,391523,0.0,test_trial,144,stop-signal,
145,450.0,400.0,350.0,400.0,500.0,<div class = bigbox><div class = starbox><img class = center src='/static/experiments/stop_signal_with_n_back/images/stopSignal.png'></img></div></div>,go,,2000.0,,90.0,0.0,0.0,44.0,2.0,stop_signal_with_n_back,,,,,,0.0-3.0-45.0,77.0,mismatch,"[77, 90]",v,,576,1000.0,<div class = bigbox><div class = centerbox><div class = gng_number><div class = cue-text><img class = center src='/static/experiments/stop_signal_with_n_back/images/lowercase_V.png'></img></div></div></div></div>,,go,,393529,0.0,test_trial,145,stop-signal,
146,450.0,400.0,350.0,400.0,500.0,<div class = bigbox><div class = starbox><img class = center src='/static/experiments/stop_signal_with_n_back/images/stopSignal.png'></img></div></div>,go,,2000.0,,90.0,1.0,0.0,45.0,2.0,stop_signal_with_n_back,,,,,,0.0-3.0-46.0,90.0,mismatch,"[77, 90]",g,,519,1000.0,<div class = bigbox><div class = centerbox><div class = gng_number><div class = cue-text><img class = center src='/static/experiments/stop_signal_with_n_back/images/lowercase_G.png'></img></div></div></div></div>,,go,,395536,0.0,test_trial,146,stop-signal,
147,450.0,400.0,350.0,400.0,500.0,<div class = bigbox><div class = starbox><img class = center src='/static/experiments/stop_signal_with_n_back/images/stopSignal.png'></img></div></div>,stop,,2000.0,,-1.0,1.0,0.0,46.0,2.0,stop_signal_with_n_back,,,,,,0.0-3.0-47.0,-1.0,mismatch,"[77, 90]",g,,-1,1000.0,<div class = bigbox><div class = centerbox><div class = gng_number><div class = cue-text><img class = center src='/static/experiments/stop_signal_with_n_back/images/lowercase_G.png'></img></div></div></div></div>,1.0,stop,,397542,0.0,test_trial,147,stop-signal,
148,450.0,450.0,350.0,450.0,500.0,<div class = bigbox><div class = starbox><img class = center src='/static/experiments/stop_signal_with_n_back/images/stopSignal.png'></img></div></div>,go,,2000.0,,90.0,1.0,0.0,47.0,2.0,stop_signal_with_n_back,,,,,,0.0-3.0-48.0,90.0,mismatch,"[77, 90]",d,,733,1000.0,<div class = bigbox><div class = centerbox><div class = gng_number><div class = cue-text><img class = center src='/static/experiments/stop_signal_with_n_back/images/lowercase_D.png'></img></div></div></div></div>,,go,,399549,0.0,test_trial,148,stop-signal,
149,450.0,450.0,350.0,450.0,500.0,<div class = bigbox><div class = starbox><img class = center src='/static/experiments/stop_signal_with_n_back/images/stopSignal.png'></img></div></div>,stop,,2000.0,,-1.0,0.0,0.0,48.0,2.0,stop_signal_with_n_back,,,,,,0.0-3.0-49.0,90.0,mismatch,"[77, 90]",D,,595,1000.0,<div class = bigbox><div class = centerbox><div class = gng_number><div class = cue-text><img class = center src='/static/experiments/stop_signal_with_n_back/images/uppercase_D.png'></img></div></div></div></div>,0.0,stop,,401556,0.0,test_trial,149,stop-signal,
150,,,,,,,,,8698.0,,,,,,,stop_signal_with_n_back,,,,,,0.0-3.1-0.1,13.0,,[13],,,8698,8698.0,"<div class = bigbox><div class = picture_box><p class = block-text><font color=""white""><br>Please take this time to read your feedback and to take a short break! Press enter to continue.</p><p class = block-text>You have completed: 1 out of 6 blocks of trials.</p><p class = block-text><i>For the next round of trials, your delay is 3</i>.  Press Enter to continue.</font></p></div></div>",,,,410276,0.0,practice-no-stop-feedback,150,poldrack-single-stim,
151,,,,,,,,,8966.0,True,77.0,,,,,stop_signal_with_n_back,,,,,,0.0-3.1-1.1-0.1,77.0,,[],,,8966,8966.0,"<p>If (4 + 12) / 4 is greater than 3 press the ""M"" key. Otherwise press the ""Z"" key.</p>",,,,419246,200.0,attention_check,151,attention-check,
152,450.0,400.0,350.0,350.0,500.0,<div class = bigbox><div class = starbox><img class = center src='/static/experiments/stop_signal_with_n_back/images/stopSignal.png'></img></div></div>,go,,2000.0,,90.0,1.0,1.0,1.0,3.0,stop_signal_with_n_back,,,,,,0.0-3.1-2.1,90.0,N/A,"[77, 90]",t,,858,1000.0,<div class = bigbox><div class = centerbox><div class = gng_number><div class = cue-text><img class = center src='/static/experiments/stop_signal_with_n_back/images/lowercase_T.png'></img></div></div></div></div>,,go,,421454,0.0,test_trial,152,stop-signal,
153,450.0,400.0,350.0,350.0,500.0,<div class = bigbox><div class = starbox><img class = center src='/static/experiments/stop_signal_with_n_back/images/stopSignal.png'></img></div></div>,go,,2000.0,,90.0,1.0,1.0,2.0,3.0,stop_signal_with_n_back,,,,,,0.0-3.1-3.1,90.0,N/A,"[77, 90]",B,,745,1000.0,<div class = bigbox><div class = centerbox><div class = gng_number><div class = cue-text><img class = center src='/static/experiments/stop_signal_with_n_back/images/uppercase_B.png'></img></div></div></div></div>,,go,,423460,0.0,test_trial,153,stop-signal,
154,450.0,400.0,350.0,350.0,500.0,<div class = bigbox><div class = starbox><img class = center src='/static/experiments/stop_signal_with_n_back/images/stopSignal.png'></img></div></div>,stop,,2000.0,,90.0,0.0,1.0,3.0,3.0,stop_signal_with_n_back,,,,,,0.0-3.1-4.1,77.0,N/A,"[77, 90]",T,,516,1000.0,<div class = bigbox><div class = centerbox><div class = gng_number><div class = cue-text><img class = center src='/static/experiments/stop_signal_with_n_back/images/uppercase_T.png'></img></div></div></div></div>,0.0,stop,,425469,0.0,test_trial,154,stop-signal,
155,450.0,400.0,300.0,300.0,500.0,<div class = bigbox><div class = starbox><img class = center src='/static/experiments/stop_signal_with_n_back/images/stopSignal.png'></img></div></div>,go,,2000.0,,90.0,1.0,1.0,4.0,3.0,stop_signal_with_n_back,,,,,,0.0-3.1-5.1,90.0,mismatch,"[77, 90]",g,,513,1000.0,<div class = bigbox><div class = centerbox><div class = gng_number><div class = cue-text><img class = center src='/static/experiments/stop_signal_with_n_back/images/lowercase_G.png'></img></div></div></div></div>,,go,,427475,0.0,test_trial,155,stop-signal,
156,450.0,400.0,300.0,300.0,500.0,<div class = bigbox><div class = starbox><img class = center src='/static/experiments/stop_signal_with_n_back/images/stopSignal.png'></img></div></div>,go,,2000.0,,77.0,0.0,1.0,5.0,3.0,stop_signal_with_n_back,,,,,,0.0-3.1-6.1,90.0,match,"[77, 90]",B,,421,1000.0,<div class = bigbox><div class = centerbox><div class = gng_number><div class = cue-text><img class = center src='/static/experiments/stop_signal_with_n_back/images/uppercase_B.png'></img></div></div></div></div>,,go,,429481,0.0,test_trial,156,stop-signal,
157,450.0,400.0,300.0,300.0,500.0,<div class = bigbox><div class = starbox><img class = center src='/static/experiments/stop_signal_with_n_back/images/stopSignal.png'></img></div></div>,go,,2000.0,,90.0,1.0,1.0,6.0,3.0,stop_signal_with_n_back,,,,,,0.0-3.1-7.1,90.0,mismatch,"[77, 90]",b,,318,1000.0,<div class = bigbox><div class = centerbox><div class = gng_number><div class = cue-text><img class = center src='/static/experiments/stop_signal_with_n_back/images/lowercase_B.png'></img></div></div></div></div>,,go,,431488,0.0,test_trial,157,stop-signal,
158,450.0,400.0,300.0,300.0,500.0,<div class = bigbox><div class = starbox><img class = center src='/static/experiments/stop_signal_with_n_back/images/stopSignal.png'></img></div></div>,stop,,2000.0,,-1.0,0.0,1.0,7.0,3.0,stop_signal_with_n_back,,,,,,0.0-3.1-8.1,77.0,mismatch,"[77, 90]",b,,316,1000.0,<div class = bigbox><div class = centerbox><div class = gng_number><div class = cue-text><img class = center src='/static/experiments/stop_signal_with_n_back/images/lowercase_B.png'></img></div></div></div></div>,0.0,stop,,433496,0.0,test_trial,158,stop-signal,
159,450.0,400.0,250.0,250.0,500.0,<div class = bigbox><div class = starbox><img class = center src='/static/experiments/stop_signal_with_n_back/images/stopSignal.png'></img></div></div>,go,,2000.0,,90.0,1.0,1.0,8.0,3.0,stop_signal_with_n_back,,,,,,0.0-3.1-9.1,90.0,mismatch,"[77, 90]",g,,552,1000.0,<div class = bigbox><div class = centerbox><div class = gng_number><div class = cue-text><img class = center src='/static/experiments/stop_signal_with_n_back/images/lowercase_G.png'></img></div></div></div></div>,,go,,435503,0.0,test_trial,159,stop-signal,
160,450.0,400.0,250.0,250.0,500.0,<div class = bigbox><div class = starbox><img class = center src='/static/experiments/stop_signal_with_n_back/images/stopSignal.png'></img></div></div>,go,,2000.0,,90.0,1.0,1.0,9.0,3.0,stop_signal_with_n_back,,,,,,0.0-3.1-10.1,90.0,mismatch,"[77, 90]",v,,562,1000.0,<div class = bigbox><div class = centerbox><div class = gng_number><div class = cue-text><img class = center src='/static/experiments/stop_signal_with_n_back/images/lowercase_V.png'></img></div></div></div></div>,,go,,437510,0.0,test_trial,160,stop-signal,
161,450.0,400.0,250.0,250.0,500.0,<div class = bigbox><div class = starbox><img class = center src='/static/experiments/stop_signal_with_n_back/images/stopSignal.png'></img></div></div>,go,,2000.0,,90.0,1.0,1.0,10.0,3.0,stop_signal_with_n_back,,,,,,0.0-3.1-11.1,90.0,mismatch,"[77, 90]",g,,611,1000.0,<div class = bigbox><div class = centerbox><div class = gng_number><div class = cue-text><img class = center src='/static/experiments/stop_signal_with_n_back/images/lowercase_G.png'></img></div></div></div></div>,,go,,439517,0.0,test_trial,161,stop-signal,
162,450.0,400.0,250.0,250.0,500.0,<div class = bigbox><div class = starbox><img class = center src='/static/experiments/stop_signal_with_n_back/images/stopSignal.png'></img></div></div>,go,,2000.0,,77.0,1.0,1.0,11.0,3.0,stop_signal_with_n_back,,,,,,0.0-3.1-12.1,77.0,match,"[77, 90]",g,,648,1000.0,<div class = bigbox><div class = centerbox><div class = gng_number><div class = cue-text><img class = center src='/static/experiments/stop_signal_with_n_back/images/lowercase_G.png'></img></div></div></div></div>,,go,,441524,0.0,test_trial,162,stop-signal,
