,SSD_diff,SSD_neutral,SSD_same,SS_delay,SS_duration,SS_stimulus,SS_trial_type,att_check_percent,block_duration,correct,correct_response,correct_trial,current_block,current_trial,distractor,exp_id,final_accuracy,final_avg_rt,final_credit_var,final_missed_percent,final_responses_ok,internal_node_id,key_press,possible_responses,probe,responses,rt,shape_matching_condition,stim_duration,stimulus,stop_acc,stop_signal_condition,target,text,time_elapsed,timing_post_trial,trial_id,trial_index,trial_type,view_history
0,,,,,,,,,1471.0,,,,,,,stop_signal_with_shape_matching,,,,,,0.0-0.0-0.0,13.0,[13],,,1471,,1471.0,<div class = bigbox><div class = picture_box><p class = block-text>Welcome to the experiment. This experiment will take about 20 minutes. Press <i>enter</i> to begin.</p></div></div>,,,,,1472,0.0,feedback_block,0,poldrack-single-stim,
1,,,,,,,,,,,,,,,,stop_signal_with_shape_matching,,,,,,0.0-0.0-1.0,,,,,11223,,,,,,,,12697,,instruction,1,poldrack-instructions,"[{""page_index"":0,""viewing_time"":2910},{""page_index"":1,""viewing_time"":5000},{""page_index"":2,""viewing_time"":3313}]"
2,,,,,,,,,500.0,,,,,,,stop_signal_with_shape_matching,,,,,,0.0-0.0-2.0,-1.0,none,,,-1,,500.0,"<div class = bigbox><div class = leftbox><img class = center src=""/static/experiments/stop_signal_with_shape_matching/images/mask.png""></img><div class = centerbox><div class = fixation>+</div></div></div><div class = rightbox><img class = center src=""/static/experiments/stop_signal_with_shape_matching/images/mask.png""></img><div class = centerbox><div class = fixation>+</div></div></div></div>",,,,,14202,0.0,practice_mask,2,poldrack-single-stim,
3,350.0,350.0,350.0,350.0,500.0,"<div class = starbox><img class = center src=""/static/experiments/stop_signal_with_shape_matching/images/stopSignal.png""></img></div>",go,,2000.0,,90.0,1.0,0.0,1.0,none,stop_signal_with_shape_matching,,,,,,0.0-0.0-3.0,90.0,"[77, 90]",3.0,,654,DNN,1000.0,"<div class = bigbox><div class = leftbox><img class = center src=""/static/experiments/stop_signal_with_shape_matching/images/1_green.png""></img></div><div class = distractorbox></div><div class = rightbox><img class = center src=""/static/experiments/stop_signal_with_shape_matching/images/3_white.png""></img></div></div>",,go,1.0,,16204,0.0,practice_trial,3,stop-signal,
4,,,,,,,,,500.0,,,,,,,stop_signal_with_shape_matching,,,,,,0.0-0.0-4.0,-1.0,none,,,-1,,500.0,"<div class = fb_box><div class = center-text><font size = 20>Correct!</font></div></div><div class = prompt_box><p class = center-block-text style = ""font-size:16px; line-height:80%;"">Respond if the green and white shapes are the same or different!</p><p class = center-block-text style = ""font-size:16px; line-height:80%;"">Same: M Key</p><p class = center-block-text style = ""font-size:16px; line-height:80%;"">Different: Z Key</p><p class = center-block-text style = ""font-size:16px; line-height:80%;"">Do not respond if you see a star around the white shape</p><p class = center-block-text style = ""font-size:16px; line-height:80%;"">Do not slow down your responses to the shape to wait for the star.</p></div>",,,,,16707,0.0,practice-stop-feedback,4,poldrack-single-stim,
5,,,,,,,,,500.0,,,,,,,stop_signal_with_shape_matching,,,,,,0.0-0.0-5.0,-1.0,none,,,-1,,500.0,"<div class = bigbox><div class = leftbox><img class = center src=""/static/experiments/stop_signal_with_shape_matching/images/mask.png""></img><div class = centerbox><div class = fixation>+</div></div></div><div class = rightbox><img class = center src=""/static/experiments/stop_signal_with_shape_matching/images/mask.png""></img><div class = centerbox><div class = fixation>+</div></div></div></div>",,,,,17211,0.0,practice_mask,5,poldrack-single-stim,
6,350.0,350.0,350.0,350.0,500.0,"<div class = starbox><img class = center src=""/static/experiments/stop_signal_with_shape_matching/images/stopSignal.png""></img></div>",go,,2000.0,,77.0,1.0,0.0,2.0,2,stop_signal_with_shape_matching,,,,,,0.0-0.0-6.0,77.0,"[77, 90]",5.0,,509,SDD,1000.0,"<div class = bigbox><div class = leftbox><img class = center src=""/static/experiments/stop_signal_with_shape_matching/images/5_green.png""></img></div><div class = distractorbox><img class = center src=""/static/experiments/stop_signal_with_shape_matching/images/2_red.png""></img></div><div class = rightbox><img class = center src=""/static/experiments/stop_signal_with_shape_matching/images/5_white.png""></img></div></div>",,go,5.0,,19214,0.0,practice_trial,6,stop-signal,
7,,,,,,,,,500.0,,,,,,,stop_signal_with_shape_matching,,,,,,0.0-0.0-7.0,-1.0,none,,,-1,,500.0,"<div class = fb_box><div class = center-text><font size = 20>Correct!</font></div></div><div class = prompt_box><p class = center-block-text style = ""font-size:16px; line-height:80%;"">Respond if the green and white shapes are the same or different!</p><p class = center-block-text style = ""font-size:16px; line-height:80%;"">Same: M Key</p><p class = center-block-text style = ""font-size:16px; line-height:80%;"">Different: Z Key</p><p class = center-block-text style = ""font-size:16px; line-height:80%;"">Do not respond if you see a star around the white shape</p><p class = center-block-text style = ""font-size:16px; line-height:80%;"">Do not slow down your responses to the shape to wait for the star.</p></div>",,,,,19718,0.0,practice-stop-feedback,7,poldrack-single-stim,
8,,,,,,,,,500.0,,,,,,,stop_signal_with_shape_matching,,,,,,0.0-0.0-8.0,-1.0,none,,,-1,,500.0,"<div class = bigbox><div class = leftbox><img class = center src=""/static/experiments/stop_signal_with_shape_matching/images/mask.png""></img><div class = centerbox><div class = fixation>+</div></div></div><div class = rightbox><img class = center src=""/static/experiments/stop_signal_with_shape_matching/images/mask.png""></img><div class = centerbox><div class = fixation>+</div></div></div></div>",,,,,20221,0.0,practice_mask,8,poldrack-single-stim,
9,350.0,350.0,350.0,350.0,500.0,"<div class = starbox><img class = center src=""/static/experiments/stop_signal_with_shape_matching/images/stopSignal.png""></img></div>",stop,,2000.0,,-1.0,0.0,0.0,3.0,7,stop_signal_with_shape_matching,,,,,,0.0-0.0-9.0,77.0,"[77, 90]",1.0,,484,SDD,1000.0,"<div class = bigbox><div class = leftbox><img class = center src=""/static/experiments/stop_signal_with_shape_matching/images/1_green.png""></img></div><div class = distractorbox><img class = center src=""/static/experiments/stop_signal_with_shape_matching/images/7_red.png""></img></div><div class = rightbox><img class = center src=""/static/experiments/stop_signal_with_shape_matching/images/1_white.png""></img></div></div>",0.0,stop,1.0,,22224,0.0,practice_trial,9,stop-signal,
10,,,,,,,,,500.0,,,,,,,stop_signal_with_shape_matching,,,,,,0.0-0.0-10.0,-1.0,none,,,-1,,500.0,"<div class = fb_box><div class = center-text><font size = 20>There was a star.</font></div></div><div class = prompt_box><p class = center-block-text style = ""font-size:16px; line-height:80%;"">Respond if the green and white shapes are the same or different!</p><p class = center-block-text style = ""font-size:16px; line-height:80%;"">Same: M Key</p><p class = center-block-text style = ""font-size:16px; line-height:80%;"">Different: Z Key</p><p class = center-block-text style = ""font-size:16px; line-height:80%;"">Do not respond if you see a star around the white shape</p><p class = center-block-text style = ""font-size:16px; line-height:80%;"">Do not slow down your responses to the shape to wait for the star.</p></div>",,,,,22725,0.0,practice-stop-feedback,10,poldrack-single-stim,
11,,,,,,,,,500.0,,,,,,,stop_signal_with_shape_matching,,,,,,0.0-0.0-11.0,-1.0,none,,,-1,,500.0,"<div class = bigbox><div class = leftbox><img class = center src=""/static/experiments/stop_signal_with_shape_matching/images/mask.png""></img><div class = centerbox><div class = fixation>+</div></div></div><div class = rightbox><img class = center src=""/static/experiments/stop_signal_with_shape_matching/images/mask.png""></img><div class = centerbox><div class = fixation>+</div></div></div></div>",,,,,23228,0.0,practice_mask,11,poldrack-single-stim,
12,300.0,350.0,350.0,350.0,500.0,"<div class = starbox><img class = center src=""/static/experiments/stop_signal_with_shape_matching/images/stopSignal.png""></img></div>",go,,2000.0,,90.0,1.0,0.0,4.0,9,stop_signal_with_shape_matching,,,,,,0.0-0.0-12.0,90.0,"[77, 90]",10.0,,573,DSD,1000.0,"<div class = bigbox><div class = leftbox><img class = center src=""/static/experiments/stop_signal_with_shape_matching/images/9_green.png""></img></div><div class = distractorbox><img class = center src=""/static/experiments/stop_signal_with_shape_matching/images/9_red.png""></img></div><div class = rightbox><img class = center src=""/static/experiments/stop_signal_with_shape_matching/images/10_white.png""></img></div></div>",,go,9.0,,25231,0.0,practice_trial,12,stop-signal,
13,,,,,,,,,500.0,,,,,,,stop_signal_with_shape_matching,,,,,,0.0-0.0-13.0,-1.0,none,,,-1,,500.0,"<div class = fb_box><div class = center-text><font size = 20>Correct!</font></div></div><div class = prompt_box><p class = center-block-text style = ""font-size:16px; line-height:80%;"">Respond if the green and white shapes are the same or different!</p><p class = center-block-text style = ""font-size:16px; line-height:80%;"">Same: M Key</p><p class = center-block-text style = ""font-size:16px; line-height:80%;"">Different: Z Key</p><p class = center-block-text style = ""font-size:16px; line-height:80%;"">Do not respond if you see a star around the white shape</p><p class = center-block-text style = ""font-size:16px; line-height:80%;"">Do not slow down your responses to the shape to wait for the star.</p></div>",,,,,25733,0.0,practice-stop-feedback,13,poldrack-single-stim,
14,,,,,,,,,500.0,,,,,,,stop_signal_with_shape_matching,,,,,,0.0-0.0-14.0,-1.0,none,,,-1,,500.0,"<div class = bigbox><div class = leftbox><img class = center src=""/static/experiments/stop_signal_with_shape_matching/images/mask.png""></img><div class = centerbox><div class = fixation>+</div></div></div><div class = rightbox><img class = center src=""/static/experiments/stop_signal_with_shape_matching/images/mask.png""></img><div class = centerbox><div class = fixation>+</div></div></div></div>",,,,,26235,0.0,practice_mask,14,poldrack-single-stim,
15,300.0,350.0,350.0,300.0,500.0,"<div class = starbox><img class = center src=""/static/experiments/stop_signal_with_shape_matching/images/stopSignal.png""></img></div>",go,,2000.0,,90.0,1.0,0.0,5.0,9,stop_signal_with_shape_matching,,,,,,0.0-0.0-15.0,90.0,"[77, 90]",4.0,,677,DDD,1000.0,"<div class = bigbox><div class = leftbox><img class = center src=""/static/experiments/stop_signal_with_shape_matching/images/8_green.png""></img></div><div class = distractorbox><img class = center src=""/static/experiments/stop_signal_with_shape_matching/images/9_red.png""></img></div><div class = rightbox><img class = center src=""/static/experiments/stop_signal_with_shape_matching/images/4_white.png""></img></div></div>",,go,8.0,,28238,0.0,practice_trial,15,stop-signal,
16,,,,,,,,,500.0,,,,,,,stop_signal_with_shape_matching,,,,,,0.0-0.0-16.0,-1.0,none,,,-1,,500.0,"<div class = fb_box><div class = center-text><font size = 20>Correct!</font></div></div><div class = prompt_box><p class = center-block-text style = ""font-size:16px; line-height:80%;"">Respond if the green and white shapes are the same or different!</p><p class = center-block-text style = ""font-size:16px; line-height:80%;"">Same: M Key</p><p class = center-block-text style = ""font-size:16px; line-height:80%;"">Different: Z Key</p><p class = center-block-text style = ""font-size:16px; line-height:80%;"">Do not respond if you see a star around the white shape</p><p class = center-block-text style = ""font-size:16px; line-height:80%;"">Do not slow down your responses to the shape to wait for the star.</p></div>",,,,,28740,0.0,practice-stop-feedback,16,poldrack-single-stim,
17,,,,,,,,,500.0,,,,,,,stop_signal_with_shape_matching,,,,,,0.0-0.0-17.0,-1.0,none,,,-1,,500.0,"<div class = bigbox><div class = leftbox><img class = center src=""/static/experiments/stop_signal_with_shape_matching/images/mask.png""></img><div class = centerbox><div class = fixation>+</div></div></div><div class = rightbox><img class = center src=""/static/experiments/stop_signal_with_shape_matching/images/mask.png""></img><div class = centerbox><div class = fixation>+</div></div></div></div>",,,,,29242,0.0,practice_mask,17,poldrack-single-stim,
18,300.0,350.0,350.0,350.0,500.0,"<div class = starbox><img class = center src=""/static/experiments/stop_signal_with_shape_matching/images/stopSignal.png""></img></div>",go,,2000.0,,90.0,1.0,0.0,6.0,6,stop_signal_with_shape_matching,,,,,,0.0-0.0-18.0,90.0,"[77, 90]",3.0,,568,DSD,1000.0,"<div class = bigbox><div class = leftbox><img class = center src=""/static/experiments/stop_signal_with_shape_matching/images/6_green.png""></img></div><div class = distractorbox><img class = center src=""/static/experiments/stop_signal_with_shape_matching/images/6_red.png""></img></div><div class = rightbox><img class = center src=""/static/experiments/stop_signal_with_shape_matching/images/3_white.png""></img></div></div>",,go,6.0,,31244,0.0,practice_trial,18,stop-signal,
19,,,,,,,,,500.0,,,,,,,stop_signal_with_shape_matching,,,,,,0.0-0.0-19.0,-1.0,none,,,-1,,500.0,"<div class = fb_box><div class = center-text><font size = 20>Correct!</font></div></div><div class = prompt_box><p class = center-block-text style = ""font-size:16px; line-height:80%;"">Respond if the green and white shapes are the same or different!</p><p class = center-block-text style = ""font-size:16px; line-height:80%;"">Same: M Key</p><p class = center-block-text style = ""font-size:16px; line-height:80%;"">Different: Z Key</p><p class = center-block-text style = ""font-size:16px; line-height:80%;"">Do not respond if you see a star around the white shape</p><p class = center-block-text style = ""font-size:16px; line-height:80%;"">Do not slow down your responses to the shape to wait for the star.</p></div>",,,,,31746,0.0,practice-stop-feedback,19,poldrack-single-stim,
20,,,,,,,,,500.0,,,,,,,stop_signal_with_shape_matching,,,,,,0.0-0.0-20.0,-1.0,none,,,-1,,500.0,"<div class = bigbox><div class = leftbox><img class = center src=""/static/experiments/stop_signal_with_shape_matching/images/mask.png""></img><div class = centerbox><div class = fixation>+</div></div></div><div class = rightbox><img class = center src=""/static/experiments/stop_signal_with_shape_matching/images/mask.png""></img><div class = centerbox><div class = fixation>+</div></div></div></div>",,,,,32248,0.0,practice_mask,20,poldrack-single-stim,
21,300.0,350.0,350.0,350.0,500.0,"<div class = starbox><img class = center src=""/static/experiments/stop_signal_with_shape_matching/images/stopSignal.png""></img></div>",stop,,2000.0,,-1.0,1.0,0.0,7.0,4,stop_signal_with_shape_matching,,,,,,0.0-0.0-21.0,-1.0,"[77, 90]",4.0,,-1,SSS,1000.0,"<div class = bigbox><div class = leftbox><img class = center src=""/static/experiments/stop_signal_with_shape_matching/images/4_green.png""></img></div><div class = distractorbox><img class = center src=""/static/experiments/stop_signal_with_shape_matching/images/4_red.png""></img></div><div class = rightbox><img class = center src=""/static/experiments/stop_signal_with_shape_matching/images/4_white.png""></img></div></div>",1.0,stop,4.0,,34250,0.0,practice_trial,21,stop-signal,
22,,,,,,,,,500.0,,,,,,,stop_signal_with_shape_matching,,,,,,0.0-0.0-22.0,-1.0,none,,,-1,,500.0,"<div class = fb_box><div class = center-text><font size = 20>Correct!</font></div></div><div class = prompt_box><p class = center-block-text style = ""font-size:16px; line-height:80%;"">Respond if the green and white shapes are the same or different!</p><p class = center-block-text style = ""font-size:16px; line-height:80%;"">Same: M Key</p><p class = center-block-text style = ""font-size:16px; line-height:80%;"">Different: Z Key</p><p class = center-block-text style = ""font-size:16px; line-height:80%;"">Do not respond if you see a star around the white shape</p><p class = center-block-text style = ""font-size:16px; line-height:80%;"">Do not slow down your responses to the shape to wait for the star.</p></div>",,,,,34752,0.0,practice-stop-feedback,22,poldrack-single-stim,
23,,,,,,,,,500.0,,,,,,,stop_signal_with_shape_matching,,,,,,0.0-0.0-23.0,-1.0,none,,,-1,,500.0,"<div class = bigbox><div class = leftbox><img class = center src=""/static/experiments/stop_signal_with_shape_matching/images/mask.png""></img><div class = centerbox><div class = fixation>+</div></div></div><div class = rightbox><img class = center src=""/static/experiments/stop_signal_with_shape_matching/images/mask.png""></img><div class = centerbox><div class = fixation>+</div></div></div></div>",,,,,35255,0.0,practice_mask,23,poldrack-single-stim,
24,300.0,350.0,400.0,300.0,500.0,"<div class = starbox><img class = center src=""/static/experiments/stop_signal_with_shape_matching/images/stopSignal.png""></img></div>",go,,2000.0,,77.0,1.0,0.0,8.0,9,stop_signal_with_shape_matching,,,,,,0.0-0.0-24.0,77.0,"[77, 90]",1.0,,556,SDD,1000.0,"<div class = bigbox><div class = leftbox><img class = center src=""/static/experiments/stop_signal_with_shape_matching/images/1_green.png""></img></div><div class = distractorbox><img class = center src=""/static/experiments/stop_signal_with_shape_matching/images/9_red.png""></img></div><div class = rightbox><img class = center src=""/static/experiments/stop_signal_with_shape_matching/images/1_white.png""></img></div></div>",,go,1.0,,37257,0.0,practice_trial,24,stop-signal,
25,,,,,,,,,500.0,,,,,,,stop_signal_with_shape_matching,,,,,,0.0-0.0-25.0,-1.0,none,,,-1,,500.0,"<div class = fb_box><div class = center-text><font size = 20>Correct!</font></div></div><div class = prompt_box><p class = center-block-text style = ""font-size:16px; line-height:80%;"">Respond if the green and white shapes are the same or different!</p><p class = center-block-text style = ""font-size:16px; line-height:80%;"">Same: M Key</p><p class = center-block-text style = ""font-size:16px; line-height:80%;"">Different: Z Key</p><p class = center-block-text style = ""font-size:16px; line-height:80%;"">Do not respond if you see a star around the white shape</p><p class = center-block-text style = ""font-size:16px; line-height:80%;"">Do not slow down your responses to the shape to wait for the star.</p></div>",,,,,37761,0.0,practice-stop-feedback,25,poldrack-single-stim,
26,,,,,,,,,500.0,,,,,,,stop_signal_with_shape_matching,,,,,,0.0-0.0-26.0,-1.0,none,,,-1,,500.0,"<div class = bigbox><div class = leftbox><img class = center src=""/static/experiments/stop_signal_with_shape_matching/images/mask.png""></img><div class = centerbox><div class = fixation>+</div></div></div><div class = rightbox><img class = center src=""/static/experiments/stop_signal_with_shape_matching/images/mask.png""></img><div class = centerbox><div class = fixation>+</div></div></div></div>",,,,,38263,0.0,practice_mask,26,poldrack-single-stim,
27,300.0,350.0,400.0,400.0,500.0,"<div class = starbox><img class = center src=""/static/experiments/stop_signal_with_shape_matching/images/stopSignal.png""></img></div>",go,,2000.0,,77.0,1.0,0.0,9.0,5,stop_signal_with_shape_matching,,,,,,0.0-0.0-27.0,77.0,"[77, 90]",5.0,,524,SSS,1000.0,"<div class = bigbox><div class = leftbox><img class = center src=""/static/experiments/stop_signal_with_shape_matching/images/5_green.png""></img></div><div class = distractorbox><img class = center src=""/static/experiments/stop_signal_with_shape_matching/images/5_red.png""></img></div><div class = rightbox><img class = center src=""/static/experiments/stop_signal_with_shape_matching/images/5_white.png""></img></div></div>",,go,5.0,,40265,0.0,practice_trial,27,stop-signal,
28,,,,,,,,,500.0,,,,,,,stop_signal_with_shape_matching,,,,,,0.0-0.0-28.0,-1.0,none,,,-1,,500.0,"<div class = fb_box><div class = center-text><font size = 20>Correct!</font></div></div><div class = prompt_box><p class = center-block-text style = ""font-size:16px; line-height:80%;"">Respond if the green and white shapes are the same or different!</p><p class = center-block-text style = ""font-size:16px; line-height:80%;"">Same: M Key</p><p class = center-block-text style = ""font-size:16px; line-height:80%;"">Different: Z Key</p><p class = center-block-text style = ""font-size:16px; line-height:80%;"">Do not respond if you see a star around the white shape</p><p class = center-block-text style = ""font-size:16px; line-height:80%;"">Do not slow down your responses to the shape to wait for the star.</p></div>",,,,,40767,0.0,practice-stop-feedback,28,poldrack-single-stim,
29,,,,,,,,,500.0,,,,,,,stop_signal_with_shape_matching,,,,,,0.0-0.0-29.0,-1.0,none,,,-1,,500.0,"<div class = bigbox><div class = leftbox><img class = center src=""/static/experiments/stop_signal_with_shape_matching/images/mask.png""></img><div class = centerbox><div class = fixation>+</div></div></div><div class = rightbox><img class = center src=""/static/experiments/stop_signal_with_shape_matching/images/mask.png""></img><div class = centerbox><div class = fixation>+</div></div></div></div>",,,,,41269,0.0,practice_mask,29,poldrack-single-stim,
30,300.0,350.0,400.0,400.0,500.0,"<div class = starbox><img class = center src=""/static/experiments/stop_signal_with_shape_matching/images/stopSignal.png""></img></div>",stop,,2000.0,,-1.0,0.0,0.0,10.0,5,stop_signal_with_shape_matching,,,,,,0.0-0.0-30.0,90.0,"[77, 90]",8.0,,469,DSD,1000.0,"<div class = bigbox><div class = leftbox><img class = center src=""/static/experiments/stop_signal_with_shape_matching/images/5_green.png""></img></div><div class = distractorbox><img class = center src=""/static/experiments/stop_signal_with_shape_matching/images/5_red.png""></img></div><div class = rightbox><img class = center src=""/static/experiments/stop_signal_with_shape_matching/images/8_white.png""></img></div></div>",0.0,stop,5.0,,43273,0.0,practice_trial,30,stop-signal,
31,,,,,,,,,500.0,,,,,,,stop_signal_with_shape_matching,,,,,,0.0-0.0-31.0,-1.0,none,,,-1,,500.0,"<div class = fb_box><div class = center-text><font size = 20>There was a star.</font></div></div><div class = prompt_box><p class = center-block-text style = ""font-size:16px; line-height:80%;"">Respond if the green and white shapes are the same or different!</p><p class = center-block-text style = ""font-size:16px; line-height:80%;"">Same: M Key</p><p class = center-block-text style = ""font-size:16px; line-height:80%;"">Different: Z Key</p><p class = center-block-text style = ""font-size:16px; line-height:80%;"">Do not respond if you see a star around the white shape</p><p class = center-block-text style = ""font-size:16px; line-height:80%;"">Do not slow down your responses to the shape to wait for the star.</p></div>",,,,,43775,0.0,practice-stop-feedback,31,poldrack-single-stim,
32,,,,,,,,,500.0,,,,,,,stop_signal_with_shape_matching,,,,,,0.0-0.0-32.0,-1.0,none,,,-1,,500.0,"<div class = bigbox><div class = leftbox><img class = center src=""/static/experiments/stop_signal_with_shape_matching/images/mask.png""></img><div class = centerbox><div class = fixation>+</div></div></div><div class = rightbox><img class = center src=""/static/experiments/stop_signal_with_shape_matching/images/mask.png""></img><div class = centerbox><div class = fixation>+</div></div></div></div>",,,,,44277,0.0,practice_mask,32,poldrack-single-stim,
33,300.0,350.0,350.0,350.0,500.0,"<div class = starbox><img class = center src=""/static/experiments/stop_signal_with_shape_matching/images/stopSignal.png""></img></div>",go,,2000.0,,77.0,1.0,0.0,11.0,none,stop_signal_with_shape_matching,,,,,,0.0-0.0-33.0,77.0,"[77, 90]",10.0,,439,SNN,1000.0,"<div class = bigbox><div class = leftbox><img class = center src=""/static/experiments/stop_signal_with_shape_matching/images/10_green.png""></img></div><div class = distractorbox></div><div class = rightbox><img class = center src=""/static/experiments/stop_signal_with_shape_matching/images/10_white.png""></img></div></div>",,go,10.0,,46279,0.0,practice_trial,33,stop-signal,
34,,,,,,,,,500.0,,,,,,,stop_signal_with_shape_matching,,,,,,0.0-0.0-34.0,-1.0,none,,,-1,,500.0,"<div class = fb_box><div class = center-text><font size = 20>Correct!</font></div></div><div class = prompt_box><p class = center-block-text style = ""font-size:16px; line-height:80%;"">Respond if the green and white shapes are the same or different!</p><p class = center-block-text style = ""font-size:16px; line-height:80%;"">Same: M Key</p><p class = center-block-text style = ""font-size:16px; line-height:80%;"">Different: Z Key</p><p class = center-block-text style = ""font-size:16px; line-height:80%;"">Do not respond if you see a star around the white shape</p><p class = center-block-text style = ""font-size:16px; line-height:80%;"">Do not slow down your responses to the shape to wait for the star.</p></div>",,,,,46781,0.0,practice-stop-feedback,34,poldrack-single-stim,
35,,,,,,,,,500.0,,,,,,,stop_signal_with_shape_matching,,,,,,0.0-0.0-35.0,-1.0,none,,,-1,,500.0,"<div class = bigbox><div class = leftbox><img class = center src=""/static/experiments/stop_signal_with_shape_matching/images/mask.png""></img><div class = centerbox><div class = fixation>+</div></div></div><div class = rightbox><img class = center src=""/static/experiments/stop_signal_with_shape_matching/images/mask.png""></img><div class = centerbox><div class = fixation>+</div></div></div></div>",,,,,47284,0.0,practice_mask,35,poldrack-single-stim,
36,300.0,350.0,350.0,300.0,500.0,"<div class = starbox><img class = center src=""/static/experiments/stop_signal_with_shape_matching/images/stopSignal.png""></img></div>",go,,2000.0,,90.0,1.0,0.0,12.0,6,stop_signal_with_shape_matching,,,,,,0.0-0.0-36.0,90.0,"[77, 90]",7.0,,432,DDD,1000.0,"<div class = bigbox><div class = leftbox><img class = center src=""/static/experiments/stop_signal_with_shape_matching/images/5_green.png""></img></div><div class = distractorbox><img class = center src=""/static/experiments/stop_signal_with_shape_matching/images/6_red.png""></img></div><div class = rightbox><img class = center src=""/static/experiments/stop_signal_with_shape_matching/images/7_white.png""></img></div></div>",,go,5.0,,49286,0.0,practice_trial,36,stop-signal,
37,,,,,,,,,500.0,,,,,,,stop_signal_with_shape_matching,,,,,,0.0-0.0-37.0,-1.0,none,,,-1,,500.0,"<div class = fb_box><div class = center-text><font size = 20>Correct!</font></div></div><div class = prompt_box><p class = center-block-text style = ""font-size:16px; line-height:80%;"">Respond if the green and white shapes are the same or different!</p><p class = center-block-text style = ""font-size:16px; line-height:80%;"">Same: M Key</p><p class = center-block-text style = ""font-size:16px; line-height:80%;"">Different: Z Key</p><p class = center-block-text style = ""font-size:16px; line-height:80%;"">Do not respond if you see a star around the white shape</p><p class = center-block-text style = ""font-size:16px; line-height:80%;"">Do not slow down your responses to the shape to wait for the star.</p></div>",,,,,49788,0.0,practice-stop-feedback,37,poldrack-single-stim,
38,,,,,,,,,500.0,,,,,,,stop_signal_with_shape_matching,,,,,,0.0-0.0-38.0,-1.0,none,,,-1,,500.0,"<div class = bigbox><div class = leftbox><img class = center src=""/static/experiments/stop_signal_with_shape_matching/images/mask.png""></img><div class = centerbox><div class = fixation>+</div></div></div><div class = rightbox><img class = center src=""/static/experiments/stop_signal_with_shape_matching/images/mask.png""></img><div class = centerbox><div class = fixation>+</div></div></div></div>",,,,,50289,0.0,practice_mask,38,poldrack-single-stim,
39,300.0,350.0,350.0,300.0,500.0,"<div class = starbox><img class = center src=""/static/experiments/stop_signal_with_shape_matching/images/stopSignal.png""></img></div>",go,,2000.0,,90.0,1.0,0.0,13.0,7,stop_signal_with_shape_matching,,,,,,0.0-0.0-39.0,90.0,"[77, 90]",7.0,,563,DDS,1000.0,"<div class = bigbox><div class = leftbox><img class = center src=""/static/experiments/stop_signal_with_shape_matching/images/1_green.png""></img></div><div class = distractorbox><img class = center src=""/static/experiments/stop_signal_with_shape_matching/images/7_red.png""></img></div><div class = rightbox><img class = center src=""/static/experiments/stop_signal_with_shape_matching/images/7_white.png""></img></div></div>",,go,1.0,,52291,0.0,practice_trial,39,stop-signal,
40,,,,,,,,,500.0,,,,,,,stop_signal_with_shape_matching,,,,,,0.0-0.0-40.0,-1.0,none,,,-1,,500.0,"<div class = fb_box><div class = center-text><font size = 20>Correct!</font></div></div><div class = prompt_box><p class = center-block-text style = ""font-size:16px; line-height:80%;"">Respond if the green and white shapes are the same or different!</p><p class = center-block-text style = ""font-size:16px; line-height:80%;"">Same: M Key</p><p class = center-block-text style = ""font-size:16px; line-height:80%;"">Different: Z Key</p><p class = center-block-text style = ""font-size:16px; line-height:80%;"">Do not respond if you see a star around the white shape</p><p class = center-block-text style = ""font-size:16px; line-height:80%;"">Do not slow down your responses to the shape to wait for the star.</p></div>",,,,,52794,0.0,practice-stop-feedback,40,poldrack-single-stim,
41,,,,,,,,,500.0,,,,,,,stop_signal_with_shape_matching,,,,,,0.0-0.0-41.0,-1.0,none,,,-1,,500.0,"<div class = bigbox><div class = leftbox><img class = center src=""/static/experiments/stop_signal_with_shape_matching/images/mask.png""></img><div class = centerbox><div class = fixation>+</div></div></div><div class = rightbox><img class = center src=""/static/experiments/stop_signal_with_shape_matching/images/mask.png""></img><div class = centerbox><div class = fixation>+</div></div></div></div>",,,,,53295,0.0,practice_mask,41,poldrack-single-stim,
42,300.0,350.0,350.0,300.0,500.0,"<div class = starbox><img class = center src=""/static/experiments/stop_signal_with_shape_matching/images/stopSignal.png""></img></div>",stop,,2000.0,,-1.0,1.0,0.0,14.0,1,stop_signal_with_shape_matching,,,,,,0.0-0.0-42.0,-1.0,"[77, 90]",7.0,,-1,DDD,1000.0,"<div class = bigbox><div class = leftbox><img class = center src=""/static/experiments/stop_signal_with_shape_matching/images/2_green.png""></img></div><div class = distractorbox><img class = center src=""/static/experiments/stop_signal_with_shape_matching/images/1_red.png""></img></div><div class = rightbox><img class = center src=""/static/experiments/stop_signal_with_shape_matching/images/7_white.png""></img></div></div>",1.0,stop,2.0,,55297,0.0,practice_trial,42,stop-signal,
43,,,,,,,,,500.0,,,,,,,stop_signal_with_shape_matching,,,,,,0.0-0.0-43.0,-1.0,none,,,-1,,500.0,"<div class = fb_box><div class = center-text><font size = 20>Correct!</font></div></div><div class = prompt_box><p class = center-block-text style = ""font-size:16px; line-height:80%;"">Respond if the green and white shapes are the same or different!</p><p class = center-block-text style = ""font-size:16px; line-height:80%;"">Same: M Key</p><p class = center-block-text style = ""font-size:16px; line-height:80%;"">Different: Z Key</p><p class = center-block-text style = ""font-size:16px; line-height:80%;"">Do not respond if you see a star around the white shape</p><p class = center-block-text style = ""font-size:16px; line-height:80%;"">Do not slow down your responses to the shape to wait for the star.</p></div>",,,,,55798,0.0,practice-stop-feedback,43,poldrack-single-stim,
44,,,,,,,,,500.0,,,,,,,stop_signal_with_shape_matching,,,,,,0.0-0.0-44.0,-1.0,none,,,-1,,500.0,"<div class = bigbox><div class = leftbox><img class = center src=""/static/experiments/stop_signal_with_shape_matching/images/mask.png""></img><div class = centerbox><div class = fixation>+</div></div></div><div class = rightbox><img class = center src=""/static/experiments/stop_signal_with_shape_matching/images/mask.png""></img><div class = centerbox><div class = fixation>+</div></div></div></div>",,,,,56301,0.0,practice_mask,44,poldrack-single-stim,
45,350.0,350.0,350.0,350.0,500.0,"<div class = starbox><img class = center src=""/static/experiments/stop_signal_with_shape_matching/images/stopSignal.png""></img></div>",go,,2000.0,,90.0,1.0,0.0,15.0,none,stop_signal_with_shape_matching,,,,,,0.0-0.0-45.0,90.0,"[77, 90]",7.0,,448,DNN,1000.0,"<div class = bigbox><div class = leftbox><img class = center src=""/static/experiments/stop_signal_with_shape_matching/images/8_green.png""></img></div><div class = distractorbox></div><div class = rightbox><img class = center src=""/static/experiments/stop_signal_with_shape_matching/images/7_white.png""></img></div></div>",,go,8.0,,58303,0.0,practice_trial,45,stop-signal,
46,,,,,,,,,500.0,,,,,,,stop_signal_with_shape_matching,,,,,,0.0-0.0-46.0,-1.0,none,,,-1,,500.0,"<div class = fb_box><div class = center-text><font size = 20>Correct!</font></div></div><div class = prompt_box><p class = center-block-text style = ""font-size:16px; line-height:80%;"">Respond if the green and white shapes are the same or different!</p><p class = center-block-text style = ""font-size:16px; line-height:80%;"">Same: M Key</p><p class = center-block-text style = ""font-size:16px; line-height:80%;"">Different: Z Key</p><p class = center-block-text style = ""font-size:16px; line-height:80%;"">Do not respond if you see a star around the white shape</p><p class = center-block-text style = ""font-size:16px; line-height:80%;"">Do not slow down your responses to the shape to wait for the star.</p></div>",,,,,58805,0.0,practice-stop-feedback,46,poldrack-single-stim,
47,,,,,,,,,500.0,,,,,,,stop_signal_with_shape_matching,,,,,,0.0-0.0-47.0,-1.0,none,,,-1,,500.0,"<div class = bigbox><div class = leftbox><img class = center src=""/static/experiments/stop_signal_with_shape_matching/images/mask.png""></img><div class = centerbox><div class = fixation>+</div></div></div><div class = rightbox><img class = center src=""/static/experiments/stop_signal_with_shape_matching/images/mask.png""></img><div class = centerbox><div class = fixation>+</div></div></div></div>",,,,,59307,0.0,practice_mask,47,poldrack-single-stim,
48,350.0,350.0,350.0,350.0,500.0,"<div class = starbox><img class = center src=""/static/experiments/stop_signal_with_shape_matching/images/stopSignal.png""></img></div>",stop,,2000.0,,-1.0,0.0,0.0,16.0,none,stop_signal_with_shape_matching,,,,,,0.0-0.0-48.0,90.0,"[77, 90]",3.0,,483,DNN,1000.0,"<div class = bigbox><div class = leftbox><img class = center src=""/static/experiments/stop_signal_with_shape_matching/images/2_green.png""></img></div><div class = distractorbox></div><div class = rightbox><img class = center src=""/static/experiments/stop_signal_with_shape_matching/images/3_white.png""></img></div></div>",0.0,stop,2.0,,61309,0.0,practice_trial,48,stop-signal,
49,,,,,,,,,500.0,,,,,,,stop_signal_with_shape_matching,,,,,,0.0-0.0-49.0,-1.0,none,,,-1,,500.0,"<div class = fb_box><div class = center-text><font size = 20>There was a star.</font></div></div><div class = prompt_box><p class = center-block-text style = ""font-size:16px; line-height:80%;"">Respond if the green and white shapes are the same or different!</p><p class = center-block-text style = ""font-size:16px; line-height:80%;"">Same: M Key</p><p class = center-block-text style = ""font-size:16px; line-height:80%;"">Different: Z Key</p><p class = center-block-text style = ""font-size:16px; line-height:80%;"">Do not respond if you see a star around the white shape</p><p class = center-block-text style = ""font-size:16px; line-height:80%;"">Do not slow down your responses to the shape to wait for the star.</p></div>",,,,,61811,0.0,practice-stop-feedback,49,poldrack-single-stim,
50,,,,,,,,,500.0,,,,,,,stop_signal_with_shape_matching,,,,,,0.0-0.0-50.0,-1.0,none,,,-1,,500.0,"<div class = bigbox><div class = leftbox><img class = center src=""/static/experiments/stop_signal_with_shape_matching/images/mask.png""></img><div class = centerbox><div class = fixation>+</div></div></div><div class = rightbox><img class = center src=""/static/experiments/stop_signal_with_shape_matching/images/mask.png""></img><div class = centerbox><div class = fixation>+</div></div></div></div>",,,,,62312,0.0,practice_mask,50,poldrack-single-stim,
51,350.0,300.0,350.0,300.0,500.0,"<div class = starbox><img class = center src=""/static/experiments/stop_signal_with_shape_matching/images/stopSignal.png""></img></div>",go,,2000.0,,77.0,1.0,0.0,17.0,none,stop_signal_with_shape_matching,,,,,,0.0-0.0-51.0,77.0,"[77, 90]",4.0,,446,SNN,1000.0,"<div class = bigbox><div class = leftbox><img class = center src=""/static/experiments/stop_signal_with_shape_matching/images/4_green.png""></img></div><div class = distractorbox></div><div class = rightbox><img class = center src=""/static/experiments/stop_signal_with_shape_matching/images/4_white.png""></img></div></div>",,go,4.0,,64315,0.0,practice_trial,51,stop-signal,
52,,,,,,,,,500.0,,,,,,,stop_signal_with_shape_matching,,,,,,0.0-0.0-52.0,-1.0,none,,,-1,,500.0,"<div class = fb_box><div class = center-text><font size = 20>Correct!</font></div></div><div class = prompt_box><p class = center-block-text style = ""font-size:16px; line-height:80%;"">Respond if the green and white shapes are the same or different!</p><p class = center-block-text style = ""font-size:16px; line-height:80%;"">Same: M Key</p><p class = center-block-text style = ""font-size:16px; line-height:80%;"">Different: Z Key</p><p class = center-block-text style = ""font-size:16px; line-height:80%;"">Do not respond if you see a star around the white shape</p><p class = center-block-text style = ""font-size:16px; line-height:80%;"">Do not slow down your responses to the shape to wait for the star.</p></div>",,,,,64816,0.0,practice-stop-feedback,52,poldrack-single-stim,
53,,,,,,,,,500.0,,,,,,,stop_signal_with_shape_matching,,,,,,0.0-0.0-53.0,-1.0,none,,,-1,,500.0,"<div class = bigbox><div class = leftbox><img class = center src=""/static/experiments/stop_signal_with_shape_matching/images/mask.png""></img><div class = centerbox><div class = fixation>+</div></div></div><div class = rightbox><img class = center src=""/static/experiments/stop_signal_with_shape_matching/images/mask.png""></img><div class = centerbox><div class = fixation>+</div></div></div></div>",,,,,65318,0.0,practice_mask,53,poldrack-single-stim,
54,350.0,300.0,350.0,350.0,500.0,"<div class = starbox><img class = center src=""/static/experiments/stop_signal_with_shape_matching/images/stopSignal.png""></img></div>",stop,,2000.0,,-1.0,0.0,0.0,18.0,1,stop_signal_with_shape_matching,,,,,,0.0-0.0-54.0,90.0,"[77, 90]",1.0,,503,DDS,1000.0,"<div class = bigbox><div class = leftbox><img class = center src=""/static/experiments/stop_signal_with_shape_matching/images/8_green.png""></img></div><div class = distractorbox><img class = center src=""/static/experiments/stop_signal_with_shape_matching/images/1_red.png""></img></div><div class = rightbox><img class = center src=""/static/experiments/stop_signal_with_shape_matching/images/1_white.png""></img></div></div>",0.0,stop,8.0,,67322,0.0,practice_trial,54,stop-signal,
55,,,,,,,,,500.0,,,,,,,stop_signal_with_shape_matching,,,,,,0.0-0.0-55.0,-1.0,none,,,-1,,500.0,"<div class = fb_box><div class = center-text><font size = 20>There was a star.</font></div></div><div class = prompt_box><p class = center-block-text style = ""font-size:16px; line-height:80%;"">Respond if the green and white shapes are the same or different!</p><p class = center-block-text style = ""font-size:16px; line-height:80%;"">Same: M Key</p><p class = center-block-text style = ""font-size:16px; line-height:80%;"">Different: Z Key</p><p class = center-block-text style = ""font-size:16px; line-height:80%;"">Do not respond if you see a star around the white shape</p><p class = center-block-text style = ""font-size:16px; line-height:80%;"">Do not slow down your responses to the shape to wait for the star.</p></div>",,,,,67826,0.0,practice-stop-feedback,55,poldrack-single-stim,
56,,,,,,,,,500.0,,,,,,,stop_signal_with_shape_matching,,,,,,0.0-0.0-56.0,-1.0,none,,,-1,,500.0,"<div class = bigbox><div class = leftbox><img class = center src=""/static/experiments/stop_signal_with_shape_matching/images/mask.png""></img><div class = centerbox><div class = fixation>+</div></div></div><div class = rightbox><img class = center src=""/static/experiments/stop_signal_with_shape_matching/images/mask.png""></img><div class = centerbox><div class = fixation>+</div></div></div></div>",,,,,68327,0.0,practice_mask,56,poldrack-single-stim,
57,300.0,300.0,350.0,300.0,500.0,"<div class = starbox><img class = center src=""/static/experiments/stop_signal_with_shape_matching/images/stopSignal.png""></img></div>",go,,2000.0,,90.0,1.0,0.0,19.0,3,stop_signal_with_shape_matching,,,,,,0.0-0.0-57.0,90.0,"[77, 90]",3.0,,567,DDS,1000.0,"<div class = bigbox><div class = leftbox><img class = center src=""/static/experiments/stop_signal_with_shape_matching/images/5_green.png""></img></div><div class = distractorbox><img class = center src=""/static/experiments/stop_signal_with_shape_matching/images/3_red.png""></img></div><div class = rightbox><img class = center src=""/static/experiments/stop_signal_with_shape_matching/images/3_white.png""></img></div></div>",,go,5.0,,70330,0.0,practice_trial,57,stop-signal,
58,,,,,,,,,500.0,,,,,,,stop_signal_with_shape_matching,,,,,,0.0-0.0-58.0,-1.0,none,,,-1,,500.0,"<div class = fb_box><div class = center-text><font size = 20>Correct!</font></div></div><div class = prompt_box><p class = center-block-text style = ""font-size:16px; line-height:80%;"">Respond if the green and white shapes are the same or different!</p><p class = center-block-text style = ""font-size:16px; line-height:80%;"">Same: M Key</p><p class = center-block-text style = ""font-size:16px; line-height:80%;"">Different: Z Key</p><p class = center-block-text style = ""font-size:16px; line-height:80%;"">Do not respond if you see a star around the white shape</p><p class = center-block-text style = ""font-size:16px; line-height:80%;"">Do not slow down your responses to the shape to wait for the star.</p></div>",,,,,70832,0.0,practice-stop-feedback,58,poldrack-single-stim,
59,,,,,,,,,500.0,,,,,,,stop_signal_with_shape_matching,,,,,,0.0-0.0-59.0,-1.0,none,,,-1,,500.0,"<div class = bigbox><div class = leftbox><img class = center src=""/static/experiments/stop_signal_with_shape_matching/images/mask.png""></img><div class = centerbox><div class = fixation>+</div></div></div><div class = rightbox><img class = center src=""/static/experiments/stop_signal_with_shape_matching/images/mask.png""></img><div class = centerbox><div class = fixation>+</div></div></div></div>",,,,,71335,0.0,practice_mask,59,poldrack-single-stim,
60,300.0,300.0,350.0,350.0,500.0,"<div class = starbox><img class = center src=""/static/experiments/stop_signal_with_shape_matching/images/stopSignal.png""></img></div>",go,,2000.0,,77.0,1.0,0.0,20.0,7,stop_signal_with_shape_matching,,,,,,0.0-0.0-60.0,77.0,"[77, 90]",7.0,,520,SSS,1000.0,"<div class = bigbox><div class = leftbox><img class = center src=""/static/experiments/stop_signal_with_shape_matching/images/7_green.png""></img></div><div class = distractorbox><img class = center src=""/static/experiments/stop_signal_with_shape_matching/images/7_red.png""></img></div><div class = rightbox><img class = center src=""/static/experiments/stop_signal_with_shape_matching/images/7_white.png""></img></div></div>",,go,7.0,,73337,0.0,practice_trial,60,stop-signal,
61,,,,,,,,,500.0,,,,,,,stop_signal_with_shape_matching,,,,,,0.0-0.0-61.0,-1.0,none,,,-1,,500.0,"<div class = fb_box><div class = center-text><font size = 20>Correct!</font></div></div><div class = prompt_box><p class = center-block-text style = ""font-size:16px; line-height:80%;"">Respond if the green and white shapes are the same or different!</p><p class = center-block-text style = ""font-size:16px; line-height:80%;"">Same: M Key</p><p class = center-block-text style = ""font-size:16px; line-height:80%;"">Different: Z Key</p><p class = center-block-text style = ""font-size:16px; line-height:80%;"">Do not respond if you see a star around the white shape</p><p class = center-block-text style = ""font-size:16px; line-height:80%;"">Do not slow down your responses to the shape to wait for the star.</p></div>",,,,,73838,0.0,practice-stop-feedback,61,poldrack-single-stim,
62,,,,,,,,,500.0,,,,,,,stop_signal_with_shape_matching,,,,,,0.0-0.0-62.0,-1.0,none,,,-1,,500.0,"<div class = bigbox><div class = leftbox><img class = center src=""/static/experiments/stop_signal_with_shape_matching/images/mask.png""></img><div class = centerbox><div class = fixation>+</div></div></div><div class = rightbox><img class = center src=""/static/experiments/stop_signal_with_shape_matching/images/mask.png""></img><div class = centerbox><div class = fixation>+</div></div></div></div>",,,,,74341,0.0,practice_mask,62,poldrack-single-stim,
63,300.0,300.0,350.0,300.0,500.0,"<div class = starbox><img class = center src=""/static/experiments/stop_signal_with_shape_matching/images/stopSignal.png""></img></div>",stop,,2000.0,,-1.0,0.0,0.0,21.0,none,stop_signal_with_shape_matching,,,,,,0.0-0.0-63.0,77.0,"[77, 90]",8.0,,457,SNN,1000.0,"<div class = bigbox><div class = leftbox><img class = center src=""/static/experiments/stop_signal_with_shape_matching/images/8_green.png""></img></div><div class = distractorbox></div><div class = rightbox><img class = center src=""/static/experiments/stop_signal_with_shape_matching/images/8_white.png""></img></div></div>",0.0,stop,8.0,,76344,0.0,practice_trial,63,stop-signal,
64,,,,,,,,,500.0,,,,,,,stop_signal_with_shape_matching,,,,,,0.0-0.0-64.0,-1.0,none,,,-1,,500.0,"<div class = fb_box><div class = center-text><font size = 20>There was a star.</font></div></div><div class = prompt_box><p class = center-block-text style = ""font-size:16px; line-height:80%;"">Respond if the green and white shapes are the same or different!</p><p class = center-block-text style = ""font-size:16px; line-height:80%;"">Same: M Key</p><p class = center-block-text style = ""font-size:16px; line-height:80%;"">Different: Z Key</p><p class = center-block-text style = ""font-size:16px; line-height:80%;"">Do not respond if you see a star around the white shape</p><p class = center-block-text style = ""font-size:16px; line-height:80%;"">Do not slow down your responses to the shape to wait for the star.</p></div>",,,,,76847,0.0,practice-stop-feedback,64,poldrack-single-stim,
65,,,,,,,,,2208.0,,,,,,,stop_signal_with_shape_matching,,,,,,0.0-1.0,13.0,[13],,,2208,,2208.0,<div class = bigbox><div class = picture_box><p class = block-text><br>Please take this time to read your feedback and to take a short break! Press enter to continue</p><p class = block-text>Done with this practice. Press Enter to continue.</p></div></div>,,,,,79057,0.0,feedback_block,65,poldrack-single-stim,
66,,,,,,,,,791.0,,,,,,,stop_signal_with_shape_matching,,,,,,0.0-2.0,13.0,,,,791,,,,,,,"<div class = centerbox><p class = block-text>We will now start the test portion</p><p class = block-text>In this experiment you will see at least green shape on the left side of the screen, and a white shape on the right.</p> <p class = block-text>You will be asked to judge whether the green shape on the left is the same the white shape on the right.</p><p class = block-text>If the shapes are the same, please press the M Key.  If the shapes are different, press the Z Key.</p><p class = block-text>On some trials, a red shape will overlap the green shape. Ignore this red shape, your job is to match the green shape to the white shape.</p><p class = block-text>On some trials, you will see a star appear at the same time, or shortly after, the shapes appear. Do not respond if you see a star.</p><p class = block-text>If the star appears on a trial, and you try your best to withhold your response, you will find that you will be able to stop sometimes but not always.</p><p class = block-text>Do not slow down your responses to the shapes in order to wait for the star.</p><p class = block-text>You will no longer receive the rule prompt, so remember the instructions before you continue. Press Enter to begin.</p></div>",79849,1000.0,instruction,66,poldrack-text,
67,,,,,,,,,879.0,,,,,,,stop_signal_with_shape_matching,,,,,,0.0-3.0-0.0,13.0,[13],,,879,,879.0,<div class = bigbox><div class = picture_box><p class = block-text>We will now start the test portion. Press enter to begin.</p></div></div>,,,,,81730,0.0,feedback_block,67,poldrack-single-stim,
68,,,,,,,,,1839.0,False,54.0,,,,,stop_signal_with_shape_matching,,,,,,0.0-3.0-1.0-0.0,52.0,[],,,1839,,1839.0,<p>Press the number corresponding to the number of sides that a cube has.<p>,,,,,83570,200.0,attention_check,68,attention-check,
69,,,,,,,,,500.0,,,,,,,stop_signal_with_shape_matching,,,,,,0.0-3.0-2.0,-1.0,none,,,-1,,500.0,"<div class = bigbox><div class = leftbox><img class = center src=""/static/experiments/stop_signal_with_shape_matching/images/mask.png""></img><div class = centerbox><div class = fixation>+</div></div></div><div class = rightbox><img class = center src=""/static/experiments/stop_signal_with_shape_matching/images/mask.png""></img><div class = centerbox><div class = fixation>+</div></div></div></div>",,,,,84273,0.0,test_mask,69,poldrack-single-stim,
70,300.0,250.0,350.0,350.0,500.0,"<div class = starbox><img class = center src=""/static/experiments/stop_signal_with_shape_matching/images/stopSignal.png""></img></div>",stop,,2000.0,,-1.0,0.0,0.0,1.0,9,stop_signal_with_shape_matching,,,,,,0.0-3.0-3.0,77.0,"[77, 90]",9.0,,551,SSS,1000.0,"<div class = bigbox><div class = leftbox><img class = center src=""/static/experiments/stop_signal_with_shape_matching/images/9_green.png""></img></div><div class = distractorbox><img class = center src=""/static/experiments/stop_signal_with_shape_matching/images/9_red.png""></img></div><div class = rightbox><img class = center src=""/static/experiments/stop_signal_with_shape_matching/images/9_white.png""></img></div></div>",0.0,stop,9.0,,86276,0.0,test_trial,70,stop-signal,
71,,,,,,,,,500.0,,,,,,,stop_signal_with_shape_matching,,,,,,0.0-3.0-4.0,-1.0,none,,,-1,,500.0,"<div class = bigbox><div class = leftbox><img class = center src=""/static/experiments/stop_signal_with_shape_matching/images/mask.png""></img><div class = centerbox><div class = fixation>+</div></div></div><div class = rightbox><img class = center src=""/static/experiments/stop_signal_with_shape_matching/images/mask.png""></img><div class = centerbox><div class = fixation>+</div></div></div></div>",,,,,86778,0.0,test_mask,71,poldrack-single-stim,
72,300.0,250.0,300.0,300.0,500.0,"<div class = starbox><img class = center src=""/static/experiments/stop_signal_with_shape_matching/images/stopSignal.png""></img></div>",stop,,2000.0,,-1.0,0.0,0.0,2.0,6,stop_signal_with_shape_matching,,,,,,0.0-3.0-5.0,77.0,"[77, 90]",5.0,,447,SDD,1000.0,"<div class = bigbox><div class = leftbox><img class = center src=""/static/experiments/stop_signal_with_shape_matching/images/5_green.png""></img></div><div class = distractorbox><img class = center src=""/static/experiments/stop_signal_with_shape_matching/images/6_red.png""></img></div><div class = rightbox><img class = center src=""/static/experiments/stop_signal_with_shape_matching/images/5_white.png""></img></div></div>",0.0,stop,5.0,,88779,0.0,test_trial,72,stop-signal,
73,,,,,,,,,500.0,,,,,,,stop_signal_with_shape_matching,,,,,,0.0-3.0-6.0,-1.0,none,,,-1,,500.0,"<div class = bigbox><div class = leftbox><img class = center src=""/static/experiments/stop_signal_with_shape_matching/images/mask.png""></img><div class = centerbox><div class = fixation>+</div></div></div><div class = rightbox><img class = center src=""/static/experiments/stop_signal_with_shape_matching/images/mask.png""></img><div class = centerbox><div class = fixation>+</div></div></div></div>",,,,,89281,0.0,test_mask,73,poldrack-single-stim,
74,250.0,250.0,300.0,250.0,500.0,"<div class = starbox><img class = center src=""/static/experiments/stop_signal_with_shape_matching/images/stopSignal.png""></img></div>",stop,,2000.0,,-1.0,1.0,0.0,3.0,none,stop_signal_with_shape_matching,,,,,,0.0-3.0-7.0,-1.0,"[77, 90]",3.0,,-1,DNN,1000.0,"<div class = bigbox><div class = leftbox><img class = center src=""/static/experiments/stop_signal_with_shape_matching/images/8_green.png""></img></div><div class = distractorbox></div><div class = rightbox><img class = center src=""/static/experiments/stop_signal_with_shape_matching/images/3_white.png""></img></div></div>",1.0,stop,8.0,,91285,0.0,test_trial,74,stop-signal,
75,,,,,,,,,500.0,,,,,,,stop_signal_with_shape_matching,,,,,,0.0-3.0-8.0,-1.0,none,,,-1,,500.0,"<div class = bigbox><div class = leftbox><img class = center src=""/static/experiments/stop_signal_with_shape_matching/images/mask.png""></img><div class = centerbox><div class = fixation>+</div></div></div><div class = rightbox><img class = center src=""/static/experiments/stop_signal_with_shape_matching/images/mask.png""></img><div class = centerbox><div class = fixation>+</div></div></div></div>",,,,,91787,0.0,test_mask,75,poldrack-single-stim,
76,250.0,300.0,300.0,250.0,500.0,"<div class = starbox><img class = center src=""/static/experiments/stop_signal_with_shape_matching/images/stopSignal.png""></img></div>",stop,,2000.0,,-1.0,1.0,0.0,4.0,6,stop_signal_with_shape_matching,,,,,,0.0-3.0-9.0,-1.0,"[77, 90]",6.0,,-1,DDS,1000.0,"<div class = bigbox><div class = leftbox><img class = center src=""/static/experiments/stop_signal_with_shape_matching/images/3_green.png""></img></div><div class = distractorbox><img class = center src=""/static/experiments/stop_signal_with_shape_matching/images/6_red.png""></img></div><div class = rightbox><img class = center src=""/static/experiments/stop_signal_with_shape_matching/images/6_white.png""></img></div></div>",1.0,stop,3.0,,93790,0.0,test_trial,76,stop-signal,
77,,,,,,,,,500.0,,,,,,,stop_signal_with_shape_matching,,,,,,0.0-3.0-10.0,-1.0,none,,,-1,,500.0,"<div class = bigbox><div class = leftbox><img class = center src=""/static/experiments/stop_signal_with_shape_matching/images/mask.png""></img><div class = centerbox><div class = fixation>+</div></div></div><div class = rightbox><img class = center src=""/static/experiments/stop_signal_with_shape_matching/images/mask.png""></img><div class = centerbox><div class = fixation>+</div></div></div></div>",,,,,94292,0.0,test_mask,77,poldrack-single-stim,
78,300.0,300.0,300.0,300.0,500.0,"<div class = starbox><img class = center src=""/static/experiments/stop_signal_with_shape_matching/images/stopSignal.png""></img></div>",go,,2000.0,,77.0,1.0,0.0,5.0,4,stop_signal_with_shape_matching,,,,,,0.0-3.0-11.0,77.0,"[77, 90]",4.0,,510,SSS,1000.0,"<div class = bigbox><div class = leftbox><img class = center src=""/static/experiments/stop_signal_with_shape_matching/images/4_green.png""></img></div><div class = distractorbox><img class = center src=""/static/experiments/stop_signal_with_shape_matching/images/4_red.png""></img></div><div class = rightbox><img class = center src=""/static/experiments/stop_signal_with_shape_matching/images/4_white.png""></img></div></div>",,go,4.0,,96294,0.0,test_trial,78,stop-signal,
79,,,,,,,,,500.0,,,,,,,stop_signal_with_shape_matching,,,,,,0.0-3.0-12.0,-1.0,none,,,-1,,500.0,"<div class = bigbox><div class = leftbox><img class = center src=""/static/experiments/stop_signal_with_shape_matching/images/mask.png""></img><div class = centerbox><div class = fixation>+</div></div></div><div class = rightbox><img class = center src=""/static/experiments/stop_signal_with_shape_matching/images/mask.png""></img><div class = centerbox><div class = fixation>+</div></div></div></div>",,,,,96796,0.0,test_mask,79,poldrack-single-stim,
80,300.0,300.0,300.0,300.0,500.0,"<div class = starbox><img class = center src=""/static/experiments/stop_signal_with_shape_matching/images/stopSignal.png""></img></div>",go,,2000.0,,90.0,1.0,0.0,6.0,1,stop_signal_with_shape_matching,,,,,,0.0-3.0-13.0,90.0,"[77, 90]",4.0,,462,DSD,1000.0,"<div class = bigbox><div class = leftbox><img class = center src=""/static/experiments/stop_signal_with_shape_matching/images/1_green.png""></img></div><div class = distractorbox><img class = center src=""/static/experiments/stop_signal_with_shape_matching/images/1_red.png""></img></div><div class = rightbox><img class = center src=""/static/experiments/stop_signal_with_shape_matching/images/4_white.png""></img></div></div>",,go,1.0,,98798,0.0,test_trial,80,stop-signal,
81,,,,,,,,,500.0,,,,,,,stop_signal_with_shape_matching,,,,,,0.0-3.0-14.0,-1.0,none,,,-1,,500.0,"<div class = bigbox><div class = leftbox><img class = center src=""/static/experiments/stop_signal_with_shape_matching/images/mask.png""></img><div class = centerbox><div class = fixation>+</div></div></div><div class = rightbox><img class = center src=""/static/experiments/stop_signal_with_shape_matching/images/mask.png""></img><div class = centerbox><div class = fixation>+</div></div></div></div>",,,,,99299,0.0,test_mask,81,poldrack-single-stim,
82,300.0,300.0,300.0,300.0,500.0,"<div class = starbox><img class = center src=""/static/experiments/stop_signal_with_shape_matching/images/stopSignal.png""></img></div>",stop,,2000.0,,-1.0,1.0,0.0,7.0,none,stop_signal_with_shape_matching,,,,,,0.0-3.0-15.0,-1.0,"[77, 90]",8.0,,-1,DNN,1000.0,"<div class = bigbox><div class = leftbox><img class = center src=""/static/experiments/stop_signal_with_shape_matching/images/1_green.png""></img></div><div class = distractorbox></div><div class = rightbox><img class = center src=""/static/experiments/stop_signal_with_shape_matching/images/8_white.png""></img></div></div>",1.0,stop,1.0,,101303,0.0,test_trial,82,stop-signal,
83,,,,,,,,,500.0,,,,,,,stop_signal_with_shape_matching,,,,,,0.0-3.0-16.0,-1.0,none,,,-1,,500.0,"<div class = bigbox><div class = leftbox><img class = center src=""/static/experiments/stop_signal_with_shape_matching/images/mask.png""></img><div class = centerbox><div class = fixation>+</div></div></div><div class = rightbox><img class = center src=""/static/experiments/stop_signal_with_shape_matching/images/mask.png""></img><div class = centerbox><div class = fixation>+</div></div></div></div>",,,,,101804,0.0,test_mask,83,poldrack-single-stim,
84,300.0,350.0,300.0,350.0,500.0,"<div class = starbox><img class = center src=""/static/experiments/stop_signal_with_shape_matching/images/stopSignal.png""></img></div>",stop,,2000.0,,-1.0,0.0,0.0,8.0,none,stop_signal_with_shape_matching,,,,,,0.0-3.0-17.0,77.0,"[77, 90]",10.0,,471,SNN,1000.0,"<div class = bigbox><div class = leftbox><img class = center src=""/static/experiments/stop_signal_with_shape_matching/images/10_green.png""></img></div><div class = distractorbox></div><div class = rightbox><img class = center src=""/static/experiments/stop_signal_with_shape_matching/images/10_white.png""></img></div></div>",0.0,stop,10.0,,103806,0.0,test_trial,84,stop-signal,
85,,,,,,,,,500.0,,,,,,,stop_signal_with_shape_matching,,,,,,0.0-3.0-18.0,-1.0,none,,,-1,,500.0,"<div class = bigbox><div class = leftbox><img class = center src=""/static/experiments/stop_signal_with_shape_matching/images/mask.png""></img><div class = centerbox><div class = fixation>+</div></div></div><div class = rightbox><img class = center src=""/static/experiments/stop_signal_with_shape_matching/images/mask.png""></img><div class = centerbox><div class = fixation>+</div></div></div></div>",,,,,104308,0.0,test_mask,85,poldrack-single-stim,
86,300.0,300.0,300.0,300.0,500.0,"<div class = starbox><img class = center src=""/static/experiments/stop_signal_with_shape_matching/images/stopSignal.png""></img></div>",go,,2000.0,,77.0,1.0,0.0,9.0,10,stop_signal_with_shape_matching,,,,,,0.0-3.0-19.0,77.0,"[77, 90]",8.0,,495,SDD,1000.0,"<div class = bigbox><div class = leftbox><img class = center src=""/static/experiments/stop_signal_with_shape_matching/images/8_green.png""></img></div><div class = distractorbox><img class = center src=""/static/experiments/stop_signal_with_shape_matching/images/10_red.png""></img></div><div class = rightbox><img class = center src=""/static/experiments/stop_signal_with_shape_matching/images/8_white.png""></img></div></div>",,go,8.0,,106309,0.0,test_trial,86,stop-signal,
87,,,,,,,,,500.0,,,,,,,stop_signal_with_shape_matching,,,,,,0.0-3.0-20.0,-1.0,none,,,-1,,500.0,"<div class = bigbox><div class = leftbox><img class = center src=""/static/experiments/stop_signal_with_shape_matching/images/mask.png""></img><div class = centerbox><div class = fixation>+</div></div></div><div class = rightbox><img class = center src=""/static/experiments/stop_signal_with_shape_matching/images/mask.png""></img><div class = centerbox><div class = fixation>+</div></div></div></div>",,,,,106811,0.0,test_mask,87,poldrack-single-stim,
88,300.0,300.0,300.0,300.0,500.0,"<div class = starbox><img class = center src=""/static/experiments/stop_signal_with_shape_matching/images/stopSignal.png""></img></div>",go,,2000.0,,77.0,1.0,0.0,10.0,9,stop_signal_with_shape_matching,,,,,,0.0-3.0-21.0,77.0,"[77, 90]",2.0,,448,SDD,1000.0,"<div class = bigbox><div class = leftbox><img class = center src=""/static/experiments/stop_signal_with_shape_matching/images/2_green.png""></img></div><div class = distractorbox><img class = center src=""/static/experiments/stop_signal_with_shape_matching/images/9_red.png""></img></div><div class = rightbox><img class = center src=""/static/experiments/stop_signal_with_shape_matching/images/2_white.png""></img></div></div>",,go,2.0,,108813,0.0,test_trial,88,stop-signal,
89,,,,,,,,,500.0,,,,,,,stop_signal_with_shape_matching,,,,,,0.0-3.0-22.0,-1.0,none,,,-1,,500.0,"<div class = bigbox><div class = leftbox><img class = center src=""/static/experiments/stop_signal_with_shape_matching/images/mask.png""></img><div class = centerbox><div class = fixation>+</div></div></div><div class = rightbox><img class = center src=""/static/experiments/stop_signal_with_shape_matching/images/mask.png""></img><div class = centerbox><div class = fixation>+</div></div></div></div>",,,,,109315,0.0,test_mask,89,poldrack-single-stim,
90,300.0,300.0,300.0,300.0,500.0,"<div class = starbox><img class = center src=""/static/experiments/stop_signal_with_shape_matching/images/stopSignal.png""></img></div>",go,,2000.0,,77.0,1.0,0.0,11.0,4,stop_signal_with_shape_matching,,,,,,0.0-3.0-23.0,77.0,"[77, 90]",2.0,,398,SDD,1000.0,"<div class = bigbox><div class = leftbox><img class = center src=""/static/experiments/stop_signal_with_shape_matching/images/2_green.png""></img></div><div class = distractorbox><img class = center src=""/static/experiments/stop_signal_with_shape_matching/images/4_red.png""></img></div><div class = rightbox><img class = center src=""/static/experiments/stop_signal_with_shape_matching/images/2_white.png""></img></div></div>",,go,2.0,,111319,0.0,test_trial,90,stop-signal,
91,,,,,,,,,500.0,,,,,,,stop_signal_with_shape_matching,,,,,,0.0-3.0-24.0,-1.0,none,,,-1,,500.0,"<div class = bigbox><div class = leftbox><img class = center src=""/static/experiments/stop_signal_with_shape_matching/images/mask.png""></img><div class = centerbox><div class = fixation>+</div></div></div><div class = rightbox><img class = center src=""/static/experiments/stop_signal_with_shape_matching/images/mask.png""></img><div class = centerbox><div class = fixation>+</div></div></div></div>",,,,,111821,0.0,test_mask,91,poldrack-single-stim,
92,300.0,300.0,300.0,300.0,500.0,"<div class = starbox><img class = center src=""/static/experiments/stop_signal_with_shape_matching/images/stopSignal.png""></img></div>",go,,2000.0,,90.0,1.0,0.0,12.0,none,stop_signal_with_shape_matching,,,,,,0.0-3.0-25.0,90.0,"[77, 90]",1.0,,431,DNN,1000.0,"<div class = bigbox><div class = leftbox><img class = center src=""/static/experiments/stop_signal_with_shape_matching/images/2_green.png""></img></div><div class = distractorbox></div><div class = rightbox><img class = center src=""/static/experiments/stop_signal_with_shape_matching/images/1_white.png""></img></div></div>",,go,2.0,,113823,0.0,test_trial,92,stop-signal,
93,,,,,,,,,500.0,,,,,,,stop_signal_with_shape_matching,,,,,,0.0-3.0-26.0,-1.0,none,,,-1,,500.0,"<div class = bigbox><div class = leftbox><img class = center src=""/static/experiments/stop_signal_with_shape_matching/images/mask.png""></img><div class = centerbox><div class = fixation>+</div></div></div><div class = rightbox><img class = center src=""/static/experiments/stop_signal_with_shape_matching/images/mask.png""></img><div class = centerbox><div class = fixation>+</div></div></div></div>",,,,,114325,0.0,test_mask,93,poldrack-single-stim,
94,300.0,300.0,300.0,300.0,500.0,"<div class = starbox><img class = center src=""/static/experiments/stop_signal_with_shape_matching/images/stopSignal.png""></img></div>",stop,,2000.0,,-1.0,0.0,0.0,13.0,4,stop_signal_with_shape_matching,,,,,,0.0-3.0-27.0,90.0,"[77, 90]",3.0,,462,DSD,1000.0,"<div class = bigbox><div class = leftbox><img class = center src=""/static/experiments/stop_signal_with_shape_matching/images/4_green.png""></img></div><div class = distractorbox><img class = center src=""/static/experiments/stop_signal_with_shape_matching/images/4_red.png""></img></div><div class = rightbox><img class = center src=""/static/experiments/stop_signal_with_shape_matching/images/3_white.png""></img></div></div>",0.0,stop,4.0,,116329,0.0,test_trial,94,stop-signal,
95,,,,,,,,,500.0,,,,,,,stop_signal_with_shape_matching,,,,,,0.0-3.0-28.0,-1.0,none,,,-1,,500.0,"<div class = bigbox><div class = leftbox><img class = center src=""/static/experiments/stop_signal_with_shape_matching/images/mask.png""></img><div class = centerbox><div class = fixation>+</div></div></div><div class = rightbox><img class = center src=""/static/experiments/stop_signal_with_shape_matching/images/mask.png""></img><div class = centerbox><div class = fixation>+</div></div></div></div>",,,,,116831,0.0,test_mask,95,poldrack-single-stim,
96,300.0,300.0,250.0,300.0,500.0,"<div class = starbox><img class = center src=""/static/experiments/stop_signal_with_shape_matching/images/stopSignal.png""></img></div>",go,,2000.0,,77.0,1.0,0.0,14.0,none,stop_signal_with_shape_matching,,,,,,0.0-3.0-29.0,77.0,"[77, 90]",5.0,,414,SNN,1000.0,"<div class = bigbox><div class = leftbox><img class = center src=""/static/experiments/stop_signal_with_shape_matching/images/5_green.png""></img></div><div class = distractorbox></div><div class = rightbox><img class = center src=""/static/experiments/stop_signal_with_shape_matching/images/5_white.png""></img></div></div>",,go,5.0,,118833,0.0,test_trial,96,stop-signal,
97,,,,,,,,,500.0,,,,,,,stop_signal_with_shape_matching,,,,,,0.0-3.0-30.0,-1.0,none,,,-1,,500.0,"<div class = bigbox><div class = leftbox><img class = center src=""/static/experiments/stop_signal_with_shape_matching/images/mask.png""></img><div class = centerbox><div class = fixation>+</div></div></div><div class = rightbox><img class = center src=""/static/experiments/stop_signal_with_shape_matching/images/mask.png""></img><div class = centerbox><div class = fixation>+</div></div></div></div>",,,,,119335,0.0,test_mask,97,poldrack-single-stim,
98,300.0,300.0,250.0,250.0,500.0,"<div class = starbox><img class = center src=""/static/experiments/stop_signal_with_shape_matching/images/stopSignal.png""></img></div>",go,,2000.0,,77.0,1.0,0.0,15.0,10,stop_signal_with_shape_matching,,,,,,0.0-3.0-31.0,77.0,"[77, 90]",10.0,,406,SSS,1000.0,"<div class = bigbox><div class = leftbox><img class = center src=""/static/experiments/stop_signal_with_shape_matching/images/10_green.png""></img></div><div class = distractorbox><img class = center src=""/static/experiments/stop_signal_with_shape_matching/images/10_red.png""></img></div><div class = rightbox><img class = center src=""/static/experiments/stop_signal_with_shape_matching/images/10_white.png""></img></div></div>",,go,10.0,,121337,0.0,test_trial,98,stop-signal,
99,,,,,,,,,500.0,,,,,,,stop_signal_with_shape_matching,,,,,,0.0-3.0-32.0,-1.0,none,,,-1,,500.0,"<div class = bigbox><div class = leftbox><img class = center src=""/static/experiments/stop_signal_with_shape_matching/images/mask.png""></img><div class = centerbox><div class = fixation>+</div></div></div><div class = rightbox><img class = center src=""/static/experiments/stop_signal_with_shape_matching/images/mask.png""></img><div class = centerbox><div class = fixation>+</div></div></div></div>",,,,,121839,0.0,test_mask,99,poldrack-single-stim,
100,300.0,300.0,250.0,300.0,500.0,"<div class = starbox><img class = center src=""/static/experiments/stop_signal_with_shape_matching/images/stopSignal.png""></img></div>",go,,2000.0,,90.0,1.0,0.0,16.0,4,stop_signal_with_shape_matching,,,,,,0.0-3.0-33.0,90.0,"[77, 90]",5.0,,495,DDD,1000.0,"<div class = bigbox><div class = leftbox><img class = center src=""/static/experiments/stop_signal_with_shape_matching/images/2_green.png""></img></div><div class = distractorbox><img class = center src=""/static/experiments/stop_signal_with_shape_matching/images/4_red.png""></img></div><div class = rightbox><img class = center src=""/static/experiments/stop_signal_with_shape_matching/images/5_white.png""></img></div></div>",,go,2.0,,123841,0.0,test_trial,100,stop-signal,
101,,,,,,,,,500.0,,,,,,,stop_signal_with_shape_matching,,,,,,0.0-3.0-34.0,-1.0,none,,,-1,,500.0,"<div class = bigbox><div class = leftbox><img class = center src=""/static/experiments/stop_signal_with_shape_matching/images/mask.png""></img><div class = centerbox><div class = fixation>+</div></div></div><div class = rightbox><img class = center src=""/static/experiments/stop_signal_with_shape_matching/images/mask.png""></img><div class = centerbox><div class = fixation>+</div></div></div></div>",,,,,124343,0.0,test_mask,101,poldrack-single-stim,
102,300.0,300.0,250.0,300.0,500.0,"<div class = starbox><img class = center src=""/static/experiments/stop_signal_with_shape_matching/images/stopSignal.png""></img></div>",stop,,2000.0,,-1.0,0.0,0.0,17.0,none,stop_signal_with_shape_matching,,,,,,0.0-3.0-35.0,77.0,"[77, 90]",7.0,,446,SNN,1000.0,"<div class = bigbox><div class = leftbox><img class = center src=""/static/experiments/stop_signal_with_shape_matching/images/7_green.png""></img></div><div class = distractorbox></div><div class = rightbox><img class = center src=""/static/experiments/stop_signal_with_shape_matching/images/7_white.png""></img></div></div>",0.0,stop,7.0,,126344,0.0,test_trial,102,stop-signal,
103,,,,,,,,,500.0,,,,,,,stop_signal_with_shape_matching,,,,,,0.0-3.0-36.0,-1.0,none,,,-1,,500.0,"<div class = bigbox><div class = leftbox><img class = center src=""/static/experiments/stop_signal_with_shape_matching/images/mask.png""></img><div class = centerbox><div class = fixation>+</div></div></div><div class = rightbox><img class = center src=""/static/experiments/stop_signal_with_shape_matching/images/mask.png""></img><div class = centerbox><div class = fixation>+</div></div></div></div>",,,,,126847,0.0,test_mask,103,poldrack-single-stim,
104,300.0,250.0,250.0,300.0,500.0,"<div class = starbox><img class = center src=""/static/experiments/stop_signal_with_shape_matching/images/stopSignal.png""></img></div>",stop,,2000.0,,-1.0,0.0,0.0,18.0,7,stop_signal_with_shape_matching,,,,,,0.0-3.0-37.0,90.0,"[77, 90]",7.0,,447,DDS,1000.0,"<div class = bigbox><div class = leftbox><img class = center src=""/static/experiments/stop_signal_with_shape_matching/images/9_green.png""></img></div><div class = distractorbox><img class = center src=""/static/experiments/stop_signal_with_shape_matching/images/7_red.png""></img></div><div class = rightbox><img class = center src=""/static/experiments/stop_signal_with_shape_matching/images/7_white.png""></img></div></div>",0.0,stop,9.0,,128849,0.0,test_trial,104,stop-signal,
105,,,,,,,,,500.0,,,,,,,stop_signal_with_shape_matching,,,,,,0.0-3.0-38.0,-1.0,none,,,-1,,500.0,"<div class = bigbox><div class = leftbox><img class = center src=""/static/experiments/stop_signal_with_shape_matching/images/mask.png""></img><div class = centerbox><div class = fixation>+</div></div></div><div class = rightbox><img class = center src=""/static/experiments/stop_signal_with_shape_matching/images/mask.png""></img><div class = centerbox><div class = fixation>+</div></div></div></div>",,,,,129351,0.0,test_mask,105,poldrack-single-stim,
106,250.0,250.0,250.0,250.0,500.0,"<div class = starbox><img class = center src=""/static/experiments/stop_signal_with_shape_matching/images/stopSignal.png""></img></div>",go,,2000.0,,77.0,1.0,0.0,19.0,none,stop_signal_with_shape_matching,,,,,,0.0-3.0-39.0,77.0,"[77, 90]",1.0,,431,SNN,1000.0,"<div class = bigbox><div class = leftbox><img class = center src=""/static/experiments/stop_signal_with_shape_matching/images/1_green.png""></img></div><div class = distractorbox></div><div class = rightbox><img class = center src=""/static/experiments/stop_signal_with_shape_matching/images/1_white.png""></img></div></div>",,go,1.0,,131353,0.0,test_trial,106,stop-signal,
107,,,,,,,,,500.0,,,,,,,stop_signal_with_shape_matching,,,,,,0.0-3.0-40.0,-1.0,none,,,-1,,500.0,"<div class = bigbox><div class = leftbox><img class = center src=""/static/experiments/stop_signal_with_shape_matching/images/mask.png""></img><div class = centerbox><div class = fixation>+</div></div></div><div class = rightbox><img class = center src=""/static/experiments/stop_signal_with_shape_matching/images/mask.png""></img><div class = centerbox><div class = fixation>+</div></div></div></div>",,,,,131855,0.0,test_mask,107,poldrack-single-stim,
108,250.0,250.0,250.0,250.0,500.0,"<div class = starbox><img class = center src=""/static/experiments/stop_signal_with_shape_matching/images/stopSignal.png""></img></div>",stop,,2000.0,,-1.0,0.0,0.0,20.0,10,stop_signal_with_shape_matching,,,,,,0.0-3.0-41.0,90.0,"[77, 90]",8.0,,391,DSD,1000.0,"<div class = bigbox><div class = leftbox><img class = center src=""/static/experiments/stop_signal_with_shape_matching/images/10_green.png""></img></div><div class = distractorbox><img class = center src=""/static/experiments/stop_signal_with_shape_matching/images/10_red.png""></img></div><div class = rightbox><img class = center src=""/static/experiments/stop_signal_with_shape_matching/images/8_white.png""></img></div></div>",0.0,stop,10.0,,133857,0.0,test_trial,108,stop-signal,
109,,,,,,,,,500.0,,,,,,,stop_signal_with_shape_matching,,,,,,0.0-3.0-42.0,-1.0,none,,,-1,,500.0,"<div class = bigbox><div class = leftbox><img class = center src=""/static/experiments/stop_signal_with_shape_matching/images/mask.png""></img><div class = centerbox><div class = fixation>+</div></div></div><div class = rightbox><img class = center src=""/static/experiments/stop_signal_with_shape_matching/images/mask.png""></img><div class = centerbox><div class = fixation>+</div></div></div></div>",,,,,134358,0.0,test_mask,109,poldrack-single-stim,
110,250.0,250.0,200.0,250.0,500.0,"<div class = starbox><img class = center src=""/static/experiments/stop_signal_with_shape_matching/images/stopSignal.png""></img></div>",go,,2000.0,,77.0,1.0,0.0,21.0,3,stop_signal_with_shape_matching,,,,,,0.0-3.0-43.0,77.0,"[77, 90]",6.0,,577,SDD,1000.0,"<div class = bigbox><div class = leftbox><img class = center src=""/static/experiments/stop_signal_with_shape_matching/images/6_green.png""></img></div><div class = distractorbox><img class = center src=""/static/experiments/stop_signal_with_shape_matching/images/3_red.png""></img></div><div class = rightbox><img class = center src=""/static/experiments/stop_signal_with_shape_matching/images/6_white.png""></img></div></div>",,go,6.0,,136360,0.0,test_trial,110,stop-signal,
111,,,,,,,,,500.0,,,,,,,stop_signal_with_shape_matching,,,,,,0.0-3.0-44.0,-1.0,none,,,-1,,500.0,"<div class = bigbox><div class = leftbox><img class = center src=""/static/experiments/stop_signal_with_shape_matching/images/mask.png""></img><div class = centerbox><div class = fixation>+</div></div></div><div class = rightbox><img class = center src=""/static/experiments/stop_signal_with_shape_matching/images/mask.png""></img><div class = centerbox><div class = fixation>+</div></div></div></div>",,,,,136862,0.0,test_mask,111,poldrack-single-stim,
112,250.0,250.0,200.0,250.0,500.0,"<div class = starbox><img class = center src=""/static/experiments/stop_signal_with_shape_matching/images/stopSignal.png""></img></div>",stop,,2000.0,,-1.0,1.0,0.0,22.0,none,stop_signal_with_shape_matching,,,,,,0.0-3.0-45.0,-1.0,"[77, 90]",7.0,,-1,SNN,1000.0,"<div class = bigbox><div class = leftbox><img class = center src=""/static/experiments/stop_signal_with_shape_matching/images/7_green.png""></img></div><div class = distractorbox></div><div class = rightbox><img class = center src=""/static/experiments/stop_signal_with_shape_matching/images/7_white.png""></img></div></div>",1.0,stop,7.0,,138864,0.0,test_trial,112,stop-signal,
113,,,,,,,,,500.0,,,,,,,stop_signal_with_shape_matching,,,,,,0.0-3.0-46.0,-1.0,none,,,-1,,500.0,"<div class = bigbox><div class = leftbox><img class = center src=""/static/experiments/stop_signal_with_shape_matching/images/mask.png""></img><div class = centerbox><div class = fixation>+</div></div></div><div class = rightbox><img class = center src=""/static/experiments/stop_signal_with_shape_matching/images/mask.png""></img><div class = centerbox><div class = fixation>+</div></div></div></div>",,,,,139367,0.0,test_mask,113,poldrack-single-stim,
114,250.0,300.0,200.0,300.0,500.0,"<div class = starbox><img class = center src=""/static/experiments/stop_signal_with_shape_matching/images/stopSignal.png""></img></div>",go,,2000.0,,90.0,1.0,0.0,23.0,none,stop_signal_with_shape_matching,,,,,,0.0-3.0-47.0,90.0,"[77, 90]",1.0,,464,DNN,1000.0,"<div class = bigbox><div class = leftbox><img class = center src=""/static/experiments/stop_signal_with_shape_matching/images/3_green.png""></img></div><div class = distractorbox></div><div class = rightbox><img class = center src=""/static/experiments/stop_signal_with_shape_matching/images/1_white.png""></img></div></div>",,go,3.0,,141369,0.0,test_trial,114,stop-signal,
115,,,,,,,,,500.0,,,,,,,stop_signal_with_shape_matching,,,,,,0.0-3.0-48.0,-1.0,none,,,-1,,500.0,"<div class = bigbox><div class = leftbox><img class = center src=""/static/experiments/stop_signal_with_shape_matching/images/mask.png""></img><div class = centerbox><div class = fixation>+</div></div></div><div class = rightbox><img class = center src=""/static/experiments/stop_signal_with_shape_matching/images/mask.png""></img><div class = centerbox><div class = fixation>+</div></div></div></div>",,,,,141871,0.0,test_mask,115,poldrack-single-stim,
116,250.0,300.0,200.0,200.0,500.0,"<div class = starbox><img class = center src=""/static/experiments/stop_signal_with_shape_matching/images/stopSignal.png""></img></div>",go,,2000.0,,77.0,1.0,0.0,24.0,7,stop_signal_with_shape_matching,,,,,,0.0-3.0-49.0,77.0,"[77, 90]",7.0,,432,SSS,1000.0,"<div class = bigbox><div class = leftbox><img class = center src=""/static/experiments/stop_signal_with_shape_matching/images/7_green.png""></img></div><div class = distractorbox><img class = center src=""/static/experiments/stop_signal_with_shape_matching/images/7_red.png""></img></div><div class = rightbox><img class = center src=""/static/experiments/stop_signal_with_shape_matching/images/7_white.png""></img></div></div>",,go,7.0,,143873,0.0,test_trial,116,stop-signal,
117,,,,,,,,,500.0,,,,,,,stop_signal_with_shape_matching,,,,,,0.0-3.0-50.0,-1.0,none,,,-1,,500.0,"<div class = bigbox><div class = leftbox><img class = center src=""/static/experiments/stop_signal_with_shape_matching/images/mask.png""></img><div class = centerbox><div class = fixation>+</div></div></div><div class = rightbox><img class = center src=""/static/experiments/stop_signal_with_shape_matching/images/mask.png""></img><div class = centerbox><div class = fixation>+</div></div></div></div>",,,,,144375,0.0,test_mask,117,poldrack-single-stim,
118,250.0,300.0,200.0,250.0,500.0,"<div class = starbox><img class = center src=""/static/experiments/stop_signal_with_shape_matching/images/stopSignal.png""></img></div>",go,,2000.0,,90.0,1.0,0.0,25.0,9,stop_signal_with_shape_matching,,,,,,0.0-3.0-51.0,90.0,"[77, 90]",9.0,,401,DDS,1000.0,"<div class = bigbox><div class = leftbox><img class = center src=""/static/experiments/stop_signal_with_shape_matching/images/5_green.png""></img></div><div class = distractorbox><img class = center src=""/static/experiments/stop_signal_with_shape_matching/images/9_red.png""></img></div><div class = rightbox><img class = center src=""/static/experiments/stop_signal_with_shape_matching/images/9_white.png""></img></div></div>",,go,5.0,,146377,0.0,test_trial,118,stop-signal,
119,,,,,,,,,500.0,,,,,,,stop_signal_with_shape_matching,,,,,,0.0-3.0-52.0,-1.0,none,,,-1,,500.0,"<div class = bigbox><div class = leftbox><img class = center src=""/static/experiments/stop_signal_with_shape_matching/images/mask.png""></img><div class = centerbox><div class = fixation>+</div></div></div><div class = rightbox><img class = center src=""/static/experiments/stop_signal_with_shape_matching/images/mask.png""></img><div class = centerbox><div class = fixation>+</div></div></div></div>",,,,,146879,0.0,test_mask,119,poldrack-single-stim,
120,250.0,300.0,200.0,250.0,500.0,"<div class = starbox><img class = center src=""/static/experiments/stop_signal_with_shape_matching/images/stopSignal.png""></img></div>",go,,2000.0,,90.0,1.0,0.0,26.0,7,stop_signal_with_shape_matching,,,,,,0.0-3.0-53.0,90.0,"[77, 90]",7.0,,521,DDS,1000.0,"<div class = bigbox><div class = leftbox><img class = center src=""/static/experiments/stop_signal_with_shape_matching/images/10_green.png""></img></div><div class = distractorbox><img class = center src=""/static/experiments/stop_signal_with_shape_matching/images/7_red.png""></img></div><div class = rightbox><img class = center src=""/static/experiments/stop_signal_with_shape_matching/images/7_white.png""></img></div></div>",,go,10.0,,148881,0.0,test_trial,120,stop-signal,
121,,,,,,,,,500.0,,,,,,,stop_signal_with_shape_matching,,,,,,0.0-3.0-54.0,-1.0,none,,,-1,,500.0,"<div class = bigbox><div class = leftbox><img class = center src=""/static/experiments/stop_signal_with_shape_matching/images/mask.png""></img><div class = centerbox><div class = fixation>+</div></div></div><div class = rightbox><img class = center src=""/static/experiments/stop_signal_with_shape_matching/images/mask.png""></img><div class = centerbox><div class = fixation>+</div></div></div></div>",,,,,149382,0.0,test_mask,121,poldrack-single-stim,
122,250.0,300.0,200.0,250.0,500.0,"<div class = starbox><img class = center src=""/static/experiments/stop_signal_with_shape_matching/images/stopSignal.png""></img></div>",go,,2000.0,,90.0,1.0,0.0,27.0,7,stop_signal_with_shape_matching,,,,,,0.0-3.0-55.0,90.0,"[77, 90]",9.0,,402,DDD,1000.0,"<div class = bigbox><div class = leftbox><img class = center src=""/static/experiments/stop_signal_with_shape_matching/images/10_green.png""></img></div><div class = distractorbox><img class = center src=""/static/experiments/stop_signal_with_shape_matching/images/7_red.png""></img></div><div class = rightbox><img class = center src=""/static/experiments/stop_signal_with_shape_matching/images/9_white.png""></img></div></div>",,go,10.0,,151385,0.0,test_trial,122,stop-signal,
123,,,,,,,,,500.0,,,,,,,stop_signal_with_shape_matching,,,,,,0.0-3.0-56.0,-1.0,none,,,-1,,500.0,"<div class = bigbox><div class = leftbox><img class = center src=""/static/experiments/stop_signal_with_shape_matching/images/mask.png""></img><div class = centerbox><div class = fixation>+</div></div></div><div class = rightbox><img class = center src=""/static/experiments/stop_signal_with_shape_matching/images/mask.png""></img><div class = centerbox><div class = fixation>+</div></div></div></div>",,,,,151888,0.0,test_mask,123,poldrack-single-stim,
124,250.0,300.0,200.0,250.0,500.0,"<div class = starbox><img class = center src=""/static/experiments/stop_signal_with_shape_matching/images/stopSignal.png""></img></div>",stop,,2000.0,,-1.0,0.0,0.0,28.0,10,stop_signal_with_shape_matching,,,,,,0.0-3.0-57.0,90.0,"[77, 90]",2.0,,401,DDD,1000.0,"<div class = bigbox><div class = leftbox><img class = center src=""/static/experiments/stop_signal_with_shape_matching/images/6_green.png""></img></div><div class = distractorbox><img class = center src=""/static/experiments/stop_signal_with_shape_matching/images/10_red.png""></img></div><div class = rightbox><img class = center src=""/static/experiments/stop_signal_with_shape_matching/images/2_white.png""></img></div></div>",0.0,stop,6.0,,153890,0.0,test_trial,124,stop-signal,
125,,,,,,,,,500.0,,,,,,,stop_signal_with_shape_matching,,,,,,0.0-3.0-58.0,-1.0,none,,,-1,,500.0,"<div class = bigbox><div class = leftbox><img class = center src=""/static/experiments/stop_signal_with_shape_matching/images/mask.png""></img><div class = centerbox><div class = fixation>+</div></div></div><div class = rightbox><img class = center src=""/static/experiments/stop_signal_with_shape_matching/images/mask.png""></img><div class = centerbox><div class = fixation>+</div></div></div></div>",,,,,154392,0.0,test_mask,125,poldrack-single-stim,
126,200.0,300.0,200.0,300.0,500.0,"<div class = starbox><img class = center src=""/static/experiments/stop_signal_with_shape_matching/images/stopSignal.png""></img></div>",go,,2000.0,,77.0,1.0,0.0,29.0,none,stop_signal_with_shape_matching,,,,,,0.0-3.0-59.0,77.0,"[77, 90]",6.0,,409,SNN,1000.0,"<div class = bigbox><div class = leftbox><img class = center src=""/static/experiments/stop_signal_with_shape_matching/images/6_green.png""></img></div><div class = distractorbox></div><div class = rightbox><img class = center src=""/static/experiments/stop_signal_with_shape_matching/images/6_white.png""></img></div></div>",,go,6.0,,156394,0.0,test_trial,126,stop-signal,
127,,,,,,,,,500.0,,,,,,,stop_signal_with_shape_matching,,,,,,0.0-3.0-60.0,-1.0,none,,,-1,,500.0,"<div class = bigbox><div class = leftbox><img class = center src=""/static/experiments/stop_signal_with_shape_matching/images/mask.png""></img><div class = centerbox><div class = fixation>+</div></div></div><div class = rightbox><img class = center src=""/static/experiments/stop_signal_with_shape_matching/images/mask.png""></img><div class = centerbox><div class = fixation>+</div></div></div></div>",,,,,156896,0.0,test_mask,127,poldrack-single-stim,
128,200.0,300.0,200.0,300.0,500.0,"<div class = starbox><img class = center src=""/static/experiments/stop_signal_with_shape_matching/images/stopSignal.png""></img></div>",go,,2000.0,,77.0,1.0,0.0,30.0,none,stop_signal_with_shape_matching,,,,,,0.0-3.0-61.0,77.0,"[77, 90]",7.0,,449,SNN,1000.0,"<div class = bigbox><div class = leftbox><img class = center src=""/static/experiments/stop_signal_with_shape_matching/images/7_green.png""></img></div><div class = distractorbox></div><div class = rightbox><img class = center src=""/static/experiments/stop_signal_with_shape_matching/images/7_white.png""></img></div></div>",,go,7.0,,158898,0.0,test_trial,128,stop-signal,
129,,,,,,,,,500.0,,,,,,,stop_signal_with_shape_matching,,,,,,0.0-3.0-62.0,-1.0,none,,,-1,,500.0,"<div class = bigbox><div class = leftbox><img class = center src=""/static/experiments/stop_signal_with_shape_matching/images/mask.png""></img><div class = centerbox><div class = fixation>+</div></div></div><div class = rightbox><img class = center src=""/static/experiments/stop_signal_with_shape_matching/images/mask.png""></img><div class = centerbox><div class = fixation>+</div></div></div></div>",,,,,159401,0.0,test_mask,129,poldrack-single-stim,
130,200.0,300.0,200.0,200.0,500.0,"<div class = starbox><img class = center src=""/static/experiments/stop_signal_with_shape_matching/images/stopSignal.png""></img></div>",go,,2000.0,,77.0,1.0,0.0,31.0,4,stop_signal_with_shape_matching,,,,,,0.0-3.0-63.0,77.0,"[77, 90]",4.0,,657,SSS,1000.0,"<div class = bigbox><div class = leftbox><img class = center src=""/static/experiments/stop_signal_with_shape_matching/images/4_green.png""></img></div><div class = distractorbox><img class = center src=""/static/experiments/stop_signal_with_shape_matching/images/4_red.png""></img></div><div class = rightbox><img class = center src=""/static/experiments/stop_signal_with_shape_matching/images/4_white.png""></img></div></div>",,go,4.0,,161403,0.0,test_trial,130,stop-signal,
131,,,,,,,,,500.0,,,,,,,stop_signal_with_shape_matching,,,,,,0.0-3.0-64.0,-1.0,none,,,-1,,500.0,"<div class = bigbox><div class = leftbox><img class = center src=""/static/experiments/stop_signal_with_shape_matching/images/mask.png""></img><div class = centerbox><div class = fixation>+</div></div></div><div class = rightbox><img class = center src=""/static/experiments/stop_signal_with_shape_matching/images/mask.png""></img><div class = centerbox><div class = fixation>+</div></div></div></div>",,,,,161907,0.0,test_mask,131,poldrack-single-stim,
132,200.0,300.0,200.0,200.0,500.0,"<div class = starbox><img class = center src=""/static/experiments/stop_signal_with_shape_matching/images/stopSignal.png""></img></div>",go,,2000.0,,90.0,1.0,0.0,32.0,9,stop_signal_with_shape_matching,,,,,,0.0-3.0-65.0,90.0,"[77, 90]",2.0,,439,DSD,1000.0,"<div class = bigbox><div class = leftbox><img class = center src=""/static/experiments/stop_signal_with_shape_matching/images/9_green.png""></img></div><div class = distractorbox><img class = center src=""/static/experiments/stop_signal_with_shape_matching/images/9_red.png""></img></div><div class = rightbox><img class = center src=""/static/experiments/stop_signal_with_shape_matching/images/2_white.png""></img></div></div>",,go,9.0,,163910,0.0,test_trial,132,stop-signal,
133,,,,,,,,,500.0,,,,,,,stop_signal_with_shape_matching,,,,,,0.0-3.0-66.0,-1.0,none,,,-1,,500.0,"<div class = bigbox><div class = leftbox><img class = center src=""/static/experiments/stop_signal_with_shape_matching/images/mask.png""></img><div class = centerbox><div class = fixation>+</div></div></div><div class = rightbox><img class = center src=""/static/experiments/stop_signal_with_shape_matching/images/mask.png""></img><div class = centerbox><div class = fixation>+</div></div></div></div>",,,,,164411,0.0,test_mask,133,poldrack-single-stim,
134,200.0,300.0,200.0,200.0,500.0,"<div class = starbox><img class = center src=""/static/experiments/stop_signal_with_shape_matching/images/stopSignal.png""></img></div>",go,,2000.0,,90.0,1.0,0.0,33.0,4,stop_signal_with_shape_matching,,,,,,0.0-3.0-67.0,90.0,"[77, 90]",1.0,,496,DSD,1000.0,"<div class = bigbox><div class = leftbox><img class = center src=""/static/experiments/stop_signal_with_shape_matching/images/4_green.png""></img></div><div class = distractorbox><img class = center src=""/static/experiments/stop_signal_with_shape_matching/images/4_red.png""></img></div><div class = rightbox><img class = center src=""/static/experiments/stop_signal_with_shape_matching/images/1_white.png""></img></div></div>",,go,4.0,,166413,0.0,test_trial,134,stop-signal,
135,,,,,,,,,500.0,,,,,,,stop_signal_with_shape_matching,,,,,,0.0-3.0-68.0,-1.0,none,,,-1,,500.0,"<div class = bigbox><div class = leftbox><img class = center src=""/static/experiments/stop_signal_with_shape_matching/images/mask.png""></img><div class = centerbox><div class = fixation>+</div></div></div><div class = rightbox><img class = center src=""/static/experiments/stop_signal_with_shape_matching/images/mask.png""></img><div class = centerbox><div class = fixation>+</div></div></div></div>",,,,,166915,0.0,test_mask,135,poldrack-single-stim,
136,200.0,300.0,200.0,300.0,500.0,"<div class = starbox><img class = center src=""/static/experiments/stop_signal_with_shape_matching/images/stopSignal.png""></img></div>",go,,2000.0,,77.0,1.0,0.0,34.0,none,stop_signal_with_shape_matching,,,,,,0.0-3.0-69.0,77.0,"[77, 90]",9.0,,417,SNN,1000.0,"<div class = bigbox><div class = leftbox><img class = center src=""/static/experiments/stop_signal_with_shape_matching/images/9_green.png""></img></div><div class = distractorbox></div><div class = rightbox><img class = center src=""/static/experiments/stop_signal_with_shape_matching/images/9_white.png""></img></div></div>",,go,9.0,,168916,0.0,test_trial,136,stop-signal,
137,,,,,,,,,500.0,,,,,,,stop_signal_with_shape_matching,,,,,,0.0-3.0-70.0,-1.0,none,,,-1,,500.0,"<div class = bigbox><div class = leftbox><img class = center src=""/static/experiments/stop_signal_with_shape_matching/images/mask.png""></img><div class = centerbox><div class = fixation>+</div></div></div><div class = rightbox><img class = center src=""/static/experiments/stop_signal_with_shape_matching/images/mask.png""></img><div class = centerbox><div class = fixation>+</div></div></div></div>",,,,,169418,0.0,test_mask,137,poldrack-single-stim,
138,200.0,300.0,200.0,300.0,500.0,"<div class = starbox><img class = center src=""/static/experiments/stop_signal_with_shape_matching/images/stopSignal.png""></img></div>",go,,2000.0,,90.0,1.0,0.0,35.0,none,stop_signal_with_shape_matching,,,,,,0.0-3.0-71.0,90.0,"[77, 90]",9.0,,457,DNN,1000.0,"<div class = bigbox><div class = leftbox><img class = center src=""/static/experiments/stop_signal_with_shape_matching/images/10_green.png""></img></div><div class = distractorbox></div><div class = rightbox><img class = center src=""/static/experiments/stop_signal_with_shape_matching/images/9_white.png""></img></div></div>",,go,10.0,,171420,0.0,test_trial,138,stop-signal,
139,,,,,,,,,500.0,,,,,,,stop_signal_with_shape_matching,,,,,,0.0-3.0-72.0,-1.0,none,,,-1,,500.0,"<div class = bigbox><div class = leftbox><img class = center src=""/static/experiments/stop_signal_with_shape_matching/images/mask.png""></img><div class = centerbox><div class = fixation>+</div></div></div><div class = rightbox><img class = center src=""/static/experiments/stop_signal_with_shape_matching/images/mask.png""></img><div class = centerbox><div class = fixation>+</div></div></div></div>",,,,,171923,0.0,test_mask,139,poldrack-single-stim,
140,200.0,300.0,200.0,200.0,500.0,"<div class = starbox><img class = center src=""/static/experiments/stop_signal_with_shape_matching/images/stopSignal.png""></img></div>",stop,,2000.0,,-1.0,1.0,0.0,36.0,1,stop_signal_with_shape_matching,,,,,,0.0-3.0-73.0,-1.0,"[77, 90]",5.0,,-1,DSD,1000.0,"<div class = bigbox><div class = leftbox><img class = center src=""/static/experiments/stop_signal_with_shape_matching/images/1_green.png""></img></div><div class = distractorbox><img class = center src=""/static/experiments/stop_signal_with_shape_matching/images/1_red.png""></img></div><div class = rightbox><img class = center src=""/static/experiments/stop_signal_with_shape_matching/images/5_white.png""></img></div></div>",1.0,stop,1.0,,173925,0.0,test_trial,140,stop-signal,
141,,,,,,,,,500.0,,,,,,,stop_signal_with_shape_matching,,,,,,0.0-3.0-74.0,-1.0,none,,,-1,,500.0,"<div class = bigbox><div class = leftbox><img class = center src=""/static/experiments/stop_signal_with_shape_matching/images/mask.png""></img><div class = centerbox><div class = fixation>+</div></div></div><div class = rightbox><img class = center src=""/static/experiments/stop_signal_with_shape_matching/images/mask.png""></img><div class = centerbox><div class = fixation>+</div></div></div></div>",,,,,174427,0.0,test_mask,141,poldrack-single-stim,
142,200.0,300.0,250.0,300.0,500.0,"<div class = starbox><img class = center src=""/static/experiments/stop_signal_with_shape_matching/images/stopSignal.png""></img></div>",go,,2000.0,,77.0,1.0,0.0,37.0,none,stop_signal_with_shape_matching,,,,,,0.0-3.0-75.0,77.0,"[77, 90]",2.0,,409,SNN,1000.0,"<div class = bigbox><div class = leftbox><img class = center src=""/static/experiments/stop_signal_with_shape_matching/images/2_green.png""></img></div><div class = distractorbox></div><div class = rightbox><img class = center src=""/static/experiments/stop_signal_with_shape_matching/images/2_white.png""></img></div></div>",,go,2.0,,176430,0.0,test_trial,142,stop-signal,
143,,,,,,,,,500.0,,,,,,,stop_signal_with_shape_matching,,,,,,0.0-3.0-76.0,-1.0,none,,,-1,,500.0,"<div class = bigbox><div class = leftbox><img class = center src=""/static/experiments/stop_signal_with_shape_matching/images/mask.png""></img><div class = centerbox><div class = fixation>+</div></div></div><div class = rightbox><img class = center src=""/static/experiments/stop_signal_with_shape_matching/images/mask.png""></img><div class = centerbox><div class = fixation>+</div></div></div></div>",,,,,176931,0.0,test_mask,143,poldrack-single-stim,
144,200.0,300.0,250.0,200.0,500.0,"<div class = starbox><img class = center src=""/static/experiments/stop_signal_with_shape_matching/images/stopSignal.png""></img></div>",go,,2000.0,,77.0,1.0,0.0,38.0,3,stop_signal_with_shape_matching,,,,,,0.0-3.0-77.0,77.0,"[77, 90]",2.0,,466,SDD,1000.0,"<div class = bigbox><div class = leftbox><img class = center src=""/static/experiments/stop_signal_with_shape_matching/images/2_green.png""></img></div><div class = distractorbox><img class = center src=""/static/experiments/stop_signal_with_shape_matching/images/3_red.png""></img></div><div class = rightbox><img class = center src=""/static/experiments/stop_signal_with_shape_matching/images/2_white.png""></img></div></div>",,go,2.0,,178934,0.0,test_trial,144,stop-signal,
145,,,,,,,,,500.0,,,,,,,stop_signal_with_shape_matching,,,,,,0.0-3.0-78.0,-1.0,none,,,-1,,500.0,"<div class = bigbox><div class = leftbox><img class = center src=""/static/experiments/stop_signal_with_shape_matching/images/mask.png""></img><div class = centerbox><div class = fixation>+</div></div></div><div class = rightbox><img class = center src=""/static/experiments/stop_signal_with_shape_matching/images/mask.png""></img><div class = centerbox><div class = fixation>+</div></div></div></div>",,,,,179435,0.0,test_mask,145,poldrack-single-stim,
146,200.0,300.0,250.0,300.0,500.0,"<div class = starbox><img class = center src=""/static/experiments/stop_signal_with_shape_matching/images/stopSignal.png""></img></div>",go,,2000.0,,77.0,1.0,0.0,39.0,none,stop_signal_with_shape_matching,,,,,,0.0-3.0-79.0,77.0,"[77, 90]",10.0,,450,SNN,1000.0,"<div class = bigbox><div class = leftbox><img class = center src=""/static/experiments/stop_signal_with_shape_matching/images/10_green.png""></img></div><div class = distractorbox></div><div class = rightbox><img class = center src=""/static/experiments/stop_signal_with_shape_matching/images/10_white.png""></img></div></div>",,go,10.0,,181437,0.0,test_trial,146,stop-signal,
147,,,,,,,,,500.0,,,,,,,stop_signal_with_shape_matching,,,,,,0.0-3.0-80.0,-1.0,none,,,-1,,500.0,"<div class = bigbox><div class = leftbox><img class = center src=""/static/experiments/stop_signal_with_shape_matching/images/mask.png""></img><div class = centerbox><div class = fixation>+</div></div></div><div class = rightbox><img class = center src=""/static/experiments/stop_signal_with_shape_matching/images/mask.png""></img><div class = centerbox><div class = fixation>+</div></div></div></div>",,,,,181940,0.0,test_mask,147,poldrack-single-stim,
