,SS_delay,SS_duration,SS_stimulus,SS_trial_type,att_check_percent,block_duration,correct,correct_response,correct_trial,current_block,current_trial,exp_id,final_accuracy,final_avg_rt,final_credit_var,final_missed_percent,final_responses_ok,go_acc,internal_node_id,key_press,possible_responses,responses,rt,stim,stim_duration,stimulus,stop_acc,stop_signal_condition,text,time_elapsed,timing_post_trial,trial_id,trial_index,trial_type,view_history
0,,,,,,3144.0,,,,,,stop_signal_single_task_network,,,,,,,0.0-0.0-0.0,13.0,[13],,3144,,3144.0,"<div class = bigbox><div class = picture_box><p class = block-text><font color=""white"">Welcome to the experiment. This experiment will take about 10 minutes. Press <i>enter</i> to begin.</font></p></div></div>",,,,3145,0.0,practice-no-stop-feedback,0,poldrack-single-stim,
1,,,,,,,,,,,,stop_signal_single_task_network,,,,,,,0.0-0.0-1.0,,,,48757,,,,,,,51904,,instruction,1,poldrack-instructions,"[{""page_index"":0,""viewing_time"":27980},{""page_index"":1,""viewing_time"":14554},{""page_index"":2,""viewing_time"":6222}]"
2,,,,,,500.0,,,,,,stop_signal_single_task_network,,,,,,,0.0-0.0-2.0,-1.0,none,,-1,,500.0,<div class = centerbox><div class = fixation>+</div></div>,,,,52407,0.0,prompt_fixation,2,poldrack-single-stim,
3,350.0,500.0,<img class = center src='/static/experiments/stop_signal_single_task_network/images/stopSignal.png'></img>,stop,,2000.0,,-1.0,0.0,0.0,1.0,stop_signal_single_task_network,,,,,,,0.0-0.0-3.0,90.0,"[90, 77]",,870,circle,1000.0,<div class = bigbox><div class = centerbox><div class = gng_number><div class = cue-text><img class = center src='/static/experiments/stop_signal_single_task_network/images/circle.png'></img></div>,0.0,stop,,54410,0.0,practice_trial,3,stop-signal,
4,,,,,,500.0,,,,,,stop_signal_single_task_network,,,,,,,0.0-0.0-4.0,-1.0,none,,-1,,500.0,"<div class = fb_box><div class = center-text><font size = 20>There was a star.</font></div></div><div class = prompt_box><p class = center-block-text style = ""font-size:16px; line-height:80%%;"">circle: Z key</p><p class = center-block-text style = ""font-size:16px; line-height:80%%;"">square: M key</p><p class = center-block-text style = ""font-size:16px; line-height:80%%;"">Do not respond if a star appears!</p></div>",,,,54913,0.0,practice-stop-feedback,4,poldrack-single-stim,
5,,,,,,500.0,,,,,,stop_signal_single_task_network,,,,,,,0.0-0.0-5.0,-1.0,none,,-1,,500.0,<div class = centerbox><div class = fixation>+</div></div>,,,,55415,0.0,prompt_fixation,5,poldrack-single-stim,
6,300.0,500.0,<img class = center src='/static/experiments/stop_signal_single_task_network/images/stopSignal.png'></img>,go,,2000.0,,90.0,1.0,0.0,2.0,stop_signal_single_task_network,,,,,,1.0,0.0-0.0-6.0,90.0,"[90, 77]",,642,circle,1000.0,<div class = bigbox><div class = centerbox><div class = gng_number><div class = cue-text><img class = center src='/static/experiments/stop_signal_single_task_network/images/circle.png'></img></div>,,go,,57417,0.0,practice_trial,6,stop-signal,
7,,,,,,500.0,,,,,,stop_signal_single_task_network,,,,,,,0.0-0.0-7.0,-1.0,none,,-1,,500.0,"<div class = fb_box><div class = center-text><font size = 20>Correct!</font></div></div><div class = prompt_box><p class = center-block-text style = ""font-size:16px; line-height:80%%;"">circle: Z key</p><p class = center-block-text style = ""font-size:16px; line-height:80%%;"">square: M key</p><p class = center-block-text style = ""font-size:16px; line-height:80%%;"">Do not respond if a star appears!</p></div>",,,,57919,0.0,practice-stop-feedback,7,poldrack-single-stim,
8,,,,,,500.0,,,,,,stop_signal_single_task_network,,,,,,,0.0-0.0-8.0,-1.0,none,,-1,,500.0,<div class = centerbox><div class = fixation>+</div></div>,,,,58421,0.0,prompt_fixation,8,poldrack-single-stim,
9,300.0,500.0,<img class = center src='/static/experiments/stop_signal_single_task_network/images/stopSignal.png'></img>,go,,2000.0,,77.0,1.0,0.0,3.0,stop_signal_single_task_network,,,,,,1.0,0.0-0.0-9.0,77.0,"[90, 77]",,514,square,1000.0,<div class = bigbox><div class = centerbox><div class = gng_number><div class = cue-text><img class = center src='/static/experiments/stop_signal_single_task_network/images/square.png'></img></div>,,go,,60425,0.0,practice_trial,9,stop-signal,
10,,,,,,500.0,,,,,,stop_signal_single_task_network,,,,,,,0.0-0.0-10.0,-1.0,none,,-1,,500.0,"<div class = fb_box><div class = center-text><font size = 20>Correct!</font></div></div><div class = prompt_box><p class = center-block-text style = ""font-size:16px; line-height:80%%;"">circle: Z key</p><p class = center-block-text style = ""font-size:16px; line-height:80%%;"">square: M key</p><p class = center-block-text style = ""font-size:16px; line-height:80%%;"">Do not respond if a star appears!</p></div>",,,,60928,0.0,practice-stop-feedback,10,poldrack-single-stim,
11,,,,,,500.0,,,,,,stop_signal_single_task_network,,,,,,,0.0-0.0-11.0,-1.0,none,,-1,,500.0,<div class = centerbox><div class = fixation>+</div></div>,,,,61431,0.0,prompt_fixation,11,poldrack-single-stim,
12,300.0,500.0,<img class = center src='/static/experiments/stop_signal_single_task_network/images/stopSignal.png'></img>,go,,2000.0,,77.0,1.0,0.0,4.0,stop_signal_single_task_network,,,,,,1.0,0.0-0.0-12.0,77.0,"[90, 77]",,732,square,1000.0,<div class = bigbox><div class = centerbox><div class = gng_number><div class = cue-text><img class = center src='/static/experiments/stop_signal_single_task_network/images/square.png'></img></div>,,go,,63434,0.0,practice_trial,12,stop-signal,
13,,,,,,500.0,,,,,,stop_signal_single_task_network,,,,,,,0.0-0.0-13.0,-1.0,none,,-1,,500.0,"<div class = fb_box><div class = center-text><font size = 20>Correct!</font></div></div><div class = prompt_box><p class = center-block-text style = ""font-size:16px; line-height:80%%;"">circle: Z key</p><p class = center-block-text style = ""font-size:16px; line-height:80%%;"">square: M key</p><p class = center-block-text style = ""font-size:16px; line-height:80%%;"">Do not respond if a star appears!</p></div>",,,,63937,0.0,practice-stop-feedback,13,poldrack-single-stim,
14,,,,,,500.0,,,,,,stop_signal_single_task_network,,,,,,,0.0-0.0-14.0,-1.0,none,,-1,,500.0,<div class = centerbox><div class = fixation>+</div></div>,,,,64439,0.0,prompt_fixation,14,poldrack-single-stim,
15,300.0,500.0,<img class = center src='/static/experiments/stop_signal_single_task_network/images/stopSignal.png'></img>,go,,2000.0,,77.0,1.0,0.0,5.0,stop_signal_single_task_network,,,,,,1.0,0.0-0.0-15.0,77.0,"[90, 77]",,585,square,1000.0,<div class = bigbox><div class = centerbox><div class = gng_number><div class = cue-text><img class = center src='/static/experiments/stop_signal_single_task_network/images/square.png'></img></div>,,go,,66442,0.0,practice_trial,15,stop-signal,
16,,,,,,500.0,,,,,,stop_signal_single_task_network,,,,,,,0.0-0.0-16.0,-1.0,none,,-1,,500.0,"<div class = fb_box><div class = center-text><font size = 20>Correct!</font></div></div><div class = prompt_box><p class = center-block-text style = ""font-size:16px; line-height:80%%;"">circle: Z key</p><p class = center-block-text style = ""font-size:16px; line-height:80%%;"">square: M key</p><p class = center-block-text style = ""font-size:16px; line-height:80%%;"">Do not respond if a star appears!</p></div>",,,,66945,0.0,practice-stop-feedback,16,poldrack-single-stim,
17,,,,,,500.0,,,,,,stop_signal_single_task_network,,,,,,,0.0-0.0-17.0,-1.0,none,,-1,,500.0,<div class = centerbox><div class = fixation>+</div></div>,,,,67446,0.0,prompt_fixation,17,poldrack-single-stim,
18,300.0,500.0,<img class = center src='/static/experiments/stop_signal_single_task_network/images/stopSignal.png'></img>,stop,,2000.0,,-1.0,1.0,0.0,6.0,stop_signal_single_task_network,,,,,,,0.0-0.0-18.0,-1.0,"[90, 77]",,-1,square,1000.0,<div class = bigbox><div class = centerbox><div class = gng_number><div class = cue-text><img class = center src='/static/experiments/stop_signal_single_task_network/images/square.png'></img></div>,1.0,stop,,69448,0.0,practice_trial,18,stop-signal,
19,,,,,,500.0,,,,,,stop_signal_single_task_network,,,,,,,0.0-0.0-19.0,-1.0,none,,-1,,500.0,"<div class = fb_box><div class = center-text><font size = 20>Correct!</font></div></div><div class = prompt_box><p class = center-block-text style = ""font-size:16px; line-height:80%%;"">circle: Z key</p><p class = center-block-text style = ""font-size:16px; line-height:80%%;"">square: M key</p><p class = center-block-text style = ""font-size:16px; line-height:80%%;"">Do not respond if a star appears!</p></div>",,,,69950,0.0,practice-stop-feedback,19,poldrack-single-stim,
20,,,,,,500.0,,,,,,stop_signal_single_task_network,,,,,,,0.0-0.0-20.0,-1.0,none,,-1,,500.0,<div class = centerbox><div class = fixation>+</div></div>,,,,70454,0.0,prompt_fixation,20,poldrack-single-stim,
21,350.0,500.0,<img class = center src='/static/experiments/stop_signal_single_task_network/images/stopSignal.png'></img>,stop,,2000.0,,-1.0,1.0,0.0,7.0,stop_signal_single_task_network,,,,,,,0.0-0.0-21.0,-1.0,"[90, 77]",,-1,square,1000.0,<div class = bigbox><div class = centerbox><div class = gng_number><div class = cue-text><img class = center src='/static/experiments/stop_signal_single_task_network/images/square.png'></img></div>,1.0,stop,,72456,0.0,practice_trial,21,stop-signal,
22,,,,,,500.0,,,,,,stop_signal_single_task_network,,,,,,,0.0-0.0-22.0,-1.0,none,,-1,,500.0,"<div class = fb_box><div class = center-text><font size = 20>Correct!</font></div></div><div class = prompt_box><p class = center-block-text style = ""font-size:16px; line-height:80%%;"">circle: Z key</p><p class = center-block-text style = ""font-size:16px; line-height:80%%;"">square: M key</p><p class = center-block-text style = ""font-size:16px; line-height:80%%;"">Do not respond if a star appears!</p></div>",,,,72959,0.0,practice-stop-feedback,22,poldrack-single-stim,
23,,,,,,500.0,,,,,,stop_signal_single_task_network,,,,,,,0.0-0.0-23.0,-1.0,none,,-1,,500.0,<div class = centerbox><div class = fixation>+</div></div>,,,,73461,0.0,prompt_fixation,23,poldrack-single-stim,
24,400.0,500.0,<img class = center src='/static/experiments/stop_signal_single_task_network/images/stopSignal.png'></img>,stop,,2000.0,,-1.0,1.0,0.0,8.0,stop_signal_single_task_network,,,,,,,0.0-0.0-24.0,-1.0,"[90, 77]",,-1,circle,1000.0,<div class = bigbox><div class = centerbox><div class = gng_number><div class = cue-text><img class = center src='/static/experiments/stop_signal_single_task_network/images/circle.png'></img></div>,1.0,stop,,75463,0.0,practice_trial,24,stop-signal,
25,,,,,,500.0,,,,,,stop_signal_single_task_network,,,,,,,0.0-0.0-25.0,-1.0,none,,-1,,500.0,"<div class = fb_box><div class = center-text><font size = 20>Correct!</font></div></div><div class = prompt_box><p class = center-block-text style = ""font-size:16px; line-height:80%%;"">circle: Z key</p><p class = center-block-text style = ""font-size:16px; line-height:80%%;"">square: M key</p><p class = center-block-text style = ""font-size:16px; line-height:80%%;"">Do not respond if a star appears!</p></div>",,,,75965,0.0,practice-stop-feedback,25,poldrack-single-stim,
26,,,,,,500.0,,,,,,stop_signal_single_task_network,,,,,,,0.0-0.0-26.0,-1.0,none,,-1,,500.0,<div class = centerbox><div class = fixation>+</div></div>,,,,76466,0.0,prompt_fixation,26,poldrack-single-stim,
27,450.0,500.0,<img class = center src='/static/experiments/stop_signal_single_task_network/images/stopSignal.png'></img>,go,,2000.0,,77.0,1.0,0.0,9.0,stop_signal_single_task_network,,,,,,1.0,0.0-0.0-27.0,77.0,"[90, 77]",,684,square,1000.0,<div class = bigbox><div class = centerbox><div class = gng_number><div class = cue-text><img class = center src='/static/experiments/stop_signal_single_task_network/images/square.png'></img></div>,,go,,78469,0.0,practice_trial,27,stop-signal,
28,,,,,,500.0,,,,,,stop_signal_single_task_network,,,,,,,0.0-0.0-28.0,-1.0,none,,-1,,500.0,"<div class = fb_box><div class = center-text><font size = 20>Correct!</font></div></div><div class = prompt_box><p class = center-block-text style = ""font-size:16px; line-height:80%%;"">circle: Z key</p><p class = center-block-text style = ""font-size:16px; line-height:80%%;"">square: M key</p><p class = center-block-text style = ""font-size:16px; line-height:80%%;"">Do not respond if a star appears!</p></div>",,,,78972,0.0,practice-stop-feedback,28,poldrack-single-stim,
29,,,,,,500.0,,,,,,stop_signal_single_task_network,,,,,,,0.0-0.0-29.0,-1.0,none,,-1,,500.0,<div class = centerbox><div class = fixation>+</div></div>,,,,79474,0.0,prompt_fixation,29,poldrack-single-stim,
30,450.0,500.0,<img class = center src='/static/experiments/stop_signal_single_task_network/images/stopSignal.png'></img>,go,,2000.0,,90.0,1.0,0.0,10.0,stop_signal_single_task_network,,,,,,1.0,0.0-0.0-30.0,90.0,"[90, 77]",,521,circle,1000.0,<div class = bigbox><div class = centerbox><div class = gng_number><div class = cue-text><img class = center src='/static/experiments/stop_signal_single_task_network/images/circle.png'></img></div>,,go,,81476,0.0,practice_trial,30,stop-signal,
31,,,,,,500.0,,,,,,stop_signal_single_task_network,,,,,,,0.0-0.0-31.0,-1.0,none,,-1,,500.0,"<div class = fb_box><div class = center-text><font size = 20>Correct!</font></div></div><div class = prompt_box><p class = center-block-text style = ""font-size:16px; line-height:80%%;"">circle: Z key</p><p class = center-block-text style = ""font-size:16px; line-height:80%%;"">square: M key</p><p class = center-block-text style = ""font-size:16px; line-height:80%%;"">Do not respond if a star appears!</p></div>",,,,81978,0.0,practice-stop-feedback,31,poldrack-single-stim,
32,,,,,,500.0,,,,,,stop_signal_single_task_network,,,,,,,0.0-0.0-32.0,-1.0,none,,-1,,500.0,<div class = centerbox><div class = fixation>+</div></div>,,,,82479,0.0,prompt_fixation,32,poldrack-single-stim,
33,450.0,500.0,<img class = center src='/static/experiments/stop_signal_single_task_network/images/stopSignal.png'></img>,stop,,2000.0,,-1.0,1.0,0.0,11.0,stop_signal_single_task_network,,,,,,,0.0-0.0-33.0,-1.0,"[90, 77]",,-1,square,1000.0,<div class = bigbox><div class = centerbox><div class = gng_number><div class = cue-text><img class = center src='/static/experiments/stop_signal_single_task_network/images/square.png'></img></div>,1.0,stop,,84482,0.0,practice_trial,33,stop-signal,
34,,,,,,500.0,,,,,,stop_signal_single_task_network,,,,,,,0.0-0.0-34.0,-1.0,none,,-1,,500.0,"<div class = fb_box><div class = center-text><font size = 20>Correct!</font></div></div><div class = prompt_box><p class = center-block-text style = ""font-size:16px; line-height:80%%;"">circle: Z key</p><p class = center-block-text style = ""font-size:16px; line-height:80%%;"">square: M key</p><p class = center-block-text style = ""font-size:16px; line-height:80%%;"">Do not respond if a star appears!</p></div>",,,,84984,0.0,practice-stop-feedback,34,poldrack-single-stim,
35,,,,,,500.0,,,,,,stop_signal_single_task_network,,,,,,,0.0-0.0-35.0,-1.0,none,,-1,,500.0,<div class = centerbox><div class = fixation>+</div></div>,,,,85485,0.0,prompt_fixation,35,poldrack-single-stim,
36,500.0,500.0,<img class = center src='/static/experiments/stop_signal_single_task_network/images/stopSignal.png'></img>,go,,2000.0,,77.0,1.0,0.0,12.0,stop_signal_single_task_network,,,,,,1.0,0.0-0.0-36.0,77.0,"[90, 77]",,939,square,1000.0,<div class = bigbox><div class = centerbox><div class = gng_number><div class = cue-text><img class = center src='/static/experiments/stop_signal_single_task_network/images/square.png'></img></div>,,go,,87487,0.0,practice_trial,36,stop-signal,
37,,,,,,500.0,,,,,,stop_signal_single_task_network,,,,,,,0.0-0.0-37.0,-1.0,none,,-1,,500.0,"<div class = fb_box><div class = center-text><font size = 20>Correct!</font></div></div><div class = prompt_box><p class = center-block-text style = ""font-size:16px; line-height:80%%;"">circle: Z key</p><p class = center-block-text style = ""font-size:16px; line-height:80%%;"">square: M key</p><p class = center-block-text style = ""font-size:16px; line-height:80%%;"">Do not respond if a star appears!</p></div>",,,,87990,0.0,practice-stop-feedback,37,poldrack-single-stim,
38,,,,,,500.0,,,,,,stop_signal_single_task_network,,,,,,,0.0-0.0-38.0,-1.0,none,,-1,,500.0,<div class = centerbox><div class = fixation>+</div></div>,,,,88494,0.0,prompt_fixation,38,poldrack-single-stim,
39,500.0,500.0,<img class = center src='/static/experiments/stop_signal_single_task_network/images/stopSignal.png'></img>,go,,2000.0,,77.0,1.0,0.0,13.0,stop_signal_single_task_network,,,,,,1.0,0.0-0.0-39.0,77.0,"[90, 77]",,882,square,1000.0,<div class = bigbox><div class = centerbox><div class = gng_number><div class = cue-text><img class = center src='/static/experiments/stop_signal_single_task_network/images/square.png'></img></div>,,go,,90497,0.0,practice_trial,39,stop-signal,
40,,,,,,500.0,,,,,,stop_signal_single_task_network,,,,,,,0.0-0.0-40.0,-1.0,none,,-1,,500.0,"<div class = fb_box><div class = center-text><font size = 20>Correct!</font></div></div><div class = prompt_box><p class = center-block-text style = ""font-size:16px; line-height:80%%;"">circle: Z key</p><p class = center-block-text style = ""font-size:16px; line-height:80%%;"">square: M key</p><p class = center-block-text style = ""font-size:16px; line-height:80%%;"">Do not respond if a star appears!</p></div>",,,,91000,0.0,practice-stop-feedback,40,poldrack-single-stim,
41,,,,,,500.0,,,,,,stop_signal_single_task_network,,,,,,,0.0-0.0-41.0,-1.0,none,,-1,,500.0,<div class = centerbox><div class = fixation>+</div></div>,,,,91501,0.0,prompt_fixation,41,poldrack-single-stim,
42,500.0,500.0,<img class = center src='/static/experiments/stop_signal_single_task_network/images/stopSignal.png'></img>,go,,2000.0,,90.0,1.0,0.0,14.0,stop_signal_single_task_network,,,,,,1.0,0.0-0.0-42.0,90.0,"[90, 77]",,904,circle,1000.0,<div class = bigbox><div class = centerbox><div class = gng_number><div class = cue-text><img class = center src='/static/experiments/stop_signal_single_task_network/images/circle.png'></img></div>,,go,,93505,0.0,practice_trial,42,stop-signal,
43,,,,,,500.0,,,,,,stop_signal_single_task_network,,,,,,,0.0-0.0-43.0,-1.0,none,,-1,,500.0,"<div class = fb_box><div class = center-text><font size = 20>Correct!</font></div></div><div class = prompt_box><p class = center-block-text style = ""font-size:16px; line-height:80%%;"">circle: Z key</p><p class = center-block-text style = ""font-size:16px; line-height:80%%;"">square: M key</p><p class = center-block-text style = ""font-size:16px; line-height:80%%;"">Do not respond if a star appears!</p></div>",,,,94008,0.0,practice-stop-feedback,43,poldrack-single-stim,
44,,,,,,500.0,,,,,,stop_signal_single_task_network,,,,,,,0.0-0.0-44.0,-1.0,none,,-1,,500.0,<div class = centerbox><div class = fixation>+</div></div>,,,,94510,0.0,prompt_fixation,44,poldrack-single-stim,
45,500.0,500.0,<img class = center src='/static/experiments/stop_signal_single_task_network/images/stopSignal.png'></img>,stop,,2000.0,,-1.0,1.0,0.0,15.0,stop_signal_single_task_network,,,,,,,0.0-0.0-45.0,-1.0,"[90, 77]",,-1,circle,1000.0,<div class = bigbox><div class = centerbox><div class = gng_number><div class = cue-text><img class = center src='/static/experiments/stop_signal_single_task_network/images/circle.png'></img></div>,1.0,stop,,96511,0.0,practice_trial,45,stop-signal,
46,,,,,,500.0,,,,,,stop_signal_single_task_network,,,,,,,0.0-0.0-46.0,-1.0,none,,-1,,500.0,"<div class = fb_box><div class = center-text><font size = 20>Correct!</font></div></div><div class = prompt_box><p class = center-block-text style = ""font-size:16px; line-height:80%%;"">circle: Z key</p><p class = center-block-text style = ""font-size:16px; line-height:80%%;"">square: M key</p><p class = center-block-text style = ""font-size:16px; line-height:80%%;"">Do not respond if a star appears!</p></div>",,,,97013,0.0,practice-stop-feedback,46,poldrack-single-stim,
47,,,,,,500.0,,,,,,stop_signal_single_task_network,,,,,,,0.0-0.0-47.0,-1.0,none,,-1,,500.0,<div class = centerbox><div class = fixation>+</div></div>,,,,97515,0.0,prompt_fixation,47,poldrack-single-stim,
48,550.0,500.0,<img class = center src='/static/experiments/stop_signal_single_task_network/images/stopSignal.png'></img>,stop,,2000.0,,-1.0,1.0,0.0,16.0,stop_signal_single_task_network,,,,,,,0.0-0.0-48.0,-1.0,"[90, 77]",,-1,square,1000.0,<div class = bigbox><div class = centerbox><div class = gng_number><div class = cue-text><img class = center src='/static/experiments/stop_signal_single_task_network/images/square.png'></img></div>,1.0,stop,,99517,0.0,practice_trial,48,stop-signal,
49,,,,,,500.0,,,,,,stop_signal_single_task_network,,,,,,,0.0-0.0-49.0,-1.0,none,,-1,,500.0,"<div class = fb_box><div class = center-text><font size = 20>Correct!</font></div></div><div class = prompt_box><p class = center-block-text style = ""font-size:16px; line-height:80%%;"">circle: Z key</p><p class = center-block-text style = ""font-size:16px; line-height:80%%;"">square: M key</p><p class = center-block-text style = ""font-size:16px; line-height:80%%;"">Do not respond if a star appears!</p></div>",,,,100020,0.0,practice-stop-feedback,49,poldrack-single-stim,
50,,,,,,500.0,,,,,,stop_signal_single_task_network,,,,,,,0.0-0.0-50.0,-1.0,none,,-1,,500.0,<div class = centerbox><div class = fixation>+</div></div>,,,,100522,0.0,prompt_fixation,50,poldrack-single-stim,
51,600.0,500.0,<img class = center src='/static/experiments/stop_signal_single_task_network/images/stopSignal.png'></img>,stop,,2000.0,,-1.0,0.0,0.0,17.0,stop_signal_single_task_network,,,,,,,0.0-0.0-51.0,90.0,"[90, 77]",,884,circle,1000.0,<div class = bigbox><div class = centerbox><div class = gng_number><div class = cue-text><img class = center src='/static/experiments/stop_signal_single_task_network/images/circle.png'></img></div>,0.0,stop,,102525,0.0,practice_trial,51,stop-signal,
52,,,,,,500.0,,,,,,stop_signal_single_task_network,,,,,,,0.0-0.0-52.0,-1.0,none,,-1,,500.0,"<div class = fb_box><div class = center-text><font size = 20>There was a star.</font></div></div><div class = prompt_box><p class = center-block-text style = ""font-size:16px; line-height:80%%;"">circle: Z key</p><p class = center-block-text style = ""font-size:16px; line-height:80%%;"">square: M key</p><p class = center-block-text style = ""font-size:16px; line-height:80%%;"">Do not respond if a star appears!</p></div>",,,,103027,0.0,practice-stop-feedback,52,poldrack-single-stim,
53,,,,,,500.0,,,,,,stop_signal_single_task_network,,,,,,,0.0-0.0-53.0,-1.0,none,,-1,,500.0,<div class = centerbox><div class = fixation>+</div></div>,,,,103530,0.0,prompt_fixation,53,poldrack-single-stim,
54,550.0,500.0,<img class = center src='/static/experiments/stop_signal_single_task_network/images/stopSignal.png'></img>,go,,2000.0,,90.0,1.0,0.0,18.0,stop_signal_single_task_network,,,,,,1.0,0.0-0.0-54.0,90.0,"[90, 77]",,940,circle,1000.0,<div class = bigbox><div class = centerbox><div class = gng_number><div class = cue-text><img class = center src='/static/experiments/stop_signal_single_task_network/images/circle.png'></img></div>,,go,,105532,0.0,practice_trial,54,stop-signal,
55,,,,,,500.0,,,,,,stop_signal_single_task_network,,,,,,,0.0-0.0-55.0,-1.0,none,,-1,,500.0,"<div class = fb_box><div class = center-text><font size = 20>Correct!</font></div></div><div class = prompt_box><p class = center-block-text style = ""font-size:16px; line-height:80%%;"">circle: Z key</p><p class = center-block-text style = ""font-size:16px; line-height:80%%;"">square: M key</p><p class = center-block-text style = ""font-size:16px; line-height:80%%;"">Do not respond if a star appears!</p></div>",,,,106034,0.0,practice-stop-feedback,55,poldrack-single-stim,
56,,,,,,500.0,,,,,,stop_signal_single_task_network,,,,,,,0.0-0.0-56.0,-1.0,none,,-1,,500.0,<div class = centerbox><div class = fixation>+</div></div>,,,,106537,0.0,prompt_fixation,56,poldrack-single-stim,
57,550.0,500.0,<img class = center src='/static/experiments/stop_signal_single_task_network/images/stopSignal.png'></img>,go,,2000.0,,90.0,1.0,0.0,19.0,stop_signal_single_task_network,,,,,,1.0,0.0-0.0-57.0,90.0,"[90, 77]",,1091,circle,1000.0,<div class = bigbox><div class = centerbox><div class = gng_number><div class = cue-text><img class = center src='/static/experiments/stop_signal_single_task_network/images/circle.png'></img></div>,,go,,108540,0.0,practice_trial,57,stop-signal,
58,,,,,,500.0,,,,,,stop_signal_single_task_network,,,,,,,0.0-0.0-58.0,-1.0,none,,-1,,500.0,"<div class = fb_box><div class = center-text><font size = 20>Correct!</font></div></div><div class = prompt_box><p class = center-block-text style = ""font-size:16px; line-height:80%%;"">circle: Z key</p><p class = center-block-text style = ""font-size:16px; line-height:80%%;"">square: M key</p><p class = center-block-text style = ""font-size:16px; line-height:80%%;"">Do not respond if a star appears!</p></div>",,,,109041,0.0,practice-stop-feedback,58,poldrack-single-stim,
59,,,,,,500.0,,,,,,stop_signal_single_task_network,,,,,,,0.0-0.0-59.0,-1.0,none,,-1,,500.0,<div class = centerbox><div class = fixation>+</div></div>,,,,109545,0.0,prompt_fixation,59,poldrack-single-stim,
60,550.0,500.0,<img class = center src='/static/experiments/stop_signal_single_task_network/images/stopSignal.png'></img>,stop,,2000.0,,-1.0,1.0,0.0,20.0,stop_signal_single_task_network,,,,,,,0.0-0.0-60.0,-1.0,"[90, 77]",,-1,square,1000.0,<div class = bigbox><div class = centerbox><div class = gng_number><div class = cue-text><img class = center src='/static/experiments/stop_signal_single_task_network/images/square.png'></img></div>,1.0,stop,,111547,0.0,practice_trial,60,stop-signal,
61,,,,,,500.0,,,,,,stop_signal_single_task_network,,,,,,,0.0-0.0-61.0,-1.0,none,,-1,,500.0,"<div class = fb_box><div class = center-text><font size = 20>Correct!</font></div></div><div class = prompt_box><p class = center-block-text style = ""font-size:16px; line-height:80%%;"">circle: Z key</p><p class = center-block-text style = ""font-size:16px; line-height:80%%;"">square: M key</p><p class = center-block-text style = ""font-size:16px; line-height:80%%;"">Do not respond if a star appears!</p></div>",,,,112049,0.0,practice-stop-feedback,61,poldrack-single-stim,
62,,,,,,500.0,,,,,,stop_signal_single_task_network,,,,,,,0.0-0.0-62.0,-1.0,none,,-1,,500.0,<div class = centerbox><div class = fixation>+</div></div>,,,,112552,0.0,prompt_fixation,62,poldrack-single-stim,
63,600.0,500.0,<img class = center src='/static/experiments/stop_signal_single_task_network/images/stopSignal.png'></img>,go,,2000.0,,77.0,1.0,0.0,21.0,stop_signal_single_task_network,,,,,,1.0,0.0-0.0-63.0,77.0,"[90, 77]",,1105,square,1000.0,<div class = bigbox><div class = centerbox><div class = gng_number><div class = cue-text><img class = center src='/static/experiments/stop_signal_single_task_network/images/square.png'></img></div>,,go,,114554,0.0,practice_trial,63,stop-signal,
64,,,,,,500.0,,,,,,stop_signal_single_task_network,,,,,,,0.0-0.0-64.0,-1.0,none,,-1,,500.0,"<div class = fb_box><div class = center-text><font size = 20>Correct!</font></div></div><div class = prompt_box><p class = center-block-text style = ""font-size:16px; line-height:80%%;"">circle: Z key</p><p class = center-block-text style = ""font-size:16px; line-height:80%%;"">square: M key</p><p class = center-block-text style = ""font-size:16px; line-height:80%%;"">Do not respond if a star appears!</p></div>",,,,115057,0.0,practice-stop-feedback,64,poldrack-single-stim,
65,,,,,,500.0,,,,,,stop_signal_single_task_network,,,,,,,0.0-0.0-65.0,-1.0,none,,-1,,500.0,<div class = centerbox><div class = fixation>+</div></div>,,,,115560,0.0,prompt_fixation,65,poldrack-single-stim,
66,600.0,500.0,<img class = center src='/static/experiments/stop_signal_single_task_network/images/stopSignal.png'></img>,go,,2000.0,,90.0,1.0,0.0,22.0,stop_signal_single_task_network,,,,,,1.0,0.0-0.0-66.0,90.0,"[90, 77]",,919,circle,1000.0,<div class = bigbox><div class = centerbox><div class = gng_number><div class = cue-text><img class = center src='/static/experiments/stop_signal_single_task_network/images/circle.png'></img></div>,,go,,117562,0.0,practice_trial,66,stop-signal,
67,,,,,,500.0,,,,,,stop_signal_single_task_network,,,,,,,0.0-0.0-67.0,-1.0,none,,-1,,500.0,"<div class = fb_box><div class = center-text><font size = 20>Correct!</font></div></div><div class = prompt_box><p class = center-block-text style = ""font-size:16px; line-height:80%%;"">circle: Z key</p><p class = center-block-text style = ""font-size:16px; line-height:80%%;"">square: M key</p><p class = center-block-text style = ""font-size:16px; line-height:80%%;"">Do not respond if a star appears!</p></div>",,,,118064,0.0,practice-stop-feedback,67,poldrack-single-stim,
68,,,,,,500.0,,,,,,stop_signal_single_task_network,,,,,,,0.0-0.0-68.0,-1.0,none,,-1,,500.0,<div class = centerbox><div class = fixation>+</div></div>,,,,118565,0.0,prompt_fixation,68,poldrack-single-stim,
69,600.0,500.0,<img class = center src='/static/experiments/stop_signal_single_task_network/images/stopSignal.png'></img>,go,,2000.0,,90.0,1.0,0.0,23.0,stop_signal_single_task_network,,,,,,1.0,0.0-0.0-69.0,90.0,"[90, 77]",,1076,circle,1000.0,<div class = bigbox><div class = centerbox><div class = gng_number><div class = cue-text><img class = center src='/static/experiments/stop_signal_single_task_network/images/circle.png'></img></div>,,go,,120567,0.0,practice_trial,69,stop-signal,
70,,,,,,500.0,,,,,,stop_signal_single_task_network,,,,,,,0.0-0.0-70.0,-1.0,none,,-1,,500.0,"<div class = fb_box><div class = center-text><font size = 20>Correct!</font></div></div><div class = prompt_box><p class = center-block-text style = ""font-size:16px; line-height:80%%;"">circle: Z key</p><p class = center-block-text style = ""font-size:16px; line-height:80%%;"">square: M key</p><p class = center-block-text style = ""font-size:16px; line-height:80%%;"">Do not respond if a star appears!</p></div>",,,,121069,0.0,practice-stop-feedback,70,poldrack-single-stim,
71,,,,,,500.0,,,,,,stop_signal_single_task_network,,,,,,,0.0-0.0-71.0,-1.0,none,,-1,,500.0,<div class = centerbox><div class = fixation>+</div></div>,,,,121571,0.0,prompt_fixation,71,poldrack-single-stim,
72,600.0,500.0,<img class = center src='/static/experiments/stop_signal_single_task_network/images/stopSignal.png'></img>,go,,2000.0,,77.0,1.0,0.0,24.0,stop_signal_single_task_network,,,,,,1.0,0.0-0.0-72.0,77.0,"[90, 77]",,935,square,1000.0,<div class = bigbox><div class = centerbox><div class = gng_number><div class = cue-text><img class = center src='/static/experiments/stop_signal_single_task_network/images/square.png'></img></div>,,go,,123574,0.0,practice_trial,72,stop-signal,
73,,,,,,500.0,,,,,,stop_signal_single_task_network,,,,,,,0.0-0.0-73.0,-1.0,none,,-1,,500.0,"<div class = fb_box><div class = center-text><font size = 20>Correct!</font></div></div><div class = prompt_box><p class = center-block-text style = ""font-size:16px; line-height:80%%;"">circle: Z key</p><p class = center-block-text style = ""font-size:16px; line-height:80%%;"">square: M key</p><p class = center-block-text style = ""font-size:16px; line-height:80%%;"">Do not respond if a star appears!</p></div>",,,,124078,0.0,practice-stop-feedback,73,poldrack-single-stim,
74,,,,,,2649.0,,,,,,stop_signal_single_task_network,,,,,,,0.0-1.0,13.0,[13],,2649,,2649.0,"<div class = bigbox><div class = picture_box><p class = block-text><font color=""white""><br>Please take this time to read your feedback and to take a short break. Press enter to continue.</p><p class = block-text>Done with this practice.</font></p></div></div>",,,,126730,0.0,practice-no-stop-feedback,74,poldrack-single-stim,
75,,,,,,2712.0,,,,,,stop_signal_single_task_network,,,,,,,0.0-2.0,13.0,[13],,2712,,2712.0,"<div class = centerbox><p class = block-text>We will now begin the test portion.</p><p class = block-text>You will see a shape on every trial. Please respond to each shape as quickly and accurately as possible!</p><p class = block-text>If the shape is a circle, press the Z key.</p><p class = block-text>If the shape is a square, press the M key.</p><p class = block-text>Do not respond if you see a star.</p><p class = block-text>You will no longer receive the rule prompt, so remember the instructions before you continue. Press Enter to begin.</p></div>",,,,129443,0.0,test_intro,75,poldrack-single-stim,
76,,,,,,2168.0,,,,,,stop_signal_single_task_network,,,,,,,0.0-3.0-0.0,13.0,[13],,2168,,2168.0,"<div class = bigbox><div class = picture_box><p class = block-text><font color=""white"">We will now start the test session. Please concentrate on responding quickly and accurately to each stimulus. Press Enter to begin.</font></p></div></div>",,,,131613,0.0,practice-no-stop-feedback,76,poldrack-single-stim,
77,,,,,,4096.0,True,40.0,,,,stop_signal_single_task_network,,,,,,,0.0-3.0-1.0-0.0,40.0,[],,4096,,4096.0,<p>Press the arrow key that indicates the direction of the floor when standing.</p>,,,,135710,200.0,attention_check,77,attention-check,
78,,,,,,500.0,,,,,,stop_signal_single_task_network,,,,,,,0.0-3.0-2.0,-1.0,none,,-1,,500.0,<div class = centerbox><div class = fixation>+</div></div>,,,,136413,0.0,fixation,78,poldrack-single-stim,
79,600.0,500.0,<img class = center src='/static/experiments/stop_signal_single_task_network/images/stopSignal.png'></img>,go,,2000.0,,77.0,1.0,0.0,1.0,stop_signal_single_task_network,,,,,,1.0,0.0-3.0-3.0,77.0,"[90, 77]",,1002,square,1000.0,<div class = bigbox><div class = centerbox><div class = gng_number><div class = cue-text><img class = center src='/static/experiments/stop_signal_single_task_network/images/square.png'></img></div>,,go,,138415,0.0,test_trial,79,stop-signal,
80,,,,,,500.0,,,,,,stop_signal_single_task_network,,,,,,,0.0-3.0-4.0,-1.0,none,,-1,,500.0,<div class = centerbox><div class = fixation>+</div></div>,,,,138917,0.0,fixation,80,poldrack-single-stim,
81,600.0,500.0,<img class = center src='/static/experiments/stop_signal_single_task_network/images/stopSignal.png'></img>,stop,,2000.0,,-1.0,1.0,0.0,2.0,stop_signal_single_task_network,,,,,,,0.0-3.0-5.0,-1.0,"[90, 77]",,-1,square,1000.0,<div class = bigbox><div class = centerbox><div class = gng_number><div class = cue-text><img class = center src='/static/experiments/stop_signal_single_task_network/images/square.png'></img></div>,1.0,stop,,140919,0.0,test_trial,81,stop-signal,
82,,,,,,500.0,,,,,,stop_signal_single_task_network,,,,,,,0.0-3.0-6.0,-1.0,none,,-1,,500.0,<div class = centerbox><div class = fixation>+</div></div>,,,,141424,0.0,fixation,82,poldrack-single-stim,
83,650.0,500.0,<img class = center src='/static/experiments/stop_signal_single_task_network/images/stopSignal.png'></img>,stop,,2000.0,,-1.0,0.0,0.0,3.0,stop_signal_single_task_network,,,,,,,0.0-3.0-7.0,90.0,"[90, 77]",,835,circle,1000.0,<div class = bigbox><div class = centerbox><div class = gng_number><div class = cue-text><img class = center src='/static/experiments/stop_signal_single_task_network/images/circle.png'></img></div>,0.0,stop,,143426,0.0,test_trial,83,stop-signal,
84,,,,,,500.0,,,,,,stop_signal_single_task_network,,,,,,,0.0-3.0-8.0,-1.0,none,,-1,,500.0,<div class = centerbox><div class = fixation>+</div></div>,,,,143928,0.0,fixation,84,poldrack-single-stim,
85,600.0,500.0,<img class = center src='/static/experiments/stop_signal_single_task_network/images/stopSignal.png'></img>,go,,2000.0,,90.0,1.0,0.0,4.0,stop_signal_single_task_network,,,,,,1.0,0.0-3.0-9.0,90.0,"[90, 77]",,1018,circle,1000.0,<div class = bigbox><div class = centerbox><div class = gng_number><div class = cue-text><img class = center src='/static/experiments/stop_signal_single_task_network/images/circle.png'></img></div>,,go,,145931,0.0,test_trial,85,stop-signal,
86,,,,,,500.0,,,,,,stop_signal_single_task_network,,,,,,,0.0-3.0-10.0,-1.0,none,,-1,,500.0,<div class = centerbox><div class = fixation>+</div></div>,,,,146432,0.0,fixation,86,poldrack-single-stim,
87,600.0,500.0,<img class = center src='/static/experiments/stop_signal_single_task_network/images/stopSignal.png'></img>,go,,2000.0,,90.0,1.0,0.0,5.0,stop_signal_single_task_network,,,,,,1.0,0.0-3.0-11.0,90.0,"[90, 77]",,980,circle,1000.0,<div class = bigbox><div class = centerbox><div class = gng_number><div class = cue-text><img class = center src='/static/experiments/stop_signal_single_task_network/images/circle.png'></img></div>,,go,,148434,0.0,test_trial,87,stop-signal,
88,,,,,,500.0,,,,,,stop_signal_single_task_network,,,,,,,0.0-3.0-12.0,-1.0,none,,-1,,500.0,<div class = centerbox><div class = fixation>+</div></div>,,,,148936,0.0,fixation,88,poldrack-single-stim,
89,600.0,500.0,<img class = center src='/static/experiments/stop_signal_single_task_network/images/stopSignal.png'></img>,go,,2000.0,,77.0,1.0,0.0,6.0,stop_signal_single_task_network,,,,,,1.0,0.0-3.0-13.0,77.0,"[90, 77]",,988,square,1000.0,<div class = bigbox><div class = centerbox><div class = gng_number><div class = cue-text><img class = center src='/static/experiments/stop_signal_single_task_network/images/square.png'></img></div>,,go,,150937,0.0,test_trial,89,stop-signal,
90,,,,,,500.0,,,,,,stop_signal_single_task_network,,,,,,,0.0-3.0-14.0,-1.0,none,,-1,,500.0,<div class = centerbox><div class = fixation>+</div></div>,,,,151440,0.0,fixation,90,poldrack-single-stim,
91,600.0,500.0,<img class = center src='/static/experiments/stop_signal_single_task_network/images/stopSignal.png'></img>,stop,,2000.0,,-1.0,1.0,0.0,7.0,stop_signal_single_task_network,,,,,,,0.0-3.0-15.0,-1.0,"[90, 77]",,-1,circle,1000.0,<div class = bigbox><div class = centerbox><div class = gng_number><div class = cue-text><img class = center src='/static/experiments/stop_signal_single_task_network/images/circle.png'></img></div>,1.0,stop,,153442,0.0,test_trial,91,stop-signal,
92,,,,,,500.0,,,,,,stop_signal_single_task_network,,,,,,,0.0-3.0-16.0,-1.0,none,,-1,,500.0,<div class = centerbox><div class = fixation>+</div></div>,,,,153943,0.0,fixation,92,poldrack-single-stim,
93,650.0,500.0,<img class = center src='/static/experiments/stop_signal_single_task_network/images/stopSignal.png'></img>,stop,,2000.0,,-1.0,1.0,0.0,8.0,stop_signal_single_task_network,,,,,,,0.0-3.0-17.0,-1.0,"[90, 77]",,-1,circle,1000.0,<div class = bigbox><div class = centerbox><div class = gng_number><div class = cue-text><img class = center src='/static/experiments/stop_signal_single_task_network/images/circle.png'></img></div>,1.0,stop,,155944,0.0,test_trial,93,stop-signal,
94,,,,,,500.0,,,,,,stop_signal_single_task_network,,,,,,,0.0-3.0-18.0,-1.0,none,,-1,,500.0,<div class = centerbox><div class = fixation>+</div></div>,,,,156448,0.0,fixation,94,poldrack-single-stim,
95,700.0,500.0,<img class = center src='/static/experiments/stop_signal_single_task_network/images/stopSignal.png'></img>,stop,,2000.0,,-1.0,0.0,0.0,9.0,stop_signal_single_task_network,,,,,,,0.0-3.0-19.0,77.0,"[90, 77]",,883,square,1000.0,<div class = bigbox><div class = centerbox><div class = gng_number><div class = cue-text><img class = center src='/static/experiments/stop_signal_single_task_network/images/square.png'></img></div>,0.0,stop,,158450,0.0,test_trial,95,stop-signal,
96,,,,,,500.0,,,,,,stop_signal_single_task_network,,,,,,,0.0-3.0-20.0,-1.0,none,,-1,,500.0,<div class = centerbox><div class = fixation>+</div></div>,,,,158951,0.0,fixation,96,poldrack-single-stim,
97,650.0,500.0,<img class = center src='/static/experiments/stop_signal_single_task_network/images/stopSignal.png'></img>,go,,2000.0,,77.0,1.0,0.0,10.0,stop_signal_single_task_network,,,,,,1.0,0.0-3.0-21.0,77.0,"[90, 77]",,1011,square,1000.0,<div class = bigbox><div class = centerbox><div class = gng_number><div class = cue-text><img class = center src='/static/experiments/stop_signal_single_task_network/images/square.png'></img></div>,,go,,160954,0.0,test_trial,97,stop-signal,
98,,,,,,500.0,,,,,,stop_signal_single_task_network,,,,,,,0.0-3.0-22.0,-1.0,none,,-1,,500.0,<div class = centerbox><div class = fixation>+</div></div>,,,,161458,0.0,fixation,98,poldrack-single-stim,
99,650.0,500.0,<img class = center src='/static/experiments/stop_signal_single_task_network/images/stopSignal.png'></img>,stop,,2000.0,,-1.0,1.0,0.0,11.0,stop_signal_single_task_network,,,,,,,0.0-3.0-23.0,-1.0,"[90, 77]",,-1,square,1000.0,<div class = bigbox><div class = centerbox><div class = gng_number><div class = cue-text><img class = center src='/static/experiments/stop_signal_single_task_network/images/square.png'></img></div>,1.0,stop,,163460,0.0,test_trial,99,stop-signal,
100,,,,,,500.0,,,,,,stop_signal_single_task_network,,,,,,,0.0-3.0-24.0,-1.0,none,,-1,,500.0,<div class = centerbox><div class = fixation>+</div></div>,,,,163962,0.0,fixation,100,poldrack-single-stim,
101,700.0,500.0,<img class = center src='/static/experiments/stop_signal_single_task_network/images/stopSignal.png'></img>,go,,2000.0,,77.0,1.0,0.0,12.0,stop_signal_single_task_network,,,,,,1.0,0.0-3.0-25.0,77.0,"[90, 77]",,1171,square,1000.0,<div class = bigbox><div class = centerbox><div class = gng_number><div class = cue-text><img class = center src='/static/experiments/stop_signal_single_task_network/images/square.png'></img></div>,,go,,165964,0.0,test_trial,101,stop-signal,
102,,,,,,500.0,,,,,,stop_signal_single_task_network,,,,,,,0.0-3.0-26.0,-1.0,none,,-1,,500.0,<div class = centerbox><div class = fixation>+</div></div>,,,,166466,0.0,fixation,102,poldrack-single-stim,
103,700.0,500.0,<img class = center src='/static/experiments/stop_signal_single_task_network/images/stopSignal.png'></img>,stop,,2000.0,,-1.0,1.0,0.0,13.0,stop_signal_single_task_network,,,,,,,0.0-3.0-27.0,-1.0,"[90, 77]",,-1,square,1000.0,<div class = bigbox><div class = centerbox><div class = gng_number><div class = cue-text><img class = center src='/static/experiments/stop_signal_single_task_network/images/square.png'></img></div>,1.0,stop,,168468,0.0,test_trial,103,stop-signal,
104,,,,,,500.0,,,,,,stop_signal_single_task_network,,,,,,,0.0-3.0-28.0,-1.0,none,,-1,,500.0,<div class = centerbox><div class = fixation>+</div></div>,,,,168971,0.0,fixation,104,poldrack-single-stim,
105,750.0,500.0,<img class = center src='/static/experiments/stop_signal_single_task_network/images/stopSignal.png'></img>,stop,,2000.0,,-1.0,1.0,0.0,14.0,stop_signal_single_task_network,,,,,,,0.0-3.0-29.0,-1.0,"[90, 77]",,-1,circle,1000.0,<div class = bigbox><div class = centerbox><div class = gng_number><div class = cue-text><img class = center src='/static/experiments/stop_signal_single_task_network/images/circle.png'></img></div>,1.0,stop,,170973,0.0,test_trial,105,stop-signal,
106,,,,,,500.0,,,,,,stop_signal_single_task_network,,,,,,,0.0-3.0-30.0,-1.0,none,,-1,,500.0,<div class = centerbox><div class = fixation>+</div></div>,,,,171474,0.0,fixation,106,poldrack-single-stim,
107,800.0,500.0,<img class = center src='/static/experiments/stop_signal_single_task_network/images/stopSignal.png'></img>,go,,2000.0,,90.0,1.0,0.0,15.0,stop_signal_single_task_network,,,,,,1.0,0.0-3.0-31.0,90.0,"[90, 77]",,1015,circle,1000.0,<div class = bigbox><div class = centerbox><div class = gng_number><div class = cue-text><img class = center src='/static/experiments/stop_signal_single_task_network/images/circle.png'></img></div>,,go,,173476,0.0,test_trial,107,stop-signal,
108,,,,,,500.0,,,,,,stop_signal_single_task_network,,,,,,,0.0-3.0-32.0,-1.0,none,,-1,,500.0,<div class = centerbox><div class = fixation>+</div></div>,,,,173978,0.0,fixation,108,poldrack-single-stim,
109,800.0,500.0,<img class = center src='/static/experiments/stop_signal_single_task_network/images/stopSignal.png'></img>,stop,,2000.0,,-1.0,1.0,0.0,16.0,stop_signal_single_task_network,,,,,,,0.0-3.0-33.0,-1.0,"[90, 77]",,-1,circle,1000.0,<div class = bigbox><div class = centerbox><div class = gng_number><div class = cue-text><img class = center src='/static/experiments/stop_signal_single_task_network/images/circle.png'></img></div>,1.0,stop,,175980,0.0,test_trial,109,stop-signal,
110,,,,,,500.0,,,,,,stop_signal_single_task_network,,,,,,,0.0-3.0-34.0,-1.0,none,,-1,,500.0,<div class = centerbox><div class = fixation>+</div></div>,,,,176482,0.0,fixation,110,poldrack-single-stim,
111,850.0,500.0,<img class = center src='/static/experiments/stop_signal_single_task_network/images/stopSignal.png'></img>,go,,2000.0,,90.0,1.0,0.0,17.0,stop_signal_single_task_network,,,,,,1.0,0.0-3.0-35.0,90.0,"[90, 77]",,523,circle,1000.0,<div class = bigbox><div class = centerbox><div class = gng_number><div class = cue-text><img class = center src='/static/experiments/stop_signal_single_task_network/images/circle.png'></img></div>,,go,,178484,0.0,test_trial,111,stop-signal,
112,,,,,,500.0,,,,,,stop_signal_single_task_network,,,,,,,0.0-3.0-36.0,-1.0,none,,-1,,500.0,<div class = centerbox><div class = fixation>+</div></div>,,,,178986,0.0,fixation,112,poldrack-single-stim,
113,850.0,500.0,<img class = center src='/static/experiments/stop_signal_single_task_network/images/stopSignal.png'></img>,go,,2000.0,,77.0,0.0,0.0,18.0,stop_signal_single_task_network,,,,,,0.0,0.0-3.0-37.0,-1.0,"[90, 77]",,-1,square,1000.0,<div class = bigbox><div class = centerbox><div class = gng_number><div class = cue-text><img class = center src='/static/experiments/stop_signal_single_task_network/images/square.png'></img></div>,,go,,180989,0.0,test_trial,113,stop-signal,
114,,,,,,500.0,,,,,,stop_signal_single_task_network,,,,,,,0.0-3.0-38.0,-1.0,none,,-1,,500.0,<div class = centerbox><div class = fixation>+</div></div>,,,,181491,0.0,fixation,114,poldrack-single-stim,
115,850.0,500.0,<img class = center src='/static/experiments/stop_signal_single_task_network/images/stopSignal.png'></img>,go,,2000.0,,90.0,1.0,0.0,19.0,stop_signal_single_task_network,,,,,,1.0,0.0-3.0-39.0,90.0,"[90, 77]",,746,circle,1000.0,<div class = bigbox><div class = centerbox><div class = gng_number><div class = cue-text><img class = center src='/static/experiments/stop_signal_single_task_network/images/circle.png'></img></div>,,go,,183492,0.0,test_trial,115,stop-signal,
116,,,,,,500.0,,,,,,stop_signal_single_task_network,,,,,,,0.0-3.0-40.0,-1.0,none,,-1,,500.0,<div class = centerbox><div class = fixation>+</div></div>,,,,183994,0.0,fixation,116,poldrack-single-stim,
117,850.0,500.0,<img class = center src='/static/experiments/stop_signal_single_task_network/images/stopSignal.png'></img>,go,,2000.0,,90.0,1.0,0.0,20.0,stop_signal_single_task_network,,,,,,1.0,0.0-3.0-41.0,90.0,"[90, 77]",,917,circle,1000.0,<div class = bigbox><div class = centerbox><div class = gng_number><div class = cue-text><img class = center src='/static/experiments/stop_signal_single_task_network/images/circle.png'></img></div>,,go,,185996,0.0,test_trial,117,stop-signal,
118,,,,,,500.0,,,,,,stop_signal_single_task_network,,,,,,,0.0-3.0-42.0,-1.0,none,,-1,,500.0,<div class = centerbox><div class = fixation>+</div></div>,,,,186499,0.0,fixation,118,poldrack-single-stim,
119,850.0,500.0,<img class = center src='/static/experiments/stop_signal_single_task_network/images/stopSignal.png'></img>,go,,2000.0,,77.0,1.0,0.0,21.0,stop_signal_single_task_network,,,,,,1.0,0.0-3.0-43.0,77.0,"[90, 77]",,1030,square,1000.0,<div class = bigbox><div class = centerbox><div class = gng_number><div class = cue-text><img class = center src='/static/experiments/stop_signal_single_task_network/images/square.png'></img></div>,,go,,188502,0.0,test_trial,119,stop-signal,
120,,,,,,500.0,,,,,,stop_signal_single_task_network,,,,,,,0.0-3.0-44.0,-1.0,none,,-1,,500.0,<div class = centerbox><div class = fixation>+</div></div>,,,,189004,0.0,fixation,120,poldrack-single-stim,
121,850.0,500.0,<img class = center src='/static/experiments/stop_signal_single_task_network/images/stopSignal.png'></img>,go,,2000.0,,77.0,1.0,0.0,22.0,stop_signal_single_task_network,,,,,,1.0,0.0-3.0-45.0,77.0,"[90, 77]",,1106,square,1000.0,<div class = bigbox><div class = centerbox><div class = gng_number><div class = cue-text><img class = center src='/static/experiments/stop_signal_single_task_network/images/square.png'></img></div>,,go,,191007,0.0,test_trial,121,stop-signal,
122,,,,,,500.0,,,,,,stop_signal_single_task_network,,,,,,,0.0-3.0-46.0,-1.0,none,,-1,,500.0,<div class = centerbox><div class = fixation>+</div></div>,,,,191509,0.0,fixation,122,poldrack-single-stim,
123,850.0,500.0,<img class = center src='/static/experiments/stop_signal_single_task_network/images/stopSignal.png'></img>,go,,2000.0,,90.0,1.0,0.0,23.0,stop_signal_single_task_network,,,,,,1.0,0.0-3.0-47.0,90.0,"[90, 77]",,798,circle,1000.0,<div class = bigbox><div class = centerbox><div class = gng_number><div class = cue-text><img class = center src='/static/experiments/stop_signal_single_task_network/images/circle.png'></img></div>,,go,,193511,0.0,test_trial,123,stop-signal,
124,,,,,,500.0,,,,,,stop_signal_single_task_network,,,,,,,0.0-3.0-48.0,-1.0,none,,-1,,500.0,<div class = centerbox><div class = fixation>+</div></div>,,,,194013,0.0,fixation,124,poldrack-single-stim,
125,850.0,500.0,<img class = center src='/static/experiments/stop_signal_single_task_network/images/stopSignal.png'></img>,stop,,2000.0,,-1.0,0.0,0.0,24.0,stop_signal_single_task_network,,,,,,,0.0-3.0-49.0,90.0,"[90, 77]",,910,circle,1000.0,<div class = bigbox><div class = centerbox><div class = gng_number><div class = cue-text><img class = center src='/static/experiments/stop_signal_single_task_network/images/circle.png'></img></div>,0.0,stop,,196015,0.0,test_trial,125,stop-signal,
126,,,,,,500.0,,,,,,stop_signal_single_task_network,,,,,,,0.0-3.0-50.0,-1.0,none,,-1,,500.0,<div class = centerbox><div class = fixation>+</div></div>,,,,196518,0.0,fixation,126,poldrack-single-stim,
127,800.0,500.0,<img class = center src='/static/experiments/stop_signal_single_task_network/images/stopSignal.png'></img>,go,,2000.0,,90.0,1.0,0.0,25.0,stop_signal_single_task_network,,,,,,1.0,0.0-3.0-51.0,90.0,"[90, 77]",,1738,circle,1000.0,<div class = bigbox><div class = centerbox><div class = gng_number><div class = cue-text><img class = center src='/static/experiments/stop_signal_single_task_network/images/circle.png'></img></div>,,go,,198521,0.0,test_trial,127,stop-signal,
128,,,,,,500.0,,,,,,stop_signal_single_task_network,,,,,,,0.0-3.0-52.0,-1.0,none,,-1,,500.0,<div class = centerbox><div class = fixation>+</div></div>,,,,199025,0.0,fixation,128,poldrack-single-stim,
129,800.0,500.0,<img class = center src='/static/experiments/stop_signal_single_task_network/images/stopSignal.png'></img>,go,,2000.0,,90.0,1.0,0.0,26.0,stop_signal_single_task_network,,,,,,1.0,0.0-3.0-53.0,90.0,"[90, 77]",,715,circle,1000.0,<div class = bigbox><div class = centerbox><div class = gng_number><div class = cue-text><img class = center src='/static/experiments/stop_signal_single_task_network/images/circle.png'></img></div>,,go,,201027,0.0,test_trial,129,stop-signal,
130,,,,,,500.0,,,,,,stop_signal_single_task_network,,,,,,,0.0-3.0-54.0,-1.0,none,,-1,,500.0,<div class = centerbox><div class = fixation>+</div></div>,,,,201529,0.0,fixation,130,poldrack-single-stim,
131,800.0,500.0,<img class = center src='/static/experiments/stop_signal_single_task_network/images/stopSignal.png'></img>,go,,2000.0,,77.0,1.0,0.0,27.0,stop_signal_single_task_network,,,,,,1.0,0.0-3.0-55.0,77.0,"[90, 77]",,1246,square,1000.0,<div class = bigbox><div class = centerbox><div class = gng_number><div class = cue-text><img class = center src='/static/experiments/stop_signal_single_task_network/images/square.png'></img></div>,,go,,203531,0.0,test_trial,131,stop-signal,
132,,,,,,500.0,,,,,,stop_signal_single_task_network,,,,,,,0.0-3.0-56.0,-1.0,none,,-1,,500.0,<div class = centerbox><div class = fixation>+</div></div>,,,,204034,0.0,fixation,132,poldrack-single-stim,
133,800.0,500.0,<img class = center src='/static/experiments/stop_signal_single_task_network/images/stopSignal.png'></img>,go,,2000.0,,77.0,1.0,0.0,28.0,stop_signal_single_task_network,,,,,,1.0,0.0-3.0-57.0,77.0,"[90, 77]",,865,square,1000.0,<div class = bigbox><div class = centerbox><div class = gng_number><div class = cue-text><img class = center src='/static/experiments/stop_signal_single_task_network/images/square.png'></img></div>,,go,,206036,0.0,test_trial,133,stop-signal,
134,,,,,,500.0,,,,,,stop_signal_single_task_network,,,,,,,0.0-3.0-58.0,-1.0,none,,-1,,500.0,<div class = centerbox><div class = fixation>+</div></div>,,,,206540,0.0,fixation,134,poldrack-single-stim,
135,800.0,500.0,<img class = center src='/static/experiments/stop_signal_single_task_network/images/stopSignal.png'></img>,go,,2000.0,,77.0,1.0,0.0,29.0,stop_signal_single_task_network,,,,,,1.0,0.0-3.0-59.0,77.0,"[90, 77]",,627,square,1000.0,<div class = bigbox><div class = centerbox><div class = gng_number><div class = cue-text><img class = center src='/static/experiments/stop_signal_single_task_network/images/square.png'></img></div>,,go,,208543,0.0,test_trial,135,stop-signal,
136,,,,,,500.0,,,,,,stop_signal_single_task_network,,,,,,,0.0-3.0-60.0,-1.0,none,,-1,,500.0,<div class = centerbox><div class = fixation>+</div></div>,,,,209045,0.0,fixation,136,poldrack-single-stim,
137,800.0,500.0,<img class = center src='/static/experiments/stop_signal_single_task_network/images/stopSignal.png'></img>,go,,2000.0,,90.0,1.0,0.0,30.0,stop_signal_single_task_network,,,,,,1.0,0.0-3.0-61.0,90.0,"[90, 77]",,634,circle,1000.0,<div class = bigbox><div class = centerbox><div class = gng_number><div class = cue-text><img class = center src='/static/experiments/stop_signal_single_task_network/images/circle.png'></img></div>,,go,,211047,0.0,test_trial,137,stop-signal,
138,,,,,,500.0,,,,,,stop_signal_single_task_network,,,,,,,0.0-3.0-62.0,-1.0,none,,-1,,500.0,<div class = centerbox><div class = fixation>+</div></div>,,,,211550,0.0,fixation,138,poldrack-single-stim,
139,800.0,500.0,<img class = center src='/static/experiments/stop_signal_single_task_network/images/stopSignal.png'></img>,stop,,2000.0,,-1.0,0.0,0.0,31.0,stop_signal_single_task_network,,,,,,,0.0-3.0-63.0,77.0,"[90, 77]",,850,square,1000.0,<div class = bigbox><div class = centerbox><div class = gng_number><div class = cue-text><img class = center src='/static/experiments/stop_signal_single_task_network/images/square.png'></img></div>,0.0,stop,,213552,0.0,test_trial,139,stop-signal,
140,,,,,,500.0,,,,,,stop_signal_single_task_network,,,,,,,0.0-3.0-64.0,-1.0,none,,-1,,500.0,<div class = centerbox><div class = fixation>+</div></div>,,,,214054,0.0,fixation,140,poldrack-single-stim,
141,750.0,500.0,<img class = center src='/static/experiments/stop_signal_single_task_network/images/stopSignal.png'></img>,stop,,2000.0,,-1.0,1.0,0.0,32.0,stop_signal_single_task_network,,,,,,,0.0-3.0-65.0,-1.0,"[90, 77]",,-1,square,1000.0,<div class = bigbox><div class = centerbox><div class = gng_number><div class = cue-text><img class = center src='/static/experiments/stop_signal_single_task_network/images/square.png'></img></div>,1.0,stop,,216056,0.0,test_trial,141,stop-signal,
142,,,,,,500.0,,,,,,stop_signal_single_task_network,,,,,,,0.0-3.0-66.0,-1.0,none,,-1,,500.0,<div class = centerbox><div class = fixation>+</div></div>,,,,216557,0.0,fixation,142,poldrack-single-stim,
143,800.0,500.0,<img class = center src='/static/experiments/stop_signal_single_task_network/images/stopSignal.png'></img>,go,,2000.0,,90.0,1.0,0.0,33.0,stop_signal_single_task_network,,,,,,1.0,0.0-3.0-67.0,90.0,"[90, 77]",,975,circle,1000.0,<div class = bigbox><div class = centerbox><div class = gng_number><div class = cue-text><img class = center src='/static/experiments/stop_signal_single_task_network/images/circle.png'></img></div>,,go,,218559,0.0,test_trial,143,stop-signal,
144,,,,,,500.0,,,,,,stop_signal_single_task_network,,,,,,,0.0-3.0-68.0,-1.0,none,,-1,,500.0,<div class = centerbox><div class = fixation>+</div></div>,,,,219061,0.0,fixation,144,poldrack-single-stim,
145,800.0,500.0,<img class = center src='/static/experiments/stop_signal_single_task_network/images/stopSignal.png'></img>,go,,2000.0,,90.0,1.0,0.0,34.0,stop_signal_single_task_network,,,,,,1.0,0.0-3.0-69.0,90.0,"[90, 77]",,891,circle,1000.0,<div class = bigbox><div class = centerbox><div class = gng_number><div class = cue-text><img class = center src='/static/experiments/stop_signal_single_task_network/images/circle.png'></img></div>,,go,,221064,0.0,test_trial,145,stop-signal,
146,,,,,,500.0,,,,,,stop_signal_single_task_network,,,,,,,0.0-3.0-70.0,-1.0,none,,-1,,500.0,<div class = centerbox><div class = fixation>+</div></div>,,,,221566,0.0,fixation,146,poldrack-single-stim,
147,800.0,500.0,<img class = center src='/static/experiments/stop_signal_single_task_network/images/stopSignal.png'></img>,stop,,2000.0,,-1.0,1.0,0.0,35.0,stop_signal_single_task_network,,,,,,,0.0-3.0-71.0,-1.0,"[90, 77]",,-1,square,1000.0,<div class = bigbox><div class = centerbox><div class = gng_number><div class = cue-text><img class = center src='/static/experiments/stop_signal_single_task_network/images/square.png'></img></div>,1.0,stop,,223569,0.0,test_trial,147,stop-signal,
148,,,,,,500.0,,,,,,stop_signal_single_task_network,,,,,,,0.0-3.0-72.0,-1.0,none,,-1,,500.0,<div class = centerbox><div class = fixation>+</div></div>,,,,224071,0.0,fixation,148,poldrack-single-stim,
149,850.0,500.0,<img class = center src='/static/experiments/stop_signal_single_task_network/images/stopSignal.png'></img>,go,,2000.0,,90.0,1.0,0.0,36.0,stop_signal_single_task_network,,,,,,1.0,0.0-3.0-73.0,90.0,"[90, 77]",,1100,circle,1000.0,<div class = bigbox><div class = centerbox><div class = gng_number><div class = cue-text><img class = center src='/static/experiments/stop_signal_single_task_network/images/circle.png'></img></div>,,go,,226074,0.0,test_trial,149,stop-signal,
150,,,,,,500.0,,,,,,stop_signal_single_task_network,,,,,,,0.0-3.0-74.0,-1.0,none,,-1,,500.0,<div class = centerbox><div class = fixation>+</div></div>,,,,226576,0.0,fixation,150,poldrack-single-stim,
151,850.0,500.0,<img class = center src='/static/experiments/stop_signal_single_task_network/images/stopSignal.png'></img>,stop,,2000.0,,-1.0,0.0,0.0,37.0,stop_signal_single_task_network,,,,,,,0.0-3.0-75.0,90.0,"[90, 77]",,1042,circle,1000.0,<div class = bigbox><div class = centerbox><div class = gng_number><div class = cue-text><img class = center src='/static/experiments/stop_signal_single_task_network/images/circle.png'></img></div>,0.0,stop,,228578,0.0,test_trial,151,stop-signal,
152,,,,,,500.0,,,,,,stop_signal_single_task_network,,,,,,,0.0-3.0-76.0,-1.0,none,,-1,,500.0,<div class = centerbox><div class = fixation>+</div></div>,,,,229082,0.0,fixation,152,poldrack-single-stim,
153,800.0,500.0,<img class = center src='/static/experiments/stop_signal_single_task_network/images/stopSignal.png'></img>,stop,,2000.0,,-1.0,1.0,0.0,38.0,stop_signal_single_task_network,,,,,,,0.0-3.0-77.0,-1.0,"[90, 77]",,-1,circle,1000.0,<div class = bigbox><div class = centerbox><div class = gng_number><div class = cue-text><img class = center src='/static/experiments/stop_signal_single_task_network/images/circle.png'></img></div>,1.0,stop,,231084,0.0,test_trial,153,stop-signal,
154,,,,,,500.0,,,,,,stop_signal_single_task_network,,,,,,,0.0-3.0-78.0,-1.0,none,,-1,,500.0,<div class = centerbox><div class = fixation>+</div></div>,,,,231588,0.0,fixation,154,poldrack-single-stim,
155,850.0,500.0,<img class = center src='/static/experiments/stop_signal_single_task_network/images/stopSignal.png'></img>,stop,,2000.0,,-1.0,1.0,0.0,39.0,stop_signal_single_task_network,,,,,,,0.0-3.0-79.0,-1.0,"[90, 77]",,-1,square,1000.0,<div class = bigbox><div class = centerbox><div class = gng_number><div class = cue-text><img class = center src='/static/experiments/stop_signal_single_task_network/images/square.png'></img></div>,1.0,stop,,233590,0.0,test_trial,155,stop-signal,
156,,,,,,500.0,,,,,,stop_signal_single_task_network,,,,,,,0.0-3.0-80.0,-1.0,none,,-1,,500.0,<div class = centerbox><div class = fixation>+</div></div>,,,,234092,0.0,fixation,156,poldrack-single-stim,
157,900.0,500.0,<img class = center src='/static/experiments/stop_signal_single_task_network/images/stopSignal.png'></img>,go,,2000.0,,77.0,1.0,0.0,40.0,stop_signal_single_task_network,,,,,,1.0,0.0-3.0-81.0,77.0,"[90, 77]",,1140,square,1000.0,<div class = bigbox><div class = centerbox><div class = gng_number><div class = cue-text><img class = center src='/static/experiments/stop_signal_single_task_network/images/square.png'></img></div>,,go,,236094,0.0,test_trial,157,stop-signal,
158,,,,,,500.0,,,,,,stop_signal_single_task_network,,,,,,,0.0-3.0-82.0,-1.0,none,,-1,,500.0,<div class = centerbox><div class = fixation>+</div></div>,,,,236596,0.0,fixation,158,poldrack-single-stim,
159,900.0,500.0,<img class = center src='/static/experiments/stop_signal_single_task_network/images/stopSignal.png'></img>,go,,2000.0,,90.0,1.0,0.0,41.0,stop_signal_single_task_network,,,,,,1.0,0.0-3.0-83.0,90.0,"[90, 77]",,1026,circle,1000.0,<div class = bigbox><div class = centerbox><div class = gng_number><div class = cue-text><img class = center src='/static/experiments/stop_signal_single_task_network/images/circle.png'></img></div>,,go,,238599,0.0,test_trial,159,stop-signal,
160,,,,,,500.0,,,,,,stop_signal_single_task_network,,,,,,,0.0-3.0-84.0,-1.0,none,,-1,,500.0,<div class = centerbox><div class = fixation>+</div></div>,,,,239101,0.0,fixation,160,poldrack-single-stim,
161,900.0,500.0,<img class = center src='/static/experiments/stop_signal_single_task_network/images/stopSignal.png'></img>,go,,2000.0,,90.0,1.0,0.0,42.0,stop_signal_single_task_network,,,,,,1.0,0.0-3.0-85.0,90.0,"[90, 77]",,999,circle,1000.0,<div class = bigbox><div class = centerbox><div class = gng_number><div class = cue-text><img class = center src='/static/experiments/stop_signal_single_task_network/images/circle.png'></img></div>,,go,,241103,0.0,test_trial,161,stop-signal,
162,,,,,,500.0,,,,,,stop_signal_single_task_network,,,,,,,0.0-3.0-86.0,-1.0,none,,-1,,500.0,<div class = centerbox><div class = fixation>+</div></div>,,,,241605,0.0,fixation,162,poldrack-single-stim,
163,900.0,500.0,<img class = center src='/static/experiments/stop_signal_single_task_network/images/stopSignal.png'></img>,go,,2000.0,,77.0,1.0,0.0,43.0,stop_signal_single_task_network,,,,,,1.0,0.0-3.0-87.0,77.0,"[90, 77]",,921,square,1000.0,<div class = bigbox><div class = centerbox><div class = gng_number><div class = cue-text><img class = center src='/static/experiments/stop_signal_single_task_network/images/square.png'></img></div>,,go,,243607,0.0,test_trial,163,stop-signal,
164,,,,,,500.0,,,,,,stop_signal_single_task_network,,,,,,,0.0-3.0-88.0,-1.0,none,,-1,,500.0,<div class = centerbox><div class = fixation>+</div></div>,,,,244108,0.0,fixation,164,poldrack-single-stim,
165,900.0,500.0,<img class = center src='/static/experiments/stop_signal_single_task_network/images/stopSignal.png'></img>,go,,2000.0,,77.0,1.0,0.0,44.0,stop_signal_single_task_network,,,,,,1.0,0.0-3.0-89.0,77.0,"[90, 77]",,881,square,1000.0,<div class = bigbox><div class = centerbox><div class = gng_number><div class = cue-text><img class = center src='/static/experiments/stop_signal_single_task_network/images/square.png'></img></div>,,go,,246110,0.0,test_trial,165,stop-signal,
166,,,,,,500.0,,,,,,stop_signal_single_task_network,,,,,,,0.0-3.0-90.0,-1.0,none,,-1,,500.0,<div class = centerbox><div class = fixation>+</div></div>,,,,246612,0.0,fixation,166,poldrack-single-stim,
167,900.0,500.0,<img class = center src='/static/experiments/stop_signal_single_task_network/images/stopSignal.png'></img>,go,,2000.0,,77.0,1.0,0.0,45.0,stop_signal_single_task_network,,,,,,1.0,0.0-3.0-91.0,77.0,"[90, 77]",,1036,square,1000.0,<div class = bigbox><div class = centerbox><div class = gng_number><div class = cue-text><img class = center src='/static/experiments/stop_signal_single_task_network/images/square.png'></img></div>,,go,,248615,0.0,test_trial,167,stop-signal,
168,,,,,,500.0,,,,,,stop_signal_single_task_network,,,,,,,0.0-3.0-92.0,-1.0,none,,-1,,500.0,<div class = centerbox><div class = fixation>+</div></div>,,,,249117,0.0,fixation,168,poldrack-single-stim,
169,900.0,500.0,<img class = center src='/static/experiments/stop_signal_single_task_network/images/stopSignal.png'></img>,go,,2000.0,,77.0,1.0,0.0,46.0,stop_signal_single_task_network,,,,,,1.0,0.0-3.0-93.0,77.0,"[90, 77]",,974,square,1000.0,<div class = bigbox><div class = centerbox><div class = gng_number><div class = cue-text><img class = center src='/static/experiments/stop_signal_single_task_network/images/square.png'></img></div>,,go,,251120,0.0,test_trial,169,stop-signal,
170,,,,,,500.0,,,,,,stop_signal_single_task_network,,,,,,,0.0-3.0-94.0,-1.0,none,,-1,,500.0,<div class = centerbox><div class = fixation>+</div></div>,,,,251623,0.0,fixation,170,poldrack-single-stim,
171,900.0,500.0,<img class = center src='/static/experiments/stop_signal_single_task_network/images/stopSignal.png'></img>,go,,2000.0,,90.0,1.0,0.0,47.0,stop_signal_single_task_network,,,,,,1.0,0.0-3.0-95.0,90.0,"[90, 77]",,863,circle,1000.0,<div class = bigbox><div class = centerbox><div class = gng_number><div class = cue-text><img class = center src='/static/experiments/stop_signal_single_task_network/images/circle.png'></img></div>,,go,,253625,0.0,test_trial,171,stop-signal,
172,,,,,,500.0,,,,,,stop_signal_single_task_network,,,,,,,0.0-3.0-96.0,-1.0,none,,-1,,500.0,<div class = centerbox><div class = fixation>+</div></div>,,,,254127,0.0,fixation,172,poldrack-single-stim,
173,900.0,500.0,<img class = center src='/static/experiments/stop_signal_single_task_network/images/stopSignal.png'></img>,go,,2000.0,,77.0,1.0,0.0,48.0,stop_signal_single_task_network,,,,,,1.0,0.0-3.0-97.0,77.0,"[90, 77]",,1119,square,1000.0,<div class = bigbox><div class = centerbox><div class = gng_number><div class = cue-text><img class = center src='/static/experiments/stop_signal_single_task_network/images/square.png'></img></div>,,go,,256128,0.0,test_trial,173,stop-signal,
174,,,,,,89417.0,,,,,,stop_signal_single_task_network,,,,,,,0.0-3.1-0.1,13.0,[13],,89417,,89417.0,"<div class = bigbox><div class = picture_box><p class = block-text><font color=""white""><br>Please take this time to read your feedback and to take a short break. Press enter to continue.</p><p class = block-text>You have completed: 1 out of 3 blocks of trials.</font></p></div></div>",,,,345552,0.0,practice-no-stop-feedback,174,poldrack-single-stim,
175,,,,,,8629.0,True,54.0,,,,stop_signal_single_task_network,,,,,,,0.0-3.1-1.1-0.1,54.0,[],,8629,,8629.0,<p>Press the number corresponding to the number of sides that a cube has.<p>,,,,354182,200.0,attention_check,175,attention-check,
176,,,,,,500.0,,,,,,stop_signal_single_task_network,,,,,,,0.0-3.1-2.1,-1.0,none,,-1,,500.0,<div class = centerbox><div class = fixation>+</div></div>,,,,354885,0.0,fixation,176,poldrack-single-stim,
177,900.0,500.0,<img class = center src='/static/experiments/stop_signal_single_task_network/images/stopSignal.png'></img>,go,,2000.0,,77.0,1.0,1.0,1.0,stop_signal_single_task_network,,,,,,1.0,0.0-3.1-3.1,77.0,"[90, 77]",,852,square,1000.0,<div class = bigbox><div class = centerbox><div class = gng_number><div class = cue-text><img class = center src='/static/experiments/stop_signal_single_task_network/images/square.png'></img></div>,,go,,356888,0.0,test_trial,177,stop-signal,
178,,,,,,500.0,,,,,,stop_signal_single_task_network,,,,,,,0.0-3.1-4.1,-1.0,none,,-1,,500.0,<div class = centerbox><div class = fixation>+</div></div>,,,,357389,0.0,fixation,178,poldrack-single-stim,
179,900.0,500.0,<img class = center src='/static/experiments/stop_signal_single_task_network/images/stopSignal.png'></img>,go,,2000.0,,77.0,1.0,1.0,2.0,stop_signal_single_task_network,,,,,,1.0,0.0-3.1-5.1,77.0,"[90, 77]",,1001,square,1000.0,<div class = bigbox><div class = centerbox><div class = gng_number><div class = cue-text><img class = center src='/static/experiments/stop_signal_single_task_network/images/square.png'></img></div>,,go,,359392,0.0,test_trial,179,stop-signal,
180,,,,,,500.0,,,,,,stop_signal_single_task_network,,,,,,,0.0-3.1-6.1,-1.0,none,,-1,,500.0,<div class = centerbox><div class = fixation>+</div></div>,,,,359895,0.0,fixation,180,poldrack-single-stim,
181,900.0,500.0,<img class = center src='/static/experiments/stop_signal_single_task_network/images/stopSignal.png'></img>,stop,,2000.0,,-1.0,0.0,1.0,3.0,stop_signal_single_task_network,,,,,,,0.0-3.1-7.1,90.0,"[90, 77]",,861,circle,1000.0,<div class = bigbox><div class = centerbox><div class = gng_number><div class = cue-text><img class = center src='/static/experiments/stop_signal_single_task_network/images/circle.png'></img></div>,0.0,stop,,361897,0.0,test_trial,181,stop-signal,
182,,,,,,500.0,,,,,,stop_signal_single_task_network,,,,,,,0.0-3.1-8.1,-1.0,none,,-1,,500.0,<div class = centerbox><div class = fixation>+</div></div>,,,,362399,0.0,fixation,182,poldrack-single-stim,
183,850.0,500.0,<img class = center src='/static/experiments/stop_signal_single_task_network/images/stopSignal.png'></img>,stop,,2000.0,,-1.0,0.0,1.0,4.0,stop_signal_single_task_network,,,,,,,0.0-3.1-9.1,90.0,"[90, 77]",,1025,circle,1000.0,<div class = bigbox><div class = centerbox><div class = gng_number><div class = cue-text><img class = center src='/static/experiments/stop_signal_single_task_network/images/circle.png'></img></div>,0.0,stop,,364401,0.0,test_trial,183,stop-signal,
184,,,,,,500.0,,,,,,stop_signal_single_task_network,,,,,,,0.0-3.1-10.1,-1.0,none,,-1,,500.0,<div class = centerbox><div class = fixation>+</div></div>,,,,364903,0.0,fixation,184,poldrack-single-stim,
185,800.0,500.0,<img class = center src='/static/experiments/stop_signal_single_task_network/images/stopSignal.png'></img>,go,,2000.0,,90.0,1.0,1.0,5.0,stop_signal_single_task_network,,,,,,1.0,0.0-3.1-11.1,90.0,"[90, 77]",,1203,circle,1000.0,<div class = bigbox><div class = centerbox><div class = gng_number><div class = cue-text><img class = center src='/static/experiments/stop_signal_single_task_network/images/circle.png'></img></div>,,go,,366905,0.0,test_trial,185,stop-signal,
186,,,,,,500.0,,,,,,stop_signal_single_task_network,,,,,,,0.0-3.1-12.1,-1.0,none,,-1,,500.0,<div class = centerbox><div class = fixation>+</div></div>,,,,367408,0.0,fixation,186,poldrack-single-stim,
187,800.0,500.0,<img class = center src='/static/experiments/stop_signal_single_task_network/images/stopSignal.png'></img>,go,,2000.0,,90.0,1.0,1.0,6.0,stop_signal_single_task_network,,,,,,1.0,0.0-3.1-13.1,90.0,"[90, 77]",,1221,circle,1000.0,<div class = bigbox><div class = centerbox><div class = gng_number><div class = cue-text><img class = center src='/static/experiments/stop_signal_single_task_network/images/circle.png'></img></div>,,go,,369411,0.0,test_trial,187,stop-signal,
188,,,,,,500.0,,,,,,stop_signal_single_task_network,,,,,,,0.0-3.1-14.1,-1.0,none,,-1,,500.0,<div class = centerbox><div class = fixation>+</div></div>,,,,369913,0.0,fixation,188,poldrack-single-stim,
189,800.0,500.0,<img class = center src='/static/experiments/stop_signal_single_task_network/images/stopSignal.png'></img>,stop,,2000.0,,-1.0,1.0,1.0,7.0,stop_signal_single_task_network,,,,,,,0.0-3.1-15.1,-1.0,"[90, 77]",,-1,square,1000.0,<div class = bigbox><div class = centerbox><div class = gng_number><div class = cue-text><img class = center src='/static/experiments/stop_signal_single_task_network/images/square.png'></img></div>,1.0,stop,,371915,0.0,test_trial,189,stop-signal,
190,,,,,,500.0,,,,,,stop_signal_single_task_network,,,,,,,0.0-3.1-16.1,-1.0,none,,-1,,500.0,<div class = centerbox><div class = fixation>+</div></div>,,,,372418,0.0,fixation,190,poldrack-single-stim,
191,850.0,500.0,<img class = center src='/static/experiments/stop_signal_single_task_network/images/stopSignal.png'></img>,stop,,2000.0,,-1.0,1.0,1.0,8.0,stop_signal_single_task_network,,,,,,,0.0-3.1-17.1,-1.0,"[90, 77]",,-1,circle,1000.0,<div class = bigbox><div class = centerbox><div class = gng_number><div class = cue-text><img class = center src='/static/experiments/stop_signal_single_task_network/images/circle.png'></img></div>,1.0,stop,,374420,0.0,test_trial,191,stop-signal,
192,,,,,,500.0,,,,,,stop_signal_single_task_network,,,,,,,0.0-3.1-18.1,-1.0,none,,-1,,500.0,<div class = centerbox><div class = fixation>+</div></div>,,,,374922,0.0,fixation,192,poldrack-single-stim,
193,900.0,500.0,<img class = center src='/static/experiments/stop_signal_single_task_network/images/stopSignal.png'></img>,stop,,2000.0,,-1.0,0.0,1.0,9.0,stop_signal_single_task_network,,,,,,,0.0-3.1-19.1,90.0,"[90, 77]",,982,circle,1000.0,<div class = bigbox><div class = centerbox><div class = gng_number><div class = cue-text><img class = center src='/static/experiments/stop_signal_single_task_network/images/circle.png'></img></div>,0.0,stop,,376924,0.0,test_trial,193,stop-signal,
194,,,,,,500.0,,,,,,stop_signal_single_task_network,,,,,,,0.0-3.1-20.1,-1.0,none,,-1,,500.0,<div class = centerbox><div class = fixation>+</div></div>,,,,377426,0.0,fixation,194,poldrack-single-stim,
195,850.0,500.0,<img class = center src='/static/experiments/stop_signal_single_task_network/images/stopSignal.png'></img>,stop,,2000.0,,-1.0,1.0,1.0,10.0,stop_signal_single_task_network,,,,,,,0.0-3.1-21.1,-1.0,"[90, 77]",,-1,circle,1000.0,<div class = bigbox><div class = centerbox><div class = gng_number><div class = cue-text><img class = center src='/static/experiments/stop_signal_single_task_network/images/circle.png'></img></div>,1.0,stop,,379428,0.0,test_trial,195,stop-signal,
196,,,,,,500.0,,,,,,stop_signal_single_task_network,,,,,,,0.0-3.1-22.1,-1.0,none,,-1,,500.0,<div class = centerbox><div class = fixation>+</div></div>,,,,379931,0.0,fixation,196,poldrack-single-stim,
197,900.0,500.0,<img class = center src='/static/experiments/stop_signal_single_task_network/images/stopSignal.png'></img>,go,,2000.0,,77.0,1.0,1.0,11.0,stop_signal_single_task_network,,,,,,1.0,0.0-3.1-23.1,77.0,"[90, 77]",,1166,square,1000.0,<div class = bigbox><div class = centerbox><div class = gng_number><div class = cue-text><img class = center src='/static/experiments/stop_signal_single_task_network/images/square.png'></img></div>,,go,,381934,0.0,test_trial,197,stop-signal,
198,,,,,,500.0,,,,,,stop_signal_single_task_network,,,,,,,0.0-3.1-24.1,-1.0,none,,-1,,500.0,<div class = centerbox><div class = fixation>+</div></div>,,,,382436,0.0,fixation,198,poldrack-single-stim,
199,900.0,500.0,<img class = center src='/static/experiments/stop_signal_single_task_network/images/stopSignal.png'></img>,go,,2000.0,,77.0,1.0,1.0,12.0,stop_signal_single_task_network,,,,,,1.0,0.0-3.1-25.1,77.0,"[90, 77]",,1271,square,1000.0,<div class = bigbox><div class = centerbox><div class = gng_number><div class = cue-text><img class = center src='/static/experiments/stop_signal_single_task_network/images/square.png'></img></div>,,go,,384438,0.0,test_trial,199,stop-signal,
200,,,,,,500.0,,,,,,stop_signal_single_task_network,,,,,,,0.0-3.1-26.1,-1.0,none,,-1,,500.0,<div class = centerbox><div class = fixation>+</div></div>,,,,384940,0.0,fixation,200,poldrack-single-stim,
201,900.0,500.0,<img class = center src='/static/experiments/stop_signal_single_task_network/images/stopSignal.png'></img>,stop,,2000.0,,-1.0,0.0,1.0,13.0,stop_signal_single_task_network,,,,,,,0.0-3.1-27.1,90.0,"[90, 77]",,1106,circle,1000.0,<div class = bigbox><div class = centerbox><div class = gng_number><div class = cue-text><img class = center src='/static/experiments/stop_signal_single_task_network/images/circle.png'></img></div>,0.0,stop,,386943,0.0,test_trial,201,stop-signal,
202,,,,,,500.0,,,,,,stop_signal_single_task_network,,,,,,,0.0-3.1-28.1,-1.0,none,,-1,,500.0,<div class = centerbox><div class = fixation>+</div></div>,,,,387445,0.0,fixation,202,poldrack-single-stim,
203,850.0,500.0,<img class = center src='/static/experiments/stop_signal_single_task_network/images/stopSignal.png'></img>,go,,2000.0,,77.0,1.0,1.0,14.0,stop_signal_single_task_network,,,,,,1.0,0.0-3.1-29.1,77.0,"[90, 77]",,1204,square,1000.0,<div class = bigbox><div class = centerbox><div class = gng_number><div class = cue-text><img class = center src='/static/experiments/stop_signal_single_task_network/images/square.png'></img></div>,,go,,389446,0.0,test_trial,203,stop-signal,
204,,,,,,500.0,,,,,,stop_signal_single_task_network,,,,,,,0.0-3.1-30.1,-1.0,none,,-1,,500.0,<div class = centerbox><div class = fixation>+</div></div>,,,,389948,0.0,fixation,204,poldrack-single-stim,
205,850.0,500.0,<img class = center src='/static/experiments/stop_signal_single_task_network/images/stopSignal.png'></img>,go,,2000.0,,90.0,1.0,1.0,15.0,stop_signal_single_task_network,,,,,,1.0,0.0-3.1-31.1,90.0,"[90, 77]",,964,circle,1000.0,<div class = bigbox><div class = centerbox><div class = gng_number><div class = cue-text><img class = center src='/static/experiments/stop_signal_single_task_network/images/circle.png'></img></div>,,go,,391949,0.0,test_trial,205,stop-signal,
206,,,,,,500.0,,,,,,stop_signal_single_task_network,,,,,,,0.0-3.1-32.1,-1.0,none,,-1,,500.0,<div class = centerbox><div class = fixation>+</div></div>,,,,392452,0.0,fixation,206,poldrack-single-stim,
207,850.0,500.0,<img class = center src='/static/experiments/stop_signal_single_task_network/images/stopSignal.png'></img>,go,,2000.0,,90.0,1.0,1.0,16.0,stop_signal_single_task_network,,,,,,1.0,0.0-3.1-33.1,90.0,"[90, 77]",,1109,circle,1000.0,<div class = bigbox><div class = centerbox><div class = gng_number><div class = cue-text><img class = center src='/static/experiments/stop_signal_single_task_network/images/circle.png'></img></div>,,go,,394455,0.0,test_trial,207,stop-signal,
208,,,,,,500.0,,,,,,stop_signal_single_task_network,,,,,,,0.0-3.1-34.1,-1.0,none,,-1,,500.0,<div class = centerbox><div class = fixation>+</div></div>,,,,394956,0.0,fixation,208,poldrack-single-stim,
209,850.0,500.0,<img class = center src='/static/experiments/stop_signal_single_task_network/images/stopSignal.png'></img>,go,,2000.0,,90.0,1.0,1.0,17.0,stop_signal_single_task_network,,,,,,1.0,0.0-3.1-35.1,90.0,"[90, 77]",,1042,circle,1000.0,<div class = bigbox><div class = centerbox><div class = gng_number><div class = cue-text><img class = center src='/static/experiments/stop_signal_single_task_network/images/circle.png'></img></div>,,go,,396959,0.0,test_trial,209,stop-signal,
210,,,,,,500.0,,,,,,stop_signal_single_task_network,,,,,,,0.0-3.1-36.1,-1.0,none,,-1,,500.0,<div class = centerbox><div class = fixation>+</div></div>,,,,397461,0.0,fixation,210,poldrack-single-stim,
211,850.0,500.0,<img class = center src='/static/experiments/stop_signal_single_task_network/images/stopSignal.png'></img>,go,,2000.0,,90.0,1.0,1.0,18.0,stop_signal_single_task_network,,,,,,1.0,0.0-3.1-37.1,90.0,"[90, 77]",,1017,circle,1000.0,<div class = bigbox><div class = centerbox><div class = gng_number><div class = cue-text><img class = center src='/static/experiments/stop_signal_single_task_network/images/circle.png'></img></div>,,go,,399462,0.0,test_trial,211,stop-signal,
212,,,,,,500.0,,,,,,stop_signal_single_task_network,,,,,,,0.0-3.1-38.1,-1.0,none,,-1,,500.0,<div class = centerbox><div class = fixation>+</div></div>,,,,399964,0.0,fixation,212,poldrack-single-stim,
213,850.0,500.0,<img class = center src='/static/experiments/stop_signal_single_task_network/images/stopSignal.png'></img>,stop,,2000.0,,-1.0,0.0,1.0,19.0,stop_signal_single_task_network,,,,,,,0.0-3.1-39.1,77.0,"[90, 77]",,899,square,1000.0,<div class = bigbox><div class = centerbox><div class = gng_number><div class = cue-text><img class = center src='/static/experiments/stop_signal_single_task_network/images/square.png'></img></div>,0.0,stop,,401966,0.0,test_trial,213,stop-signal,
214,,,,,,500.0,,,,,,stop_signal_single_task_network,,,,,,,0.0-3.1-40.1,-1.0,none,,-1,,500.0,<div class = centerbox><div class = fixation>+</div></div>,,,,402469,0.0,fixation,214,poldrack-single-stim,
215,800.0,500.0,<img class = center src='/static/experiments/stop_signal_single_task_network/images/stopSignal.png'></img>,stop,,2000.0,,-1.0,1.0,1.0,20.0,stop_signal_single_task_network,,,,,,,0.0-3.1-41.1,-1.0,"[90, 77]",,-1,square,1000.0,<div class = bigbox><div class = centerbox><div class = gng_number><div class = cue-text><img class = center src='/static/experiments/stop_signal_single_task_network/images/square.png'></img></div>,1.0,stop,,404472,0.0,test_trial,215,stop-signal,
216,,,,,,500.0,,,,,,stop_signal_single_task_network,,,,,,,0.0-3.1-42.1,-1.0,none,,-1,,500.0,<div class = centerbox><div class = fixation>+</div></div>,,,,404973,0.0,fixation,216,poldrack-single-stim,
217,850.0,500.0,<img class = center src='/static/experiments/stop_signal_single_task_network/images/stopSignal.png'></img>,go,,2000.0,,90.0,1.0,1.0,21.0,stop_signal_single_task_network,,,,,,1.0,0.0-3.1-43.1,90.0,"[90, 77]",,1219,circle,1000.0,<div class = bigbox><div class = centerbox><div class = gng_number><div class = cue-text><img class = center src='/static/experiments/stop_signal_single_task_network/images/circle.png'></img></div>,,go,,406976,0.0,test_trial,217,stop-signal,
218,,,,,,500.0,,,,,,stop_signal_single_task_network,,,,,,,0.0-3.1-44.1,-1.0,none,,-1,,500.0,<div class = centerbox><div class = fixation>+</div></div>,,,,407478,0.0,fixation,218,poldrack-single-stim,
219,850.0,500.0,<img class = center src='/static/experiments/stop_signal_single_task_network/images/stopSignal.png'></img>,go,,2000.0,,90.0,1.0,1.0,22.0,stop_signal_single_task_network,,,,,,1.0,0.0-3.1-45.1,90.0,"[90, 77]",,1201,circle,1000.0,<div class = bigbox><div class = centerbox><div class = gng_number><div class = cue-text><img class = center src='/static/experiments/stop_signal_single_task_network/images/circle.png'></img></div>,,go,,409480,0.0,test_trial,219,stop-signal,
220,,,,,,500.0,,,,,,stop_signal_single_task_network,,,,,,,0.0-3.1-46.1,-1.0,none,,-1,,500.0,<div class = centerbox><div class = fixation>+</div></div>,,,,409982,0.0,fixation,220,poldrack-single-stim,
221,850.0,500.0,<img class = center src='/static/experiments/stop_signal_single_task_network/images/stopSignal.png'></img>,go,,2000.0,,77.0,1.0,1.0,23.0,stop_signal_single_task_network,,,,,,1.0,0.0-3.1-47.1,77.0,"[90, 77]",,1559,square,1000.0,<div class = bigbox><div class = centerbox><div class = gng_number><div class = cue-text><img class = center src='/static/experiments/stop_signal_single_task_network/images/square.png'></img></div>,,go,,411984,0.0,test_trial,221,stop-signal,
222,,,,,,500.0,,,,,,stop_signal_single_task_network,,,,,,,0.0-3.1-48.1,-1.0,none,,-1,,500.0,<div class = centerbox><div class = fixation>+</div></div>,,,,412486,0.0,fixation,222,poldrack-single-stim,
223,850.0,500.0,<img class = center src='/static/experiments/stop_signal_single_task_network/images/stopSignal.png'></img>,go,,2000.0,,90.0,1.0,1.0,24.0,stop_signal_single_task_network,,,,,,1.0,0.0-3.1-49.1,90.0,"[90, 77]",,1200,circle,1000.0,<div class = bigbox><div class = centerbox><div class = gng_number><div class = cue-text><img class = center src='/static/experiments/stop_signal_single_task_network/images/circle.png'></img></div>,,go,,414487,0.0,test_trial,223,stop-signal,
224,,,,,,500.0,,,,,,stop_signal_single_task_network,,,,,,,0.0-3.1-50.1,-1.0,none,,-1,,500.0,<div class = centerbox><div class = fixation>+</div></div>,,,,414989,0.0,fixation,224,poldrack-single-stim,
225,850.0,500.0,<img class = center src='/static/experiments/stop_signal_single_task_network/images/stopSignal.png'></img>,stop,,2000.0,,-1.0,0.0,1.0,25.0,stop_signal_single_task_network,,,,,,,0.0-3.1-51.1,77.0,"[90, 77]",,816,square,1000.0,<div class = bigbox><div class = centerbox><div class = gng_number><div class = cue-text><img class = center src='/static/experiments/stop_signal_single_task_network/images/square.png'></img></div>,0.0,stop,,416990,0.0,test_trial,225,stop-signal,
226,,,,,,500.0,,,,,,stop_signal_single_task_network,,,,,,,0.0-3.1-52.1,-1.0,none,,-1,,500.0,<div class = centerbox><div class = fixation>+</div></div>,,,,417492,0.0,fixation,226,poldrack-single-stim,
227,800.0,500.0,<img class = center src='/static/experiments/stop_signal_single_task_network/images/stopSignal.png'></img>,go,,2000.0,,77.0,1.0,1.0,26.0,stop_signal_single_task_network,,,,,,1.0,0.0-3.1-53.1,77.0,"[90, 77]",,1192,square,1000.0,<div class = bigbox><div class = centerbox><div class = gng_number><div class = cue-text><img class = center src='/static/experiments/stop_signal_single_task_network/images/square.png'></img></div>,,go,,419493,0.0,test_trial,227,stop-signal,
228,,,,,,500.0,,,,,,stop_signal_single_task_network,,,,,,,0.0-3.1-54.1,-1.0,none,,-1,,500.0,<div class = centerbox><div class = fixation>+</div></div>,,,,419995,0.0,fixation,228,poldrack-single-stim,
229,800.0,500.0,<img class = center src='/static/experiments/stop_signal_single_task_network/images/stopSignal.png'></img>,go,,2000.0,,90.0,1.0,1.0,27.0,stop_signal_single_task_network,,,,,,1.0,0.0-3.1-55.1,90.0,"[90, 77]",,1217,circle,1000.0,<div class = bigbox><div class = centerbox><div class = gng_number><div class = cue-text><img class = center src='/static/experiments/stop_signal_single_task_network/images/circle.png'></img></div>,,go,,421997,0.0,test_trial,229,stop-signal,
230,,,,,,500.0,,,,,,stop_signal_single_task_network,,,,,,,0.0-3.1-56.1,-1.0,none,,-1,,500.0,<div class = centerbox><div class = fixation>+</div></div>,,,,422499,0.0,fixation,230,poldrack-single-stim,
231,800.0,500.0,<img class = center src='/static/experiments/stop_signal_single_task_network/images/stopSignal.png'></img>,stop,,2000.0,,-1.0,1.0,1.0,28.0,stop_signal_single_task_network,,,,,,,0.0-3.1-57.1,-1.0,"[90, 77]",,-1,square,1000.0,<div class = bigbox><div class = centerbox><div class = gng_number><div class = cue-text><img class = center src='/static/experiments/stop_signal_single_task_network/images/square.png'></img></div>,1.0,stop,,424502,0.0,test_trial,231,stop-signal,
232,,,,,,500.0,,,,,,stop_signal_single_task_network,,,,,,,0.0-3.1-58.1,-1.0,none,,-1,,500.0,<div class = centerbox><div class = fixation>+</div></div>,,,,425004,0.0,fixation,232,poldrack-single-stim,
233,850.0,500.0,<img class = center src='/static/experiments/stop_signal_single_task_network/images/stopSignal.png'></img>,go,,2000.0,,90.0,1.0,1.0,29.0,stop_signal_single_task_network,,,,,,1.0,0.0-3.1-59.1,90.0,"[90, 77]",,1002,circle,1000.0,<div class = bigbox><div class = centerbox><div class = gng_number><div class = cue-text><img class = center src='/static/experiments/stop_signal_single_task_network/images/circle.png'></img></div>,,go,,427006,0.0,test_trial,233,stop-signal,
234,,,,,,500.0,,,,,,stop_signal_single_task_network,,,,,,,0.0-3.1-60.1,-1.0,none,,-1,,500.0,<div class = centerbox><div class = fixation>+</div></div>,,,,427508,0.0,fixation,234,poldrack-single-stim,
235,850.0,500.0,<img class = center src='/static/experiments/stop_signal_single_task_network/images/stopSignal.png'></img>,go,,2000.0,,77.0,1.0,1.0,30.0,stop_signal_single_task_network,,,,,,1.0,0.0-3.1-61.1,77.0,"[90, 77]",,1069,square,1000.0,<div class = bigbox><div class = centerbox><div class = gng_number><div class = cue-text><img class = center src='/static/experiments/stop_signal_single_task_network/images/square.png'></img></div>,,go,,429510,0.0,test_trial,235,stop-signal,
236,,,,,,500.0,,,,,,stop_signal_single_task_network,,,,,,,0.0-3.1-62.1,-1.0,none,,-1,,500.0,<div class = centerbox><div class = fixation>+</div></div>,,,,430032,0.0,fixation,236,poldrack-single-stim,
237,850.0,500.0,<img class = center src='/static/experiments/stop_signal_single_task_network/images/stopSignal.png'></img>,go,,2000.0,,77.0,1.0,1.0,31.0,stop_signal_single_task_network,,,,,,1.0,0.0-3.1-63.1,77.0,"[90, 77]",,1055,square,1000.0,<div class = bigbox><div class = centerbox><div class = gng_number><div class = cue-text><img class = center src='/static/experiments/stop_signal_single_task_network/images/square.png'></img></div>,,go,,432035,0.0,test_trial,237,stop-signal,
238,,,,,,500.0,,,,,,stop_signal_single_task_network,,,,,,,0.0-3.1-64.1,-1.0,none,,-1,,500.0,<div class = centerbox><div class = fixation>+</div></div>,,,,432537,0.0,fixation,238,poldrack-single-stim,
239,850.0,500.0,<img class = center src='/static/experiments/stop_signal_single_task_network/images/stopSignal.png'></img>,go,,2000.0,,77.0,1.0,1.0,32.0,stop_signal_single_task_network,,,,,,1.0,0.0-3.1-65.1,77.0,"[90, 77]",,1199,square,1000.0,<div class = bigbox><div class = centerbox><div class = gng_number><div class = cue-text><img class = center src='/static/experiments/stop_signal_single_task_network/images/square.png'></img></div>,,go,,434540,0.0,test_trial,239,stop-signal,
240,,,,,,500.0,,,,,,stop_signal_single_task_network,,,,,,,0.0-3.1-66.1,-1.0,none,,-1,,500.0,<div class = centerbox><div class = fixation>+</div></div>,,,,435041,0.0,fixation,240,poldrack-single-stim,
241,850.0,500.0,<img class = center src='/static/experiments/stop_signal_single_task_network/images/stopSignal.png'></img>,stop,,2000.0,,-1.0,1.0,1.0,33.0,stop_signal_single_task_network,,,,,,,0.0-3.1-67.1,-1.0,"[90, 77]",,-1,circle,1000.0,<div class = bigbox><div class = centerbox><div class = gng_number><div class = cue-text><img class = center src='/static/experiments/stop_signal_single_task_network/images/circle.png'></img></div>,1.0,stop,,437044,0.0,test_trial,241,stop-signal,
242,,,,,,500.0,,,,,,stop_signal_single_task_network,,,,,,,0.0-3.1-68.1,-1.0,none,,-1,,500.0,<div class = centerbox><div class = fixation>+</div></div>,,,,437546,0.0,fixation,242,poldrack-single-stim,
243,900.0,500.0,<img class = center src='/static/experiments/stop_signal_single_task_network/images/stopSignal.png'></img>,go,,2000.0,,77.0,1.0,1.0,34.0,stop_signal_single_task_network,,,,,,1.0,0.0-3.1-69.1,77.0,"[90, 77]",,974,square,1000.0,<div class = bigbox><div class = centerbox><div class = gng_number><div class = cue-text><img class = center src='/static/experiments/stop_signal_single_task_network/images/square.png'></img></div>,,go,,439549,0.0,test_trial,243,stop-signal,
244,,,,,,500.0,,,,,,stop_signal_single_task_network,,,,,,,0.0-3.1-70.1,-1.0,none,,-1,,500.0,<div class = centerbox><div class = fixation>+</div></div>,,,,440051,0.0,fixation,244,poldrack-single-stim,
245,900.0,500.0,<img class = center src='/static/experiments/stop_signal_single_task_network/images/stopSignal.png'></img>,go,,2000.0,,90.0,1.0,1.0,35.0,stop_signal_single_task_network,,,,,,1.0,0.0-3.1-71.1,90.0,"[90, 77]",,996,circle,1000.0,<div class = bigbox><div class = centerbox><div class = gng_number><div class = cue-text><img class = center src='/static/experiments/stop_signal_single_task_network/images/circle.png'></img></div>,,go,,442054,0.0,test_trial,245,stop-signal,
246,,,,,,500.0,,,,,,stop_signal_single_task_network,,,,,,,0.0-3.1-72.1,-1.0,none,,-1,,500.0,<div class = centerbox><div class = fixation>+</div></div>,,,,442556,0.0,fixation,246,poldrack-single-stim,
247,900.0,500.0,<img class = center src='/static/experiments/stop_signal_single_task_network/images/stopSignal.png'></img>,go,,2000.0,,77.0,1.0,1.0,36.0,stop_signal_single_task_network,,,,,,1.0,0.0-3.1-73.1,77.0,"[90, 77]",,1135,square,1000.0,<div class = bigbox><div class = centerbox><div class = gng_number><div class = cue-text><img class = center src='/static/experiments/stop_signal_single_task_network/images/square.png'></img></div>,,go,,444558,0.0,test_trial,247,stop-signal,
248,,,,,,500.0,,,,,,stop_signal_single_task_network,,,,,,,0.0-3.1-74.1,-1.0,none,,-1,,500.0,<div class = centerbox><div class = fixation>+</div></div>,,,,445060,0.0,fixation,248,poldrack-single-stim,
249,900.0,500.0,<img class = center src='/static/experiments/stop_signal_single_task_network/images/stopSignal.png'></img>,stop,,2000.0,,-1.0,1.0,1.0,37.0,stop_signal_single_task_network,,,,,,,0.0-3.1-75.1,-1.0,"[90, 77]",,-1,square,1000.0,<div class = bigbox><div class = centerbox><div class = gng_number><div class = cue-text><img class = center src='/static/experiments/stop_signal_single_task_network/images/square.png'></img></div>,1.0,stop,,447063,0.0,test_trial,249,stop-signal,
250,,,,,,500.0,,,,,,stop_signal_single_task_network,,,,,,,0.0-3.1-76.1,-1.0,none,,-1,,500.0,<div class = centerbox><div class = fixation>+</div></div>,,,,447565,0.0,fixation,250,poldrack-single-stim,
251,950.0,500.0,<img class = center src='/static/experiments/stop_signal_single_task_network/images/stopSignal.png'></img>,go,,2000.0,,77.0,1.0,1.0,38.0,stop_signal_single_task_network,,,,,,1.0,0.0-3.1-77.1,77.0,"[90, 77]",,1257,square,1000.0,<div class = bigbox><div class = centerbox><div class = gng_number><div class = cue-text><img class = center src='/static/experiments/stop_signal_single_task_network/images/square.png'></img></div>,,go,,449566,0.0,test_trial,251,stop-signal,
252,,,,,,500.0,,,,,,stop_signal_single_task_network,,,,,,,0.0-3.1-78.1,-1.0,none,,-1,,500.0,<div class = centerbox><div class = fixation>+</div></div>,,,,450069,0.0,fixation,252,poldrack-single-stim,
253,950.0,500.0,<img class = center src='/static/experiments/stop_signal_single_task_network/images/stopSignal.png'></img>,go,,2000.0,,77.0,1.0,1.0,39.0,stop_signal_single_task_network,,,,,,1.0,0.0-3.1-79.1,77.0,"[90, 77]",,1243,square,1000.0,<div class = bigbox><div class = centerbox><div class = gng_number><div class = cue-text><img class = center src='/static/experiments/stop_signal_single_task_network/images/square.png'></img></div>,,go,,452072,0.0,test_trial,253,stop-signal,
254,,,,,,500.0,,,,,,stop_signal_single_task_network,,,,,,,0.0-3.1-80.1,-1.0,none,,-1,,500.0,<div class = centerbox><div class = fixation>+</div></div>,,,,452574,0.0,fixation,254,poldrack-single-stim,
255,950.0,500.0,<img class = center src='/static/experiments/stop_signal_single_task_network/images/stopSignal.png'></img>,stop,,2000.0,,-1.0,0.0,1.0,40.0,stop_signal_single_task_network,,,,,,,0.0-3.1-81.1,77.0,"[90, 77]",,1153,square,1000.0,<div class = bigbox><div class = centerbox><div class = gng_number><div class = cue-text><img class = center src='/static/experiments/stop_signal_single_task_network/images/square.png'></img></div>,0.0,stop,,454577,0.0,test_trial,255,stop-signal,
256,,,,,,500.0,,,,,,stop_signal_single_task_network,,,,,,,0.0-3.1-82.1,-1.0,none,,-1,,500.0,<div class = centerbox><div class = fixation>+</div></div>,,,,455080,0.0,fixation,256,poldrack-single-stim,
257,900.0,500.0,<img class = center src='/static/experiments/stop_signal_single_task_network/images/stopSignal.png'></img>,stop,,2000.0,,-1.0,1.0,1.0,41.0,stop_signal_single_task_network,,,,,,,0.0-3.1-83.1,-1.0,"[90, 77]",,-1,circle,1000.0,<div class = bigbox><div class = centerbox><div class = gng_number><div class = cue-text><img class = center src='/static/experiments/stop_signal_single_task_network/images/circle.png'></img></div>,1.0,stop,,457082,0.0,test_trial,257,stop-signal,
258,,,,,,500.0,,,,,,stop_signal_single_task_network,,,,,,,0.0-3.1-84.1,-1.0,none,,-1,,500.0,<div class = centerbox><div class = fixation>+</div></div>,,,,457585,0.0,fixation,258,poldrack-single-stim,
259,950.0,500.0,<img class = center src='/static/experiments/stop_signal_single_task_network/images/stopSignal.png'></img>,go,,2000.0,,90.0,1.0,1.0,42.0,stop_signal_single_task_network,,,,,,1.0,0.0-3.1-85.1,90.0,"[90, 77]",,1124,circle,1000.0,<div class = bigbox><div class = centerbox><div class = gng_number><div class = cue-text><img class = center src='/static/experiments/stop_signal_single_task_network/images/circle.png'></img></div>,,go,,459587,0.0,test_trial,259,stop-signal,
260,,,,,,500.0,,,,,,stop_signal_single_task_network,,,,,,,0.0-3.1-86.1,-1.0,none,,-1,,500.0,<div class = centerbox><div class = fixation>+</div></div>,,,,460089,0.0,fixation,260,poldrack-single-stim,
261,950.0,500.0,<img class = center src='/static/experiments/stop_signal_single_task_network/images/stopSignal.png'></img>,go,,2000.0,,90.0,1.0,1.0,43.0,stop_signal_single_task_network,,,,,,1.0,0.0-3.1-87.1,90.0,"[90, 77]",,1283,circle,1000.0,<div class = bigbox><div class = centerbox><div class = gng_number><div class = cue-text><img class = center src='/static/experiments/stop_signal_single_task_network/images/circle.png'></img></div>,,go,,462093,0.0,test_trial,261,stop-signal,
262,,,,,,500.0,,,,,,stop_signal_single_task_network,,,,,,,0.0-3.1-88.1,-1.0,none,,-1,,500.0,<div class = centerbox><div class = fixation>+</div></div>,,,,462596,0.0,fixation,262,poldrack-single-stim,
263,950.0,500.0,<img class = center src='/static/experiments/stop_signal_single_task_network/images/stopSignal.png'></img>,go,,2000.0,,90.0,1.0,1.0,44.0,stop_signal_single_task_network,,,,,,1.0,0.0-3.1-89.1,90.0,"[90, 77]",,1329,circle,1000.0,<div class = bigbox><div class = centerbox><div class = gng_number><div class = cue-text><img class = center src='/static/experiments/stop_signal_single_task_network/images/circle.png'></img></div>,,go,,464599,0.0,test_trial,263,stop-signal,
264,,,,,,500.0,,,,,,stop_signal_single_task_network,,,,,,,0.0-3.1-90.1,-1.0,none,,-1,,500.0,<div class = centerbox><div class = fixation>+</div></div>,,,,465100,0.0,fixation,264,poldrack-single-stim,
265,950.0,500.0,<img class = center src='/static/experiments/stop_signal_single_task_network/images/stopSignal.png'></img>,go,,2000.0,,77.0,1.0,1.0,45.0,stop_signal_single_task_network,,,,,,1.0,0.0-3.1-91.1,77.0,"[90, 77]",,1061,square,1000.0,<div class = bigbox><div class = centerbox><div class = gng_number><div class = cue-text><img class = center src='/static/experiments/stop_signal_single_task_network/images/square.png'></img></div>,,go,,467102,0.0,test_trial,265,stop-signal,
266,,,,,,500.0,,,,,,stop_signal_single_task_network,,,,,,,0.0-3.1-92.1,-1.0,none,,-1,,500.0,<div class = centerbox><div class = fixation>+</div></div>,,,,467604,0.0,fixation,266,poldrack-single-stim,
267,950.0,500.0,<img class = center src='/static/experiments/stop_signal_single_task_network/images/stopSignal.png'></img>,go,,2000.0,,90.0,1.0,1.0,46.0,stop_signal_single_task_network,,,,,,1.0,0.0-3.1-93.1,90.0,"[90, 77]",,1067,circle,1000.0,<div class = bigbox><div class = centerbox><div class = gng_number><div class = cue-text><img class = center src='/static/experiments/stop_signal_single_task_network/images/circle.png'></img></div>,,go,,469607,0.0,test_trial,267,stop-signal,
268,,,,,,500.0,,,,,,stop_signal_single_task_network,,,,,,,0.0-3.1-94.1,-1.0,none,,-1,,500.0,<div class = centerbox><div class = fixation>+</div></div>,,,,470109,0.0,fixation,268,poldrack-single-stim,
269,950.0,500.0,<img class = center src='/static/experiments/stop_signal_single_task_network/images/stopSignal.png'></img>,go,,2000.0,,77.0,1.0,1.0,47.0,stop_signal_single_task_network,,,,,,1.0,0.0-3.1-95.1,77.0,"[90, 77]",,980,square,1000.0,<div class = bigbox><div class = centerbox><div class = gng_number><div class = cue-text><img class = center src='/static/experiments/stop_signal_single_task_network/images/square.png'></img></div>,,go,,472110,0.0,test_trial,269,stop-signal,
270,,,,,,500.0,,,,,,stop_signal_single_task_network,,,,,,,0.0-3.1-96.1,-1.0,none,,-1,,500.0,<div class = centerbox><div class = fixation>+</div></div>,,,,472614,0.0,fixation,270,poldrack-single-stim,
271,950.0,500.0,<img class = center src='/static/experiments/stop_signal_single_task_network/images/stopSignal.png'></img>,stop,,2000.0,,-1.0,0.0,1.0,48.0,stop_signal_single_task_network,,,,,,,0.0-3.1-97.1,77.0,"[90, 77]",,886,square,1000.0,<div class = bigbox><div class = centerbox><div class = gng_number><div class = cue-text><img class = center src='/static/experiments/stop_signal_single_task_network/images/square.png'></img></div>,0.0,stop,,474617,0.0,test_trial,271,stop-signal,
