,SSD_go,SSD_nogo,SS_delay,SS_duration,SS_stimulus,SS_trial_type,att_check_percent,block_duration,correct,correct_response,correct_trial,current_block,current_trial,exp_id,final_accuracy,final_avg_rt,final_credit_var,final_missed_percent,final_responses_ok,go_acc,go_nogo_condition,internal_node_id,key_press,possible_responses,responses,rt,stim,stim_duration,stim_style,stimulus,stop_acc,stop_signal_condition,text,time_elapsed,timing_post_trial,trial_id,trial_index,trial_type,view_history
0,,,,,,,,2263.0,,,,,,stop_signal_with_go_no_go,,,,,,,,0.0-0.0-0.0,13.0,[13],,2263,,2263.0,,"<div class = bigbox><div class = picture_box><p class = block-text><font color=""white"">Welcome to the experiment. This experiment will take around 15 minutes. Press <i>enter</i> to begin.</font></p></div></div>",,,,2265,0.0,practice-no-stop-feedback,0,poldrack-single-stim,
1,,,,,,,,,,,,,,stop_signal_with_go_no_go,,,,,,,,0.0-0.0-1.0,,,,13364,,,,,,,,15632,,instruction,1,poldrack-instructions,"[{""page_index"":0,""viewing_time"":8736},{""page_index"":1,""viewing_time"":2223},{""page_index"":2,""viewing_time"":1602},{""page_index"":3,""viewing_time"":802}]"
2,,,,,,,,500.0,,,,,,stop_signal_with_go_no_go,,,,,,,,0.0-0.0-2.0,-1.0,none,,-1,,500.0,,<div class = centerbox><div class = fixation>+</div></div>,,,,16137,0.0,prompt_fixation,2,poldrack-single-stim,
3,350.0,350.0,350.0,500.0,<div class = bigbox><div class = centerbox><div class = starbox><img class = center src='/static/experiments/stop_signal_with_go_no_go/images/stopSignal.png'></img></div></div></div>,go,,2000.0,,77.0,0.0,0.0,1.0,stop_signal_with_go_no_go,,,,,,0.0,go,0.0-0.0-3.0,90.0,"[90, 77]",,831,circle,1000.0,solid,<div class = bigbox><div class = centerbox><div class = gng_number><div class = cue-text><img class = center src='/static/experiments/stop_signal_with_go_no_go/images/solid_circle.png'></img></div></div></div></div>,,go,,18141,0.0,practice_trial,3,stop-signal,
4,,,,,,,,500.0,,,,,,stop_signal_with_go_no_go,,,,,,,,0.0-0.0-4.0,-1.0,none,,-1,,500.0,,"<div class = fb_box><div class = center-text><font size = 20>Incorrect</font></div></div><div class = prompt_box><p class = center-block-text style = ""font-size:16px; line-height:80%%;"">square: Z key</p><p class = center-block-text style = ""font-size:16px; line-height:80%%;"">circle: M key</p><p class = center-block-text style = ""font-size:16px; line-height:80%%;"">Do not respond if a star appears!</p><p class = center-block-text style = ""font-size:16px; line-height:80%%;"">Do not respond if the shape is outlined!</p></div>",,,,18645,0.0,practice-stop-feedback,4,poldrack-single-stim,
5,,,,,,,,500.0,,,,,,stop_signal_with_go_no_go,,,,,,,,0.0-0.0-5.0,-1.0,none,,-1,,500.0,,<div class = centerbox><div class = fixation>+</div></div>,,,,19149,0.0,prompt_fixation,5,poldrack-single-stim,
6,350.0,350.0,350.0,500.0,<div class = bigbox><div class = centerbox><div class = starbox><img class = center src='/static/experiments/stop_signal_with_go_no_go/images/stopSignal.png'></img></div></div></div>,go,,2000.0,,90.0,1.0,0.0,2.0,stop_signal_with_go_no_go,,,,,,1.0,go,0.0-0.0-6.0,90.0,"[90, 77]",,771,square,1000.0,solid,<div class = bigbox><div class = centerbox><div class = gng_number><div class = cue-text><img class = center src='/static/experiments/stop_signal_with_go_no_go/images/solid_square.png'></img></div></div></div></div>,,go,,21152,0.0,practice_trial,6,stop-signal,
7,,,,,,,,500.0,,,,,,stop_signal_with_go_no_go,,,,,,,,0.0-0.0-7.0,-1.0,none,,-1,,500.0,,"<div class = fb_box><div class = center-text><font size = 20>Correct!</font></div></div><div class = prompt_box><p class = center-block-text style = ""font-size:16px; line-height:80%%;"">square: Z key</p><p class = center-block-text style = ""font-size:16px; line-height:80%%;"">circle: M key</p><p class = center-block-text style = ""font-size:16px; line-height:80%%;"">Do not respond if a star appears!</p><p class = center-block-text style = ""font-size:16px; line-height:80%%;"">Do not respond if the shape is outlined!</p></div>",,,,21654,0.0,practice-stop-feedback,7,poldrack-single-stim,
8,,,,,,,,500.0,,,,,,stop_signal_with_go_no_go,,,,,,,,0.0-0.0-8.0,-1.0,none,,-1,,500.0,,<div class = centerbox><div class = fixation>+</div></div>,,,,22157,0.0,prompt_fixation,8,poldrack-single-stim,
9,350.0,350.0,350.0,500.0,<div class = bigbox><div class = centerbox><div class = starbox><img class = center src='/static/experiments/stop_signal_with_go_no_go/images/stopSignal.png'></img></div></div></div>,stop,,2000.0,,-1.0,0.0,0.0,3.0,stop_signal_with_go_no_go,,,,,,,go,0.0-0.0-9.0,77.0,"[90, 77]",,705,circle,1000.0,solid,<div class = bigbox><div class = centerbox><div class = gng_number><div class = cue-text><img class = center src='/static/experiments/stop_signal_with_go_no_go/images/solid_circle.png'></img></div></div></div></div>,0.0,stop,,24159,0.0,practice_trial,9,stop-signal,
10,,,,,,,,500.0,,,,,,stop_signal_with_go_no_go,,,,,,,,0.0-0.0-10.0,-1.0,none,,-1,,500.0,,"<div class = fb_box><div class = center-text><font size = 20>There was a star.</font></div></div><div class = prompt_box><p class = center-block-text style = ""font-size:16px; line-height:80%%;"">square: Z key</p><p class = center-block-text style = ""font-size:16px; line-height:80%%;"">circle: M key</p><p class = center-block-text style = ""font-size:16px; line-height:80%%;"">Do not respond if a star appears!</p><p class = center-block-text style = ""font-size:16px; line-height:80%%;"">Do not respond if the shape is outlined!</p></div>",,,,24662,0.0,practice-stop-feedback,10,poldrack-single-stim,
11,,,,,,,,500.0,,,,,,stop_signal_with_go_no_go,,,,,,,,0.0-0.0-11.0,-1.0,none,,-1,,500.0,,<div class = centerbox><div class = fixation>+</div></div>,,,,25164,0.0,prompt_fixation,11,poldrack-single-stim,
12,300.0,350.0,300.0,500.0,<div class = bigbox><div class = centerbox><div class = starbox><img class = center src='/static/experiments/stop_signal_with_go_no_go/images/stopSignal.png'></img></div></div></div>,go,,2000.0,,90.0,1.0,0.0,4.0,stop_signal_with_go_no_go,,,,,,1.0,go,0.0-0.0-12.0,90.0,"[90, 77]",,1243,square,1000.0,solid,<div class = bigbox><div class = centerbox><div class = gng_number><div class = cue-text><img class = center src='/static/experiments/stop_signal_with_go_no_go/images/solid_square.png'></img></div></div></div></div>,,go,,27165,0.0,practice_trial,12,stop-signal,
13,,,,,,,,500.0,,,,,,stop_signal_with_go_no_go,,,,,,,,0.0-0.0-13.0,-1.0,none,,-1,,500.0,,"<div class = fb_box><div class = center-text><font size = 20>Correct!</font></div></div><div class = prompt_box><p class = center-block-text style = ""font-size:16px; line-height:80%%;"">square: Z key</p><p class = center-block-text style = ""font-size:16px; line-height:80%%;"">circle: M key</p><p class = center-block-text style = ""font-size:16px; line-height:80%%;"">Do not respond if a star appears!</p><p class = center-block-text style = ""font-size:16px; line-height:80%%;"">Do not respond if the shape is outlined!</p></div>",,,,27668,0.0,practice-stop-feedback,13,poldrack-single-stim,
14,,,,,,,,500.0,,,,,,stop_signal_with_go_no_go,,,,,,,,0.0-0.0-14.0,-1.0,none,,-1,,500.0,,<div class = centerbox><div class = fixation>+</div></div>,,,,28170,0.0,prompt_fixation,14,poldrack-single-stim,
15,300.0,350.0,350.0,500.0,<div class = bigbox><div class = centerbox><div class = starbox><img class = center src='/static/experiments/stop_signal_with_go_no_go/images/stopSignal.png'></img></div></div></div>,stop,,2000.0,,-1.0,1.0,0.0,5.0,stop_signal_with_go_no_go,,,,,,,nogo,0.0-0.0-15.0,-1.0,"[90, 77]",,-1,circle,1000.0,outlined,<div class = bigbox><div class = centerbox><div class = gng_number><div class = cue-text><img class = center src='/static/experiments/stop_signal_with_go_no_go/images/outlined_circle.png'></img></div></div></div></div>,1.0,stop,,30174,0.0,practice_trial,15,stop-signal,
16,,,,,,,,500.0,,,,,,stop_signal_with_go_no_go,,,,,,,,0.0-0.0-16.0,-1.0,none,,-1,,500.0,,"<div class = fb_box><div class = center-text><font size = 20>Correct!</font></div></div><div class = prompt_box><p class = center-block-text style = ""font-size:16px; line-height:80%%;"">square: Z key</p><p class = center-block-text style = ""font-size:16px; line-height:80%%;"">circle: M key</p><p class = center-block-text style = ""font-size:16px; line-height:80%%;"">Do not respond if a star appears!</p><p class = center-block-text style = ""font-size:16px; line-height:80%%;"">Do not respond if the shape is outlined!</p></div>",,,,30676,0.0,practice-stop-feedback,16,poldrack-single-stim,
17,,,,,,,,500.0,,,,,,stop_signal_with_go_no_go,,,,,,,,0.0-0.0-17.0,-1.0,none,,-1,,500.0,,<div class = centerbox><div class = fixation>+</div></div>,,,,31178,0.0,prompt_fixation,17,poldrack-single-stim,
18,300.0,400.0,300.0,500.0,<div class = bigbox><div class = centerbox><div class = starbox><img class = center src='/static/experiments/stop_signal_with_go_no_go/images/stopSignal.png'></img></div></div></div>,go,,2000.0,,77.0,1.0,0.0,6.0,stop_signal_with_go_no_go,,,,,,1.0,go,0.0-0.0-18.0,77.0,"[90, 77]",,598,circle,1000.0,solid,<div class = bigbox><div class = centerbox><div class = gng_number><div class = cue-text><img class = center src='/static/experiments/stop_signal_with_go_no_go/images/solid_circle.png'></img></div></div></div></div>,,go,,33181,0.0,practice_trial,18,stop-signal,
19,,,,,,,,500.0,,,,,,stop_signal_with_go_no_go,,,,,,,,0.0-0.0-19.0,-1.0,none,,-1,,500.0,,"<div class = fb_box><div class = center-text><font size = 20>Correct!</font></div></div><div class = prompt_box><p class = center-block-text style = ""font-size:16px; line-height:80%%;"">square: Z key</p><p class = center-block-text style = ""font-size:16px; line-height:80%%;"">circle: M key</p><p class = center-block-text style = ""font-size:16px; line-height:80%%;"">Do not respond if a star appears!</p><p class = center-block-text style = ""font-size:16px; line-height:80%%;"">Do not respond if the shape is outlined!</p></div>",,,,33684,0.0,practice-stop-feedback,19,poldrack-single-stim,
20,,,,,,,,500.0,,,,,,stop_signal_with_go_no_go,,,,,,,,0.0-0.0-20.0,-1.0,none,,-1,,500.0,,<div class = centerbox><div class = fixation>+</div></div>,,,,34186,0.0,prompt_fixation,20,poldrack-single-stim,
21,300.0,400.0,300.0,500.0,<div class = bigbox><div class = centerbox><div class = starbox><img class = center src='/static/experiments/stop_signal_with_go_no_go/images/stopSignal.png'></img></div></div></div>,stop,,2000.0,,-1.0,1.0,0.0,7.0,stop_signal_with_go_no_go,,,,,,,go,0.0-0.0-21.0,-1.0,"[90, 77]",,-1,circle,1000.0,solid,<div class = bigbox><div class = centerbox><div class = gng_number><div class = cue-text><img class = center src='/static/experiments/stop_signal_with_go_no_go/images/solid_circle.png'></img></div></div></div></div>,1.0,stop,,36189,0.0,practice_trial,21,stop-signal,
22,,,,,,,,500.0,,,,,,stop_signal_with_go_no_go,,,,,,,,0.0-0.0-22.0,-1.0,none,,-1,,500.0,,"<div class = fb_box><div class = center-text><font size = 20>Correct!</font></div></div><div class = prompt_box><p class = center-block-text style = ""font-size:16px; line-height:80%%;"">square: Z key</p><p class = center-block-text style = ""font-size:16px; line-height:80%%;"">circle: M key</p><p class = center-block-text style = ""font-size:16px; line-height:80%%;"">Do not respond if a star appears!</p><p class = center-block-text style = ""font-size:16px; line-height:80%%;"">Do not respond if the shape is outlined!</p></div>",,,,36692,0.0,practice-stop-feedback,22,poldrack-single-stim,
23,,,,,,,,500.0,,,,,,stop_signal_with_go_no_go,,,,,,,,0.0-0.0-23.0,-1.0,none,,-1,,500.0,,<div class = centerbox><div class = fixation>+</div></div>,,,,37193,0.0,prompt_fixation,23,poldrack-single-stim,
24,350.0,400.0,350.0,500.0,<div class = bigbox><div class = centerbox><div class = starbox><img class = center src='/static/experiments/stop_signal_with_go_no_go/images/stopSignal.png'></img></div></div></div>,go,,2000.0,,90.0,1.0,0.0,8.0,stop_signal_with_go_no_go,,,,,,1.0,go,0.0-0.0-24.0,90.0,"[90, 77]",,738,square,1000.0,solid,<div class = bigbox><div class = centerbox><div class = gng_number><div class = cue-text><img class = center src='/static/experiments/stop_signal_with_go_no_go/images/solid_square.png'></img></div></div></div></div>,,go,,39196,0.0,practice_trial,24,stop-signal,
25,,,,,,,,500.0,,,,,,stop_signal_with_go_no_go,,,,,,,,0.0-0.0-25.0,-1.0,none,,-1,,500.0,,"<div class = fb_box><div class = center-text><font size = 20>Correct!</font></div></div><div class = prompt_box><p class = center-block-text style = ""font-size:16px; line-height:80%%;"">square: Z key</p><p class = center-block-text style = ""font-size:16px; line-height:80%%;"">circle: M key</p><p class = center-block-text style = ""font-size:16px; line-height:80%%;"">Do not respond if a star appears!</p><p class = center-block-text style = ""font-size:16px; line-height:80%%;"">Do not respond if the shape is outlined!</p></div>",,,,39698,0.0,practice-stop-feedback,25,poldrack-single-stim,
26,,,,,,,,500.0,,,,,,stop_signal_with_go_no_go,,,,,,,,0.0-0.0-26.0,-1.0,none,,-1,,500.0,,<div class = centerbox><div class = fixation>+</div></div>,,,,40201,0.0,prompt_fixation,26,poldrack-single-stim,
27,350.0,400.0,400.0,500.0,<div class = bigbox><div class = centerbox><div class = starbox><img class = center src='/static/experiments/stop_signal_with_go_no_go/images/stopSignal.png'></img></div></div></div>,go,,2000.0,,-1.0,1.0,0.0,9.0,stop_signal_with_go_no_go,,,,,,1.0,nogo,0.0-0.0-27.0,-1.0,"[90, 77]",,-1,square,1000.0,outlined,<div class = bigbox><div class = centerbox><div class = gng_number><div class = cue-text><img class = center src='/static/experiments/stop_signal_with_go_no_go/images/outlined_square.png'></img></div></div></div></div>,,go,,42204,0.0,practice_trial,27,stop-signal,
28,,,,,,,,500.0,,,,,,stop_signal_with_go_no_go,,,,,,,,0.0-0.0-28.0,-1.0,none,,-1,,500.0,,"<div class = fb_box><div class = center-text><font size = 20>Correct!</font></div></div><div class = prompt_box><p class = center-block-text style = ""font-size:16px; line-height:80%%;"">square: Z key</p><p class = center-block-text style = ""font-size:16px; line-height:80%%;"">circle: M key</p><p class = center-block-text style = ""font-size:16px; line-height:80%%;"">Do not respond if a star appears!</p><p class = center-block-text style = ""font-size:16px; line-height:80%%;"">Do not respond if the shape is outlined!</p></div>",,,,42707,0.0,practice-stop-feedback,28,poldrack-single-stim,
29,,,,,,,,500.0,,,,,,stop_signal_with_go_no_go,,,,,,,,0.0-0.0-29.0,-1.0,none,,-1,,500.0,,<div class = centerbox><div class = fixation>+</div></div>,,,,43211,0.0,prompt_fixation,29,poldrack-single-stim,
30,350.0,400.0,350.0,500.0,<div class = bigbox><div class = centerbox><div class = starbox><img class = center src='/static/experiments/stop_signal_with_go_no_go/images/stopSignal.png'></img></div></div></div>,go,,2000.0,,90.0,0.0,0.0,10.0,stop_signal_with_go_no_go,,,,,,0.0,go,0.0-0.0-30.0,77.0,"[90, 77]",,873,square,1000.0,solid,<div class = bigbox><div class = centerbox><div class = gng_number><div class = cue-text><img class = center src='/static/experiments/stop_signal_with_go_no_go/images/solid_square.png'></img></div></div></div></div>,,go,,45214,0.0,practice_trial,30,stop-signal,
31,,,,,,,,500.0,,,,,,stop_signal_with_go_no_go,,,,,,,,0.0-0.0-31.0,-1.0,none,,-1,,500.0,,"<div class = fb_box><div class = center-text><font size = 20>Incorrect</font></div></div><div class = prompt_box><p class = center-block-text style = ""font-size:16px; line-height:80%%;"">square: Z key</p><p class = center-block-text style = ""font-size:16px; line-height:80%%;"">circle: M key</p><p class = center-block-text style = ""font-size:16px; line-height:80%%;"">Do not respond if a star appears!</p><p class = center-block-text style = ""font-size:16px; line-height:80%%;"">Do not respond if the shape is outlined!</p></div>",,,,45716,0.0,practice-stop-feedback,31,poldrack-single-stim,
32,,,,,,,,500.0,,,,,,stop_signal_with_go_no_go,,,,,,,,0.0-0.0-32.0,-1.0,none,,-1,,500.0,,<div class = centerbox><div class = fixation>+</div></div>,,,,46218,0.0,prompt_fixation,32,poldrack-single-stim,
33,350.0,400.0,350.0,500.0,<div class = bigbox><div class = centerbox><div class = starbox><img class = center src='/static/experiments/stop_signal_with_go_no_go/images/stopSignal.png'></img></div></div></div>,go,,2000.0,,90.0,1.0,0.0,11.0,stop_signal_with_go_no_go,,,,,,1.0,go,0.0-0.0-33.0,90.0,"[90, 77]",,924,square,1000.0,solid,<div class = bigbox><div class = centerbox><div class = gng_number><div class = cue-text><img class = center src='/static/experiments/stop_signal_with_go_no_go/images/solid_square.png'></img></div></div></div></div>,,go,,48220,0.0,practice_trial,33,stop-signal,
34,,,,,,,,500.0,,,,,,stop_signal_with_go_no_go,,,,,,,,0.0-0.0-34.0,-1.0,none,,-1,,500.0,,"<div class = fb_box><div class = center-text><font size = 20>Correct!</font></div></div><div class = prompt_box><p class = center-block-text style = ""font-size:16px; line-height:80%%;"">square: Z key</p><p class = center-block-text style = ""font-size:16px; line-height:80%%;"">circle: M key</p><p class = center-block-text style = ""font-size:16px; line-height:80%%;"">Do not respond if a star appears!</p><p class = center-block-text style = ""font-size:16px; line-height:80%%;"">Do not respond if the shape is outlined!</p></div>",,,,48722,0.0,practice-stop-feedback,34,poldrack-single-stim,
35,,,,,,,,500.0,,,,,,stop_signal_with_go_no_go,,,,,,,,0.0-0.0-35.0,-1.0,none,,-1,,500.0,,<div class = centerbox><div class = fixation>+</div></div>,,,,49224,0.0,prompt_fixation,35,poldrack-single-stim,
36,350.0,400.0,350.0,500.0,<div class = bigbox><div class = centerbox><div class = starbox><img class = center src='/static/experiments/stop_signal_with_go_no_go/images/stopSignal.png'></img></div></div></div>,stop,,2000.0,,-1.0,1.0,0.0,12.0,stop_signal_with_go_no_go,,,,,,,go,0.0-0.0-36.0,-1.0,"[90, 77]",,-1,square,1000.0,solid,<div class = bigbox><div class = centerbox><div class = gng_number><div class = cue-text><img class = center src='/static/experiments/stop_signal_with_go_no_go/images/solid_square.png'></img></div></div></div></div>,1.0,stop,,51225,0.0,practice_trial,36,stop-signal,
37,,,,,,,,500.0,,,,,,stop_signal_with_go_no_go,,,,,,,,0.0-0.0-37.0,-1.0,none,,-1,,500.0,,"<div class = fb_box><div class = center-text><font size = 20>Correct!</font></div></div><div class = prompt_box><p class = center-block-text style = ""font-size:16px; line-height:80%%;"">square: Z key</p><p class = center-block-text style = ""font-size:16px; line-height:80%%;"">circle: M key</p><p class = center-block-text style = ""font-size:16px; line-height:80%%;"">Do not respond if a star appears!</p><p class = center-block-text style = ""font-size:16px; line-height:80%%;"">Do not respond if the shape is outlined!</p></div>",,,,51729,0.0,practice-stop-feedback,37,poldrack-single-stim,
38,,,,,,,,500.0,,,,,,stop_signal_with_go_no_go,,,,,,,,0.0-0.0-38.0,-1.0,none,,-1,,500.0,,<div class = centerbox><div class = fixation>+</div></div>,,,,52231,0.0,prompt_fixation,38,poldrack-single-stim,
39,400.0,400.0,400.0,500.0,<div class = bigbox><div class = centerbox><div class = starbox><img class = center src='/static/experiments/stop_signal_with_go_no_go/images/stopSignal.png'></img></div></div></div>,go,,2000.0,,77.0,1.0,0.0,13.0,stop_signal_with_go_no_go,,,,,,1.0,go,0.0-0.0-39.0,77.0,"[90, 77]",,733,circle,1000.0,solid,<div class = bigbox><div class = centerbox><div class = gng_number><div class = cue-text><img class = center src='/static/experiments/stop_signal_with_go_no_go/images/solid_circle.png'></img></div></div></div></div>,,go,,54233,0.0,practice_trial,39,stop-signal,
40,,,,,,,,500.0,,,,,,stop_signal_with_go_no_go,,,,,,,,0.0-0.0-40.0,-1.0,none,,-1,,500.0,,"<div class = fb_box><div class = center-text><font size = 20>Correct!</font></div></div><div class = prompt_box><p class = center-block-text style = ""font-size:16px; line-height:80%%;"">square: Z key</p><p class = center-block-text style = ""font-size:16px; line-height:80%%;"">circle: M key</p><p class = center-block-text style = ""font-size:16px; line-height:80%%;"">Do not respond if a star appears!</p><p class = center-block-text style = ""font-size:16px; line-height:80%%;"">Do not respond if the shape is outlined!</p></div>",,,,54736,0.0,practice-stop-feedback,40,poldrack-single-stim,
41,,,,,,,,500.0,,,,,,stop_signal_with_go_no_go,,,,,,,,0.0-0.0-41.0,-1.0,none,,-1,,500.0,,<div class = centerbox><div class = fixation>+</div></div>,,,,55238,0.0,prompt_fixation,41,poldrack-single-stim,
42,400.0,400.0,400.0,500.0,<div class = bigbox><div class = centerbox><div class = starbox><img class = center src='/static/experiments/stop_signal_with_go_no_go/images/stopSignal.png'></img></div></div></div>,go,,2000.0,,77.0,1.0,0.0,14.0,stop_signal_with_go_no_go,,,,,,1.0,go,0.0-0.0-42.0,77.0,"[90, 77]",,742,circle,1000.0,solid,<div class = bigbox><div class = centerbox><div class = gng_number><div class = cue-text><img class = center src='/static/experiments/stop_signal_with_go_no_go/images/solid_circle.png'></img></div></div></div></div>,,go,,57241,0.0,practice_trial,42,stop-signal,
43,,,,,,,,500.0,,,,,,stop_signal_with_go_no_go,,,,,,,,0.0-0.0-43.0,-1.0,none,,-1,,500.0,,"<div class = fb_box><div class = center-text><font size = 20>Correct!</font></div></div><div class = prompt_box><p class = center-block-text style = ""font-size:16px; line-height:80%%;"">square: Z key</p><p class = center-block-text style = ""font-size:16px; line-height:80%%;"">circle: M key</p><p class = center-block-text style = ""font-size:16px; line-height:80%%;"">Do not respond if a star appears!</p><p class = center-block-text style = ""font-size:16px; line-height:80%%;"">Do not respond if the shape is outlined!</p></div>",,,,57744,0.0,practice-stop-feedback,43,poldrack-single-stim,
44,,,,,,,,500.0,,,,,,stop_signal_with_go_no_go,,,,,,,,0.0-0.0-44.0,-1.0,none,,-1,,500.0,,<div class = centerbox><div class = fixation>+</div></div>,,,,58247,0.0,prompt_fixation,44,poldrack-single-stim,
45,400.0,400.0,400.0,500.0,<div class = bigbox><div class = centerbox><div class = starbox><img class = center src='/static/experiments/stop_signal_with_go_no_go/images/stopSignal.png'></img></div></div></div>,go,,2000.0,,77.0,1.0,0.0,15.0,stop_signal_with_go_no_go,,,,,,1.0,go,0.0-0.0-45.0,77.0,"[90, 77]",,801,circle,1000.0,solid,<div class = bigbox><div class = centerbox><div class = gng_number><div class = cue-text><img class = center src='/static/experiments/stop_signal_with_go_no_go/images/solid_circle.png'></img></div></div></div></div>,,go,,60250,0.0,practice_trial,45,stop-signal,
46,,,,,,,,500.0,,,,,,stop_signal_with_go_no_go,,,,,,,,0.0-0.0-46.0,-1.0,none,,-1,,500.0,,"<div class = fb_box><div class = center-text><font size = 20>Correct!</font></div></div><div class = prompt_box><p class = center-block-text style = ""font-size:16px; line-height:80%%;"">square: Z key</p><p class = center-block-text style = ""font-size:16px; line-height:80%%;"">circle: M key</p><p class = center-block-text style = ""font-size:16px; line-height:80%%;"">Do not respond if a star appears!</p><p class = center-block-text style = ""font-size:16px; line-height:80%%;"">Do not respond if the shape is outlined!</p></div>",,,,60752,0.0,practice-stop-feedback,46,poldrack-single-stim,
47,,,,,,,,500.0,,,,,,stop_signal_with_go_no_go,,,,,,,,0.0-0.0-47.0,-1.0,none,,-1,,500.0,,<div class = centerbox><div class = fixation>+</div></div>,,,,61253,0.0,prompt_fixation,47,poldrack-single-stim,
48,400.0,400.0,400.0,500.0,<div class = bigbox><div class = centerbox><div class = starbox><img class = center src='/static/experiments/stop_signal_with_go_no_go/images/stopSignal.png'></img></div></div></div>,stop,,2000.0,,-1.0,1.0,0.0,16.0,stop_signal_with_go_no_go,,,,,,,go,0.0-0.0-48.0,-1.0,"[90, 77]",,-1,square,1000.0,solid,<div class = bigbox><div class = centerbox><div class = gng_number><div class = cue-text><img class = center src='/static/experiments/stop_signal_with_go_no_go/images/solid_square.png'></img></div></div></div></div>,1.0,stop,,63255,0.0,practice_trial,48,stop-signal,
49,,,,,,,,500.0,,,,,,stop_signal_with_go_no_go,,,,,,,,0.0-0.0-49.0,-1.0,none,,-1,,500.0,,"<div class = fb_box><div class = center-text><font size = 20>Correct!</font></div></div><div class = prompt_box><p class = center-block-text style = ""font-size:16px; line-height:80%%;"">square: Z key</p><p class = center-block-text style = ""font-size:16px; line-height:80%%;"">circle: M key</p><p class = center-block-text style = ""font-size:16px; line-height:80%%;"">Do not respond if a star appears!</p><p class = center-block-text style = ""font-size:16px; line-height:80%%;"">Do not respond if the shape is outlined!</p></div>",,,,63759,0.0,practice-stop-feedback,49,poldrack-single-stim,
50,,,,,,,,500.0,,,,,,stop_signal_with_go_no_go,,,,,,,,0.0-0.0-50.0,-1.0,none,,-1,,500.0,,<div class = centerbox><div class = fixation>+</div></div>,,,,64260,0.0,prompt_fixation,50,poldrack-single-stim,
51,450.0,400.0,450.0,500.0,<div class = bigbox><div class = centerbox><div class = starbox><img class = center src='/static/experiments/stop_signal_with_go_no_go/images/stopSignal.png'></img></div></div></div>,stop,,2000.0,,-1.0,1.0,0.0,17.0,stop_signal_with_go_no_go,,,,,,,go,0.0-0.0-51.0,-1.0,"[90, 77]",,-1,circle,1000.0,solid,<div class = bigbox><div class = centerbox><div class = gng_number><div class = cue-text><img class = center src='/static/experiments/stop_signal_with_go_no_go/images/solid_circle.png'></img></div></div></div></div>,1.0,stop,,66262,0.0,practice_trial,51,stop-signal,
52,,,,,,,,500.0,,,,,,stop_signal_with_go_no_go,,,,,,,,0.0-0.0-52.0,-1.0,none,,-1,,500.0,,"<div class = fb_box><div class = center-text><font size = 20>Correct!</font></div></div><div class = prompt_box><p class = center-block-text style = ""font-size:16px; line-height:80%%;"">square: Z key</p><p class = center-block-text style = ""font-size:16px; line-height:80%%;"">circle: M key</p><p class = center-block-text style = ""font-size:16px; line-height:80%%;"">Do not respond if a star appears!</p><p class = center-block-text style = ""font-size:16px; line-height:80%%;"">Do not respond if the shape is outlined!</p></div>",,,,66766,0.0,practice-stop-feedback,52,poldrack-single-stim,
53,,,,,,,,500.0,,,,,,stop_signal_with_go_no_go,,,,,,,,0.0-0.0-53.0,-1.0,none,,-1,,500.0,,<div class = centerbox><div class = fixation>+</div></div>,,,,67268,0.0,prompt_fixation,53,poldrack-single-stim,
54,500.0,400.0,500.0,500.0,<div class = bigbox><div class = centerbox><div class = starbox><img class = center src='/static/experiments/stop_signal_with_go_no_go/images/stopSignal.png'></img></div></div></div>,go,,2000.0,,90.0,1.0,0.0,18.0,stop_signal_with_go_no_go,,,,,,1.0,go,0.0-0.0-54.0,90.0,"[90, 77]",,664,square,1000.0,solid,<div class = bigbox><div class = centerbox><div class = gng_number><div class = cue-text><img class = center src='/static/experiments/stop_signal_with_go_no_go/images/solid_square.png'></img></div></div></div></div>,,go,,69270,0.0,practice_trial,54,stop-signal,
55,,,,,,,,500.0,,,,,,stop_signal_with_go_no_go,,,,,,,,0.0-0.0-55.0,-1.0,none,,-1,,500.0,,"<div class = fb_box><div class = center-text><font size = 20>Correct!</font></div></div><div class = prompt_box><p class = center-block-text style = ""font-size:16px; line-height:80%%;"">square: Z key</p><p class = center-block-text style = ""font-size:16px; line-height:80%%;"">circle: M key</p><p class = center-block-text style = ""font-size:16px; line-height:80%%;"">Do not respond if a star appears!</p><p class = center-block-text style = ""font-size:16px; line-height:80%%;"">Do not respond if the shape is outlined!</p></div>",,,,69773,0.0,practice-stop-feedback,55,poldrack-single-stim,
56,,,,,,,,500.0,,,,,,stop_signal_with_go_no_go,,,,,,,,0.0-0.0-56.0,-1.0,none,,-1,,500.0,,<div class = centerbox><div class = fixation>+</div></div>,,,,70275,0.0,prompt_fixation,56,poldrack-single-stim,
57,500.0,400.0,500.0,500.0,<div class = bigbox><div class = centerbox><div class = starbox><img class = center src='/static/experiments/stop_signal_with_go_no_go/images/stopSignal.png'></img></div></div></div>,go,,2000.0,,77.0,1.0,0.0,19.0,stop_signal_with_go_no_go,,,,,,1.0,go,0.0-0.0-57.0,77.0,"[90, 77]",,747,circle,1000.0,solid,<div class = bigbox><div class = centerbox><div class = gng_number><div class = cue-text><img class = center src='/static/experiments/stop_signal_with_go_no_go/images/solid_circle.png'></img></div></div></div></div>,,go,,72277,0.0,practice_trial,57,stop-signal,
58,,,,,,,,500.0,,,,,,stop_signal_with_go_no_go,,,,,,,,0.0-0.0-58.0,-1.0,none,,-1,,500.0,,"<div class = fb_box><div class = center-text><font size = 20>Correct!</font></div></div><div class = prompt_box><p class = center-block-text style = ""font-size:16px; line-height:80%%;"">square: Z key</p><p class = center-block-text style = ""font-size:16px; line-height:80%%;"">circle: M key</p><p class = center-block-text style = ""font-size:16px; line-height:80%%;"">Do not respond if a star appears!</p><p class = center-block-text style = ""font-size:16px; line-height:80%%;"">Do not respond if the shape is outlined!</p></div>",,,,72779,0.0,practice-stop-feedback,58,poldrack-single-stim,
59,,,,,,,,500.0,,,,,,stop_signal_with_go_no_go,,,,,,,,0.0-0.0-59.0,-1.0,none,,-1,,500.0,,<div class = centerbox><div class = fixation>+</div></div>,,,,73282,0.0,prompt_fixation,59,poldrack-single-stim,
60,500.0,400.0,500.0,500.0,<div class = bigbox><div class = centerbox><div class = starbox><img class = center src='/static/experiments/stop_signal_with_go_no_go/images/stopSignal.png'></img></div></div></div>,go,,2000.0,,77.0,1.0,0.0,20.0,stop_signal_with_go_no_go,,,,,,1.0,go,0.0-0.0-60.0,77.0,"[90, 77]",,808,circle,1000.0,solid,<div class = bigbox><div class = centerbox><div class = gng_number><div class = cue-text><img class = center src='/static/experiments/stop_signal_with_go_no_go/images/solid_circle.png'></img></div></div></div></div>,,go,,75284,0.0,practice_trial,60,stop-signal,
61,,,,,,,,500.0,,,,,,stop_signal_with_go_no_go,,,,,,,,0.0-0.0-61.0,-1.0,none,,-1,,500.0,,"<div class = fb_box><div class = center-text><font size = 20>Correct!</font></div></div><div class = prompt_box><p class = center-block-text style = ""font-size:16px; line-height:80%%;"">square: Z key</p><p class = center-block-text style = ""font-size:16px; line-height:80%%;"">circle: M key</p><p class = center-block-text style = ""font-size:16px; line-height:80%%;"">Do not respond if a star appears!</p><p class = center-block-text style = ""font-size:16px; line-height:80%%;"">Do not respond if the shape is outlined!</p></div>",,,,75788,0.0,practice-stop-feedback,61,poldrack-single-stim,
62,,,,,,,,500.0,,,,,,stop_signal_with_go_no_go,,,,,,,,0.0-0.0-62.0,-1.0,none,,-1,,500.0,,<div class = centerbox><div class = fixation>+</div></div>,,,,76290,0.0,prompt_fixation,62,poldrack-single-stim,
63,500.0,400.0,500.0,500.0,<div class = bigbox><div class = centerbox><div class = starbox><img class = center src='/static/experiments/stop_signal_with_go_no_go/images/stopSignal.png'></img></div></div></div>,stop,,2000.0,,-1.0,0.0,0.0,21.0,stop_signal_with_go_no_go,,,,,,,go,0.0-0.0-63.0,90.0,"[90, 77]",,706,square,1000.0,solid,<div class = bigbox><div class = centerbox><div class = gng_number><div class = cue-text><img class = center src='/static/experiments/stop_signal_with_go_no_go/images/solid_square.png'></img></div></div></div></div>,0.0,stop,,78292,0.0,practice_trial,63,stop-signal,
64,,,,,,,,500.0,,,,,,stop_signal_with_go_no_go,,,,,,,,0.0-0.0-64.0,-1.0,none,,-1,,500.0,,"<div class = fb_box><div class = center-text><font size = 20>There was a star.</font></div></div><div class = prompt_box><p class = center-block-text style = ""font-size:16px; line-height:80%%;"">square: Z key</p><p class = center-block-text style = ""font-size:16px; line-height:80%%;"">circle: M key</p><p class = center-block-text style = ""font-size:16px; line-height:80%%;"">Do not respond if a star appears!</p><p class = center-block-text style = ""font-size:16px; line-height:80%%;"">Do not respond if the shape is outlined!</p></div>",,,,78795,0.0,practice-stop-feedback,64,poldrack-single-stim,
65,,,,,,,,500.0,,,,,,stop_signal_with_go_no_go,,,,,,,,0.0-0.0-65.0,-1.0,none,,-1,,500.0,,<div class = centerbox><div class = fixation>+</div></div>,,,,79297,0.0,prompt_fixation,65,poldrack-single-stim,
66,450.0,400.0,450.0,500.0,<div class = bigbox><div class = centerbox><div class = starbox><img class = center src='/static/experiments/stop_signal_with_go_no_go/images/stopSignal.png'></img></div></div></div>,stop,,2000.0,,-1.0,1.0,0.0,22.0,stop_signal_with_go_no_go,,,,,,,go,0.0-0.0-66.0,-1.0,"[90, 77]",,-1,circle,1000.0,solid,<div class = bigbox><div class = centerbox><div class = gng_number><div class = cue-text><img class = center src='/static/experiments/stop_signal_with_go_no_go/images/solid_circle.png'></img></div></div></div></div>,1.0,stop,,81298,0.0,practice_trial,66,stop-signal,
67,,,,,,,,500.0,,,,,,stop_signal_with_go_no_go,,,,,,,,0.0-0.0-67.0,-1.0,none,,-1,,500.0,,"<div class = fb_box><div class = center-text><font size = 20>Correct!</font></div></div><div class = prompt_box><p class = center-block-text style = ""font-size:16px; line-height:80%%;"">square: Z key</p><p class = center-block-text style = ""font-size:16px; line-height:80%%;"">circle: M key</p><p class = center-block-text style = ""font-size:16px; line-height:80%%;"">Do not respond if a star appears!</p><p class = center-block-text style = ""font-size:16px; line-height:80%%;"">Do not respond if the shape is outlined!</p></div>",,,,81801,0.0,practice-stop-feedback,67,poldrack-single-stim,
68,,,,,,,,500.0,,,,,,stop_signal_with_go_no_go,,,,,,,,0.0-0.0-68.0,-1.0,none,,-1,,500.0,,<div class = centerbox><div class = fixation>+</div></div>,,,,82304,0.0,prompt_fixation,68,poldrack-single-stim,
69,500.0,400.0,400.0,500.0,<div class = bigbox><div class = centerbox><div class = starbox><img class = center src='/static/experiments/stop_signal_with_go_no_go/images/stopSignal.png'></img></div></div></div>,go,,2000.0,,-1.0,1.0,0.0,23.0,stop_signal_with_go_no_go,,,,,,1.0,nogo,0.0-0.0-69.0,-1.0,"[90, 77]",,-1,square,1000.0,outlined,<div class = bigbox><div class = centerbox><div class = gng_number><div class = cue-text><img class = center src='/static/experiments/stop_signal_with_go_no_go/images/outlined_square.png'></img></div></div></div></div>,,go,,84306,0.0,practice_trial,69,stop-signal,
70,,,,,,,,500.0,,,,,,stop_signal_with_go_no_go,,,,,,,,0.0-0.0-70.0,-1.0,none,,-1,,500.0,,"<div class = fb_box><div class = center-text><font size = 20>Correct!</font></div></div><div class = prompt_box><p class = center-block-text style = ""font-size:16px; line-height:80%%;"">square: Z key</p><p class = center-block-text style = ""font-size:16px; line-height:80%%;"">circle: M key</p><p class = center-block-text style = ""font-size:16px; line-height:80%%;"">Do not respond if a star appears!</p><p class = center-block-text style = ""font-size:16px; line-height:80%%;"">Do not respond if the shape is outlined!</p></div>",,,,84808,0.0,practice-stop-feedback,70,poldrack-single-stim,
71,,,,,,,,500.0,,,,,,stop_signal_with_go_no_go,,,,,,,,0.0-0.0-71.0,-1.0,none,,-1,,500.0,,<div class = centerbox><div class = fixation>+</div></div>,,,,85310,0.0,prompt_fixation,71,poldrack-single-stim,
72,500.0,400.0,500.0,500.0,<div class = bigbox><div class = centerbox><div class = starbox><img class = center src='/static/experiments/stop_signal_with_go_no_go/images/stopSignal.png'></img></div></div></div>,stop,,2000.0,,-1.0,1.0,0.0,24.0,stop_signal_with_go_no_go,,,,,,,go,0.0-0.0-72.0,-1.0,"[90, 77]",,-1,circle,1000.0,solid,<div class = bigbox><div class = centerbox><div class = gng_number><div class = cue-text><img class = center src='/static/experiments/stop_signal_with_go_no_go/images/solid_circle.png'></img></div></div></div></div>,1.0,stop,,87312,0.0,practice_trial,72,stop-signal,
73,,,,,,,,500.0,,,,,,stop_signal_with_go_no_go,,,,,,,,0.0-0.0-73.0,-1.0,none,,-1,,500.0,,"<div class = fb_box><div class = center-text><font size = 20>Correct!</font></div></div><div class = prompt_box><p class = center-block-text style = ""font-size:16px; line-height:80%%;"">square: Z key</p><p class = center-block-text style = ""font-size:16px; line-height:80%%;"">circle: M key</p><p class = center-block-text style = ""font-size:16px; line-height:80%%;"">Do not respond if a star appears!</p><p class = center-block-text style = ""font-size:16px; line-height:80%%;"">Do not respond if the shape is outlined!</p></div>",,,,87814,0.0,practice-stop-feedback,73,poldrack-single-stim,
74,,,,,,,,500.0,,,,,,stop_signal_with_go_no_go,,,,,,,,0.0-0.0-74.0,-1.0,none,,-1,,500.0,,<div class = centerbox><div class = fixation>+</div></div>,,,,88318,0.0,prompt_fixation,74,poldrack-single-stim,
75,550.0,400.0,550.0,500.0,<div class = bigbox><div class = centerbox><div class = starbox><img class = center src='/static/experiments/stop_signal_with_go_no_go/images/stopSignal.png'></img></div></div></div>,go,,2000.0,,90.0,1.0,0.0,25.0,stop_signal_with_go_no_go,,,,,,1.0,go,0.0-0.0-75.0,90.0,"[90, 77]",,860,square,1000.0,solid,<div class = bigbox><div class = centerbox><div class = gng_number><div class = cue-text><img class = center src='/static/experiments/stop_signal_with_go_no_go/images/solid_square.png'></img></div></div></div></div>,,go,,90319,0.0,practice_trial,75,stop-signal,
76,,,,,,,,500.0,,,,,,stop_signal_with_go_no_go,,,,,,,,0.0-0.0-76.0,-1.0,none,,-1,,500.0,,"<div class = fb_box><div class = center-text><font size = 20>Correct!</font></div></div><div class = prompt_box><p class = center-block-text style = ""font-size:16px; line-height:80%%;"">square: Z key</p><p class = center-block-text style = ""font-size:16px; line-height:80%%;"">circle: M key</p><p class = center-block-text style = ""font-size:16px; line-height:80%%;"">Do not respond if a star appears!</p><p class = center-block-text style = ""font-size:16px; line-height:80%%;"">Do not respond if the shape is outlined!</p></div>",,,,90821,0.0,practice-stop-feedback,76,poldrack-single-stim,
77,,,,,,,,500.0,,,,,,stop_signal_with_go_no_go,,,,,,,,0.0-0.0-77.0,-1.0,none,,-1,,500.0,,<div class = centerbox><div class = fixation>+</div></div>,,,,91323,0.0,prompt_fixation,77,poldrack-single-stim,
78,550.0,400.0,550.0,500.0,<div class = bigbox><div class = centerbox><div class = starbox><img class = center src='/static/experiments/stop_signal_with_go_no_go/images/stopSignal.png'></img></div></div></div>,go,,2000.0,,90.0,1.0,0.0,26.0,stop_signal_with_go_no_go,,,,,,1.0,go,0.0-0.0-78.0,90.0,"[90, 77]",,754,square,1000.0,solid,<div class = bigbox><div class = centerbox><div class = gng_number><div class = cue-text><img class = center src='/static/experiments/stop_signal_with_go_no_go/images/solid_square.png'></img></div></div></div></div>,,go,,93325,0.0,practice_trial,78,stop-signal,
79,,,,,,,,500.0,,,,,,stop_signal_with_go_no_go,,,,,,,,0.0-0.0-79.0,-1.0,none,,-1,,500.0,,"<div class = fb_box><div class = center-text><font size = 20>Correct!</font></div></div><div class = prompt_box><p class = center-block-text style = ""font-size:16px; line-height:80%%;"">square: Z key</p><p class = center-block-text style = ""font-size:16px; line-height:80%%;"">circle: M key</p><p class = center-block-text style = ""font-size:16px; line-height:80%%;"">Do not respond if a star appears!</p><p class = center-block-text style = ""font-size:16px; line-height:80%%;"">Do not respond if the shape is outlined!</p></div>",,,,93827,0.0,practice-stop-feedback,79,poldrack-single-stim,
80,,,,,,,,500.0,,,,,,stop_signal_with_go_no_go,,,,,,,,0.0-0.0-80.0,-1.0,none,,-1,,500.0,,<div class = centerbox><div class = fixation>+</div></div>,,,,94329,0.0,prompt_fixation,80,poldrack-single-stim,
81,550.0,400.0,400.0,500.0,<div class = bigbox><div class = centerbox><div class = starbox><img class = center src='/static/experiments/stop_signal_with_go_no_go/images/stopSignal.png'></img></div></div></div>,go,,2000.0,,-1.0,1.0,0.0,27.0,stop_signal_with_go_no_go,,,,,,1.0,nogo,0.0-0.0-81.0,-1.0,"[90, 77]",,-1,circle,1000.0,outlined,<div class = bigbox><div class = centerbox><div class = gng_number><div class = cue-text><img class = center src='/static/experiments/stop_signal_with_go_no_go/images/outlined_circle.png'></img></div></div></div></div>,,go,,96331,0.0,practice_trial,81,stop-signal,
82,,,,,,,,500.0,,,,,,stop_signal_with_go_no_go,,,,,,,,0.0-0.0-82.0,-1.0,none,,-1,,500.0,,"<div class = fb_box><div class = center-text><font size = 20>Correct!</font></div></div><div class = prompt_box><p class = center-block-text style = ""font-size:16px; line-height:80%%;"">square: Z key</p><p class = center-block-text style = ""font-size:16px; line-height:80%%;"">circle: M key</p><p class = center-block-text style = ""font-size:16px; line-height:80%%;"">Do not respond if a star appears!</p><p class = center-block-text style = ""font-size:16px; line-height:80%%;"">Do not respond if the shape is outlined!</p></div>",,,,96833,0.0,practice-stop-feedback,82,poldrack-single-stim,
83,,,,,,,,500.0,,,,,,stop_signal_with_go_no_go,,,,,,,,0.0-0.0-83.0,-1.0,none,,-1,,500.0,,<div class = centerbox><div class = fixation>+</div></div>,,,,97336,0.0,prompt_fixation,83,poldrack-single-stim,
84,550.0,400.0,550.0,500.0,<div class = bigbox><div class = centerbox><div class = starbox><img class = center src='/static/experiments/stop_signal_with_go_no_go/images/stopSignal.png'></img></div></div></div>,go,,2000.0,,90.0,1.0,0.0,28.0,stop_signal_with_go_no_go,,,,,,1.0,go,0.0-0.0-84.0,90.0,"[90, 77]",,751,square,1000.0,solid,<div class = bigbox><div class = centerbox><div class = gng_number><div class = cue-text><img class = center src='/static/experiments/stop_signal_with_go_no_go/images/solid_square.png'></img></div></div></div></div>,,go,,99340,0.0,practice_trial,84,stop-signal,
85,,,,,,,,500.0,,,,,,stop_signal_with_go_no_go,,,,,,,,0.0-0.0-85.0,-1.0,none,,-1,,500.0,,"<div class = fb_box><div class = center-text><font size = 20>Correct!</font></div></div><div class = prompt_box><p class = center-block-text style = ""font-size:16px; line-height:80%%;"">square: Z key</p><p class = center-block-text style = ""font-size:16px; line-height:80%%;"">circle: M key</p><p class = center-block-text style = ""font-size:16px; line-height:80%%;"">Do not respond if a star appears!</p><p class = center-block-text style = ""font-size:16px; line-height:80%%;"">Do not respond if the shape is outlined!</p></div>",,,,99842,0.0,practice-stop-feedback,85,poldrack-single-stim,
86,,,,,,,,500.0,,,,,,stop_signal_with_go_no_go,,,,,,,,0.0-0.0-86.0,-1.0,none,,-1,,500.0,,<div class = centerbox><div class = fixation>+</div></div>,,,,100344,0.0,prompt_fixation,86,poldrack-single-stim,
87,550.0,400.0,550.0,500.0,<div class = bigbox><div class = centerbox><div class = starbox><img class = center src='/static/experiments/stop_signal_with_go_no_go/images/stopSignal.png'></img></div></div></div>,go,,2000.0,,90.0,1.0,0.0,29.0,stop_signal_with_go_no_go,,,,,,1.0,go,0.0-0.0-87.0,90.0,"[90, 77]",,677,square,1000.0,solid,<div class = bigbox><div class = centerbox><div class = gng_number><div class = cue-text><img class = center src='/static/experiments/stop_signal_with_go_no_go/images/solid_square.png'></img></div></div></div></div>,,go,,102346,0.0,practice_trial,87,stop-signal,
88,,,,,,,,500.0,,,,,,stop_signal_with_go_no_go,,,,,,,,0.0-0.0-88.0,-1.0,none,,-1,,500.0,,"<div class = fb_box><div class = center-text><font size = 20>Correct!</font></div></div><div class = prompt_box><p class = center-block-text style = ""font-size:16px; line-height:80%%;"">square: Z key</p><p class = center-block-text style = ""font-size:16px; line-height:80%%;"">circle: M key</p><p class = center-block-text style = ""font-size:16px; line-height:80%%;"">Do not respond if a star appears!</p><p class = center-block-text style = ""font-size:16px; line-height:80%%;"">Do not respond if the shape is outlined!</p></div>",,,,102849,0.0,practice-stop-feedback,88,poldrack-single-stim,
89,,,,,,,,500.0,,,,,,stop_signal_with_go_no_go,,,,,,,,0.0-0.0-89.0,-1.0,none,,-1,,500.0,,<div class = centerbox><div class = fixation>+</div></div>,,,,103351,0.0,prompt_fixation,89,poldrack-single-stim,
90,550.0,400.0,550.0,500.0,<div class = bigbox><div class = centerbox><div class = starbox><img class = center src='/static/experiments/stop_signal_with_go_no_go/images/stopSignal.png'></img></div></div></div>,go,,2000.0,,77.0,1.0,0.0,30.0,stop_signal_with_go_no_go,,,,,,1.0,go,0.0-0.0-90.0,77.0,"[90, 77]",,875,circle,1000.0,solid,<div class = bigbox><div class = centerbox><div class = gng_number><div class = cue-text><img class = center src='/static/experiments/stop_signal_with_go_no_go/images/solid_circle.png'></img></div></div></div></div>,,go,,105354,0.0,practice_trial,90,stop-signal,
91,,,,,,,,500.0,,,,,,stop_signal_with_go_no_go,,,,,,,,0.0-0.0-91.0,-1.0,none,,-1,,500.0,,"<div class = fb_box><div class = center-text><font size = 20>Correct!</font></div></div><div class = prompt_box><p class = center-block-text style = ""font-size:16px; line-height:80%%;"">square: Z key</p><p class = center-block-text style = ""font-size:16px; line-height:80%%;"">circle: M key</p><p class = center-block-text style = ""font-size:16px; line-height:80%%;"">Do not respond if a star appears!</p><p class = center-block-text style = ""font-size:16px; line-height:80%%;"">Do not respond if the shape is outlined!</p></div>",,,,105857,0.0,practice-stop-feedback,91,poldrack-single-stim,
92,,,,,,,,500.0,,,,,,stop_signal_with_go_no_go,,,,,,,,0.0-0.0-92.0,-1.0,none,,-1,,500.0,,<div class = centerbox><div class = fixation>+</div></div>,,,,106360,0.0,prompt_fixation,92,poldrack-single-stim,
93,550.0,400.0,550.0,500.0,<div class = bigbox><div class = centerbox><div class = starbox><img class = center src='/static/experiments/stop_signal_with_go_no_go/images/stopSignal.png'></img></div></div></div>,stop,,2000.0,,-1.0,0.0,0.0,31.0,stop_signal_with_go_no_go,,,,,,,go,0.0-0.0-93.0,90.0,"[90, 77]",,706,square,1000.0,solid,<div class = bigbox><div class = centerbox><div class = gng_number><div class = cue-text><img class = center src='/static/experiments/stop_signal_with_go_no_go/images/solid_square.png'></img></div></div></div></div>,0.0,stop,,108361,0.0,practice_trial,93,stop-signal,
94,,,,,,,,500.0,,,,,,stop_signal_with_go_no_go,,,,,,,,0.0-0.0-94.0,-1.0,none,,-1,,500.0,,"<div class = fb_box><div class = center-text><font size = 20>There was a star.</font></div></div><div class = prompt_box><p class = center-block-text style = ""font-size:16px; line-height:80%%;"">square: Z key</p><p class = center-block-text style = ""font-size:16px; line-height:80%%;"">circle: M key</p><p class = center-block-text style = ""font-size:16px; line-height:80%%;"">Do not respond if a star appears!</p><p class = center-block-text style = ""font-size:16px; line-height:80%%;"">Do not respond if the shape is outlined!</p></div>",,,,108863,0.0,practice-stop-feedback,94,poldrack-single-stim,
95,,,,,,,,500.0,,,,,,stop_signal_with_go_no_go,,,,,,,,0.0-0.0-95.0,-1.0,none,,-1,,500.0,,<div class = centerbox><div class = fixation>+</div></div>,,,,109365,0.0,prompt_fixation,95,poldrack-single-stim,
96,500.0,400.0,500.0,500.0,<div class = bigbox><div class = centerbox><div class = starbox><img class = center src='/static/experiments/stop_signal_with_go_no_go/images/stopSignal.png'></img></div></div></div>,stop,,2000.0,,-1.0,1.0,0.0,32.0,stop_signal_with_go_no_go,,,,,,,go,0.0-0.0-96.0,-1.0,"[90, 77]",,-1,circle,1000.0,solid,<div class = bigbox><div class = centerbox><div class = gng_number><div class = cue-text><img class = center src='/static/experiments/stop_signal_with_go_no_go/images/solid_circle.png'></img></div></div></div></div>,1.0,stop,,111368,0.0,practice_trial,96,stop-signal,
97,,,,,,,,500.0,,,,,,stop_signal_with_go_no_go,,,,,,,,0.0-0.0-97.0,-1.0,none,,-1,,500.0,,"<div class = fb_box><div class = center-text><font size = 20>Correct!</font></div></div><div class = prompt_box><p class = center-block-text style = ""font-size:16px; line-height:80%%;"">square: Z key</p><p class = center-block-text style = ""font-size:16px; line-height:80%%;"">circle: M key</p><p class = center-block-text style = ""font-size:16px; line-height:80%%;"">Do not respond if a star appears!</p><p class = center-block-text style = ""font-size:16px; line-height:80%%;"">Do not respond if the shape is outlined!</p></div>",,,,111871,0.0,practice-stop-feedback,97,poldrack-single-stim,
98,,,,,,,,500.0,,,,,,stop_signal_with_go_no_go,,,,,,,,0.0-0.0-98.0,-1.0,none,,-1,,500.0,,<div class = centerbox><div class = fixation>+</div></div>,,,,112374,0.0,prompt_fixation,98,poldrack-single-stim,
99,550.0,400.0,400.0,500.0,<div class = bigbox><div class = centerbox><div class = starbox><img class = center src='/static/experiments/stop_signal_with_go_no_go/images/stopSignal.png'></img></div></div></div>,go,,2000.0,,-1.0,1.0,0.0,33.0,stop_signal_with_go_no_go,,,,,,1.0,nogo,0.0-0.0-99.0,-1.0,"[90, 77]",,-1,circle,1000.0,outlined,<div class = bigbox><div class = centerbox><div class = gng_number><div class = cue-text><img class = center src='/static/experiments/stop_signal_with_go_no_go/images/outlined_circle.png'></img></div></div></div></div>,,go,,114376,0.0,practice_trial,99,stop-signal,
100,,,,,,,,500.0,,,,,,stop_signal_with_go_no_go,,,,,,,,0.0-0.0-100.0,-1.0,none,,-1,,500.0,,"<div class = fb_box><div class = center-text><font size = 20>Correct!</font></div></div><div class = prompt_box><p class = center-block-text style = ""font-size:16px; line-height:80%%;"">square: Z key</p><p class = center-block-text style = ""font-size:16px; line-height:80%%;"">circle: M key</p><p class = center-block-text style = ""font-size:16px; line-height:80%%;"">Do not respond if a star appears!</p><p class = center-block-text style = ""font-size:16px; line-height:80%%;"">Do not respond if the shape is outlined!</p></div>",,,,114881,0.0,practice-stop-feedback,100,poldrack-single-stim,
101,,,,,,,,500.0,,,,,,stop_signal_with_go_no_go,,,,,,,,0.0-0.0-101.0,-1.0,none,,-1,,500.0,,<div class = centerbox><div class = fixation>+</div></div>,,,,115383,0.0,prompt_fixation,101,poldrack-single-stim,
102,550.0,400.0,550.0,500.0,<div class = bigbox><div class = centerbox><div class = starbox><img class = center src='/static/experiments/stop_signal_with_go_no_go/images/stopSignal.png'></img></div></div></div>,go,,2000.0,,77.0,1.0,0.0,34.0,stop_signal_with_go_no_go,,,,,,1.0,go,0.0-0.0-102.0,77.0,"[90, 77]",,890,circle,1000.0,solid,<div class = bigbox><div class = centerbox><div class = gng_number><div class = cue-text><img class = center src='/static/experiments/stop_signal_with_go_no_go/images/solid_circle.png'></img></div></div></div></div>,,go,,117388,0.0,practice_trial,102,stop-signal,
103,,,,,,,,500.0,,,,,,stop_signal_with_go_no_go,,,,,,,,0.0-0.0-103.0,-1.0,none,,-1,,500.0,,"<div class = fb_box><div class = center-text><font size = 20>Correct!</font></div></div><div class = prompt_box><p class = center-block-text style = ""font-size:16px; line-height:80%%;"">square: Z key</p><p class = center-block-text style = ""font-size:16px; line-height:80%%;"">circle: M key</p><p class = center-block-text style = ""font-size:16px; line-height:80%%;"">Do not respond if a star appears!</p><p class = center-block-text style = ""font-size:16px; line-height:80%%;"">Do not respond if the shape is outlined!</p></div>",,,,117890,0.0,practice-stop-feedback,103,poldrack-single-stim,
104,,,,,,,,500.0,,,,,,stop_signal_with_go_no_go,,,,,,,,0.0-0.0-104.0,-1.0,none,,-1,,500.0,,<div class = centerbox><div class = fixation>+</div></div>,,,,118391,0.0,prompt_fixation,104,poldrack-single-stim,
105,550.0,400.0,550.0,500.0,<div class = bigbox><div class = centerbox><div class = starbox><img class = center src='/static/experiments/stop_signal_with_go_no_go/images/stopSignal.png'></img></div></div></div>,go,,2000.0,,90.0,1.0,0.0,35.0,stop_signal_with_go_no_go,,,,,,1.0,go,0.0-0.0-105.0,90.0,"[90, 77]",,760,square,1000.0,solid,<div class = bigbox><div class = centerbox><div class = gng_number><div class = cue-text><img class = center src='/static/experiments/stop_signal_with_go_no_go/images/solid_square.png'></img></div></div></div></div>,,go,,120393,0.0,practice_trial,105,stop-signal,
106,,,,,,,,500.0,,,,,,stop_signal_with_go_no_go,,,,,,,,0.0-0.0-106.0,-1.0,none,,-1,,500.0,,"<div class = fb_box><div class = center-text><font size = 20>Correct!</font></div></div><div class = prompt_box><p class = center-block-text style = ""font-size:16px; line-height:80%%;"">square: Z key</p><p class = center-block-text style = ""font-size:16px; line-height:80%%;"">circle: M key</p><p class = center-block-text style = ""font-size:16px; line-height:80%%;"">Do not respond if a star appears!</p><p class = center-block-text style = ""font-size:16px; line-height:80%%;"">Do not respond if the shape is outlined!</p></div>",,,,120896,0.0,practice-stop-feedback,106,poldrack-single-stim,
107,,,,,,,,500.0,,,,,,stop_signal_with_go_no_go,,,,,,,,0.0-0.0-107.0,-1.0,none,,-1,,500.0,,<div class = centerbox><div class = fixation>+</div></div>,,,,121398,0.0,prompt_fixation,107,poldrack-single-stim,
108,550.0,400.0,550.0,500.0,<div class = bigbox><div class = centerbox><div class = starbox><img class = center src='/static/experiments/stop_signal_with_go_no_go/images/stopSignal.png'></img></div></div></div>,go,,2000.0,,90.0,0.0,0.0,36.0,stop_signal_with_go_no_go,,,,,,0.0,go,0.0-0.0-108.0,77.0,"[90, 77]",,710,square,1000.0,solid,<div class = bigbox><div class = centerbox><div class = gng_number><div class = cue-text><img class = center src='/static/experiments/stop_signal_with_go_no_go/images/solid_square.png'></img></div></div></div></div>,,go,,123401,0.0,practice_trial,108,stop-signal,
109,,,,,,,,500.0,,,,,,stop_signal_with_go_no_go,,,,,,,,0.0-0.0-109.0,-1.0,none,,-1,,500.0,,"<div class = fb_box><div class = center-text><font size = 20>Incorrect</font></div></div><div class = prompt_box><p class = center-block-text style = ""font-size:16px; line-height:80%%;"">square: Z key</p><p class = center-block-text style = ""font-size:16px; line-height:80%%;"">circle: M key</p><p class = center-block-text style = ""font-size:16px; line-height:80%%;"">Do not respond if a star appears!</p><p class = center-block-text style = ""font-size:16px; line-height:80%%;"">Do not respond if the shape is outlined!</p></div>",,,,123906,0.0,practice-stop-feedback,109,poldrack-single-stim,
110,,,,,,,,500.0,,,,,,stop_signal_with_go_no_go,,,,,,,,0.0-0.0-110.0,-1.0,none,,-1,,500.0,,<div class = centerbox><div class = fixation>+</div></div>,,,,124409,0.0,prompt_fixation,110,poldrack-single-stim,
111,550.0,400.0,550.0,500.0,<div class = bigbox><div class = centerbox><div class = starbox><img class = center src='/static/experiments/stop_signal_with_go_no_go/images/stopSignal.png'></img></div></div></div>,stop,,2000.0,,-1.0,0.0,0.0,37.0,stop_signal_with_go_no_go,,,,,,,go,0.0-0.0-111.0,90.0,"[90, 77]",,667,square,1000.0,solid,<div class = bigbox><div class = centerbox><div class = gng_number><div class = cue-text><img class = center src='/static/experiments/stop_signal_with_go_no_go/images/solid_square.png'></img></div></div></div></div>,0.0,stop,,126412,0.0,practice_trial,111,stop-signal,
112,,,,,,,,500.0,,,,,,stop_signal_with_go_no_go,,,,,,,,0.0-0.0-112.0,-1.0,none,,-1,,500.0,,"<div class = fb_box><div class = center-text><font size = 20>There was a star.</font></div></div><div class = prompt_box><p class = center-block-text style = ""font-size:16px; line-height:80%%;"">square: Z key</p><p class = center-block-text style = ""font-size:16px; line-height:80%%;"">circle: M key</p><p class = center-block-text style = ""font-size:16px; line-height:80%%;"">Do not respond if a star appears!</p><p class = center-block-text style = ""font-size:16px; line-height:80%%;"">Do not respond if the shape is outlined!</p></div>",,,,126915,0.0,practice-stop-feedback,112,poldrack-single-stim,
113,,,,,,,,500.0,,,,,,stop_signal_with_go_no_go,,,,,,,,0.0-0.0-113.0,-1.0,none,,-1,,500.0,,<div class = centerbox><div class = fixation>+</div></div>,,,,127417,0.0,prompt_fixation,113,poldrack-single-stim,
114,500.0,400.0,500.0,500.0,<div class = bigbox><div class = centerbox><div class = starbox><img class = center src='/static/experiments/stop_signal_with_go_no_go/images/stopSignal.png'></img></div></div></div>,go,,2000.0,,77.0,1.0,0.0,38.0,stop_signal_with_go_no_go,,,,,,1.0,go,0.0-0.0-114.0,77.0,"[90, 77]",,881,circle,1000.0,solid,<div class = bigbox><div class = centerbox><div class = gng_number><div class = cue-text><img class = center src='/static/experiments/stop_signal_with_go_no_go/images/solid_circle.png'></img></div></div></div></div>,,go,,129420,0.0,practice_trial,114,stop-signal,
115,,,,,,,,500.0,,,,,,stop_signal_with_go_no_go,,,,,,,,0.0-0.0-115.0,-1.0,none,,-1,,500.0,,"<div class = fb_box><div class = center-text><font size = 20>Correct!</font></div></div><div class = prompt_box><p class = center-block-text style = ""font-size:16px; line-height:80%%;"">square: Z key</p><p class = center-block-text style = ""font-size:16px; line-height:80%%;"">circle: M key</p><p class = center-block-text style = ""font-size:16px; line-height:80%%;"">Do not respond if a star appears!</p><p class = center-block-text style = ""font-size:16px; line-height:80%%;"">Do not respond if the shape is outlined!</p></div>",,,,129922,0.0,practice-stop-feedback,115,poldrack-single-stim,
116,,,,,,,,500.0,,,,,,stop_signal_with_go_no_go,,,,,,,,0.0-0.0-116.0,-1.0,none,,-1,,500.0,,<div class = centerbox><div class = fixation>+</div></div>,,,,130424,0.0,prompt_fixation,116,poldrack-single-stim,
117,500.0,400.0,500.0,500.0,<div class = bigbox><div class = centerbox><div class = starbox><img class = center src='/static/experiments/stop_signal_with_go_no_go/images/stopSignal.png'></img></div></div></div>,go,,2000.0,,77.0,1.0,0.0,39.0,stop_signal_with_go_no_go,,,,,,1.0,go,0.0-0.0-117.0,77.0,"[90, 77]",,847,circle,1000.0,solid,<div class = bigbox><div class = centerbox><div class = gng_number><div class = cue-text><img class = center src='/static/experiments/stop_signal_with_go_no_go/images/solid_circle.png'></img></div></div></div></div>,,go,,132427,0.0,practice_trial,117,stop-signal,
118,,,,,,,,500.0,,,,,,stop_signal_with_go_no_go,,,,,,,,0.0-0.0-118.0,-1.0,none,,-1,,500.0,,"<div class = fb_box><div class = center-text><font size = 20>Correct!</font></div></div><div class = prompt_box><p class = center-block-text style = ""font-size:16px; line-height:80%%;"">square: Z key</p><p class = center-block-text style = ""font-size:16px; line-height:80%%;"">circle: M key</p><p class = center-block-text style = ""font-size:16px; line-height:80%%;"">Do not respond if a star appears!</p><p class = center-block-text style = ""font-size:16px; line-height:80%%;"">Do not respond if the shape is outlined!</p></div>",,,,132930,0.0,practice-stop-feedback,118,poldrack-single-stim,
119,,,,,,,,500.0,,,,,,stop_signal_with_go_no_go,,,,,,,,0.0-0.0-119.0,-1.0,none,,-1,,500.0,,<div class = centerbox><div class = fixation>+</div></div>,,,,133432,0.0,prompt_fixation,119,poldrack-single-stim,
120,500.0,400.0,500.0,500.0,<div class = bigbox><div class = centerbox><div class = starbox><img class = center src='/static/experiments/stop_signal_with_go_no_go/images/stopSignal.png'></img></div></div></div>,go,,2000.0,,77.0,1.0,0.0,40.0,stop_signal_with_go_no_go,,,,,,1.0,go,0.0-0.0-120.0,77.0,"[90, 77]",,796,circle,1000.0,solid,<div class = bigbox><div class = centerbox><div class = gng_number><div class = cue-text><img class = center src='/static/experiments/stop_signal_with_go_no_go/images/solid_circle.png'></img></div></div></div></div>,,go,,135434,0.0,practice_trial,120,stop-signal,
121,,,,,,,,500.0,,,,,,stop_signal_with_go_no_go,,,,,,,,0.0-0.0-121.0,-1.0,none,,-1,,500.0,,"<div class = fb_box><div class = center-text><font size = 20>Correct!</font></div></div><div class = prompt_box><p class = center-block-text style = ""font-size:16px; line-height:80%%;"">square: Z key</p><p class = center-block-text style = ""font-size:16px; line-height:80%%;"">circle: M key</p><p class = center-block-text style = ""font-size:16px; line-height:80%%;"">Do not respond if a star appears!</p><p class = center-block-text style = ""font-size:16px; line-height:80%%;"">Do not respond if the shape is outlined!</p></div>",,,,135938,0.0,practice-stop-feedback,121,poldrack-single-stim,
122,,,,,,,,500.0,,,,,,stop_signal_with_go_no_go,,,,,,,,0.0-0.0-122.0,-1.0,none,,-1,,500.0,,<div class = centerbox><div class = fixation>+</div></div>,,,,136441,0.0,prompt_fixation,122,poldrack-single-stim,
123,500.0,400.0,400.0,500.0,<div class = bigbox><div class = centerbox><div class = starbox><img class = center src='/static/experiments/stop_signal_with_go_no_go/images/stopSignal.png'></img></div></div></div>,stop,,2000.0,,-1.0,1.0,0.0,41.0,stop_signal_with_go_no_go,,,,,,,nogo,0.0-0.0-123.0,-1.0,"[90, 77]",,-1,square,1000.0,outlined,<div class = bigbox><div class = centerbox><div class = gng_number><div class = cue-text><img class = center src='/static/experiments/stop_signal_with_go_no_go/images/outlined_square.png'></img></div></div></div></div>,1.0,stop,,138443,0.0,practice_trial,123,stop-signal,
124,,,,,,,,500.0,,,,,,stop_signal_with_go_no_go,,,,,,,,0.0-0.0-124.0,-1.0,none,,-1,,500.0,,"<div class = fb_box><div class = center-text><font size = 20>Correct!</font></div></div><div class = prompt_box><p class = center-block-text style = ""font-size:16px; line-height:80%%;"">square: Z key</p><p class = center-block-text style = ""font-size:16px; line-height:80%%;"">circle: M key</p><p class = center-block-text style = ""font-size:16px; line-height:80%%;"">Do not respond if a star appears!</p><p class = center-block-text style = ""font-size:16px; line-height:80%%;"">Do not respond if the shape is outlined!</p></div>",,,,138946,0.0,practice-stop-feedback,124,poldrack-single-stim,
125,,,,,,,,500.0,,,,,,stop_signal_with_go_no_go,,,,,,,,0.0-0.0-125.0,-1.0,none,,-1,,500.0,,<div class = centerbox><div class = fixation>+</div></div>,,,,139450,0.0,prompt_fixation,125,poldrack-single-stim,
126,500.0,450.0,500.0,500.0,<div class = bigbox><div class = centerbox><div class = starbox><img class = center src='/static/experiments/stop_signal_with_go_no_go/images/stopSignal.png'></img></div></div></div>,stop,,2000.0,,-1.0,1.0,0.0,42.0,stop_signal_with_go_no_go,,,,,,,go,0.0-0.0-126.0,-1.0,"[90, 77]",,-1,square,1000.0,solid,<div class = bigbox><div class = centerbox><div class = gng_number><div class = cue-text><img class = center src='/static/experiments/stop_signal_with_go_no_go/images/solid_square.png'></img></div></div></div></div>,1.0,stop,,141451,0.0,practice_trial,126,stop-signal,
127,,,,,,,,500.0,,,,,,stop_signal_with_go_no_go,,,,,,,,0.0-0.0-127.0,-1.0,none,,-1,,500.0,,"<div class = fb_box><div class = center-text><font size = 20>Correct!</font></div></div><div class = prompt_box><p class = center-block-text style = ""font-size:16px; line-height:80%%;"">square: Z key</p><p class = center-block-text style = ""font-size:16px; line-height:80%%;"">circle: M key</p><p class = center-block-text style = ""font-size:16px; line-height:80%%;"">Do not respond if a star appears!</p><p class = center-block-text style = ""font-size:16px; line-height:80%%;"">Do not respond if the shape is outlined!</p></div>",,,,141953,0.0,practice-stop-feedback,127,poldrack-single-stim,
128,,,,,,,,82584.0,,,,,,stop_signal_with_go_no_go,,,,,,,,0.0-1.0,13.0,[13],,82584,,82584.0,,"<div class = bigbox><div class = picture_box><p class = block-text><font color=""white""><br>Please take this time to read your feedback and to take a short break. Press enter to continue.</p><p class = block-text>Done with this practice.</font></p></div></div>",,,,224542,0.0,practice-no-stop-feedback,128,poldrack-single-stim,
129,,,,,,,,180000.0,,,,,,stop_signal_with_go_no_go,,,,,,,,0.0-2.0,-1.0,[13],,-1,,180000.0,,"<div class = centerbox><p class = block-text>We will now begin the test portion.</p><p class = block-text>You will see a shape on every trial. Please respond to each shape as quickly and accurately as possible!</p><p class = block-text>If the shape is a square, press the Z key. If the shape is a circle, press the M key.</p><p class = block-text>Do not respond if you see a star! Do not respond if the shape is outlined!</p><p class = block-text>You will no longer receive the rule prompt, so remember the instructions before you continue. Press Enter to begin.</p></div>",,,,404546,0.0,test_intro,129,poldrack-single-stim,
130,,,,,,,,12927.0,,,,,,stop_signal_with_go_no_go,,,,,,,,0.0-3.0-0.0,13.0,[13],,12927,,12927.0,,"<div class = bigbox><div class = picture_box><p class = block-text><font color=""white"">We will now start the test session. Please concentrate on responding quickly and accurately to each stimulus.</font></p></div></div>",,,,417475,0.0,practice-no-stop-feedback,130,poldrack-single-stim,
131,,,,,,,,15808.0,True,87.0,,,,stop_signal_with_go_no_go,,,,,,,,0.0-3.0-1.0-0.0,87.0,[],,15808,,15808.0,,"<p>Press the letter key that is like the letter key indicated at the end of this instructions page, but flipped upside down.<p><p>Press the ""M"" key.</p>",,,,433287,200.0,attention_check,131,attention-check,
132,,,,,,,,500.0,,,,,,stop_signal_with_go_no_go,,,,,,,,0.0-3.0-2.0,-1.0,none,,-1,,500.0,,<div class = centerbox><div class = fixation>+</div></div>,,,,433991,0.0,fixation,132,poldrack-single-stim,
133,550.0,450.0,550.0,500.0,<div class = bigbox><div class = centerbox><div class = starbox><img class = center src='/static/experiments/stop_signal_with_go_no_go/images/stopSignal.png'></img></div></div></div>,go,,2000.0,,90.0,1.0,0.0,1.0,stop_signal_with_go_no_go,,,,,,1.0,go,0.0-3.0-3.0,90.0,"[90, 77]",,1332,square,1000.0,solid,<div class = bigbox><div class = centerbox><div class = gng_number><div class = cue-text><img class = center src='/static/experiments/stop_signal_with_go_no_go/images/solid_square.png'></img></div></div></div></div>,,go,,435994,0.0,test_trial,133,stop-signal,
134,,,,,,,,500.0,,,,,,stop_signal_with_go_no_go,,,,,,,,0.0-3.0-4.0,-1.0,none,,-1,,500.0,,<div class = centerbox><div class = fixation>+</div></div>,,,,436496,0.0,fixation,134,poldrack-single-stim,
135,550.0,450.0,550.0,500.0,<div class = bigbox><div class = centerbox><div class = starbox><img class = center src='/static/experiments/stop_signal_with_go_no_go/images/stopSignal.png'></img></div></div></div>,go,,2000.0,,77.0,1.0,0.0,2.0,stop_signal_with_go_no_go,,,,,,1.0,go,0.0-3.0-5.0,77.0,"[90, 77]",,542,circle,1000.0,solid,<div class = bigbox><div class = centerbox><div class = gng_number><div class = cue-text><img class = center src='/static/experiments/stop_signal_with_go_no_go/images/solid_circle.png'></img></div></div></div></div>,,go,,438498,0.0,test_trial,135,stop-signal,
136,,,,,,,,500.0,,,,,,stop_signal_with_go_no_go,,,,,,,,0.0-3.0-6.0,-1.0,none,,-1,,500.0,,<div class = centerbox><div class = fixation>+</div></div>,,,,438999,0.0,fixation,136,poldrack-single-stim,
137,550.0,450.0,450.0,500.0,<div class = bigbox><div class = centerbox><div class = starbox><img class = center src='/static/experiments/stop_signal_with_go_no_go/images/stopSignal.png'></img></div></div></div>,go,,2000.0,,-1.0,1.0,0.0,3.0,stop_signal_with_go_no_go,,,,,,1.0,nogo,0.0-3.0-7.0,-1.0,"[90, 77]",,-1,circle,1000.0,outlined,<div class = bigbox><div class = centerbox><div class = gng_number><div class = cue-text><img class = center src='/static/experiments/stop_signal_with_go_no_go/images/outlined_circle.png'></img></div></div></div></div>,,go,,441001,0.0,test_trial,137,stop-signal,
138,,,,,,,,500.0,,,,,,stop_signal_with_go_no_go,,,,,,,,0.0-3.0-8.0,-1.0,none,,-1,,500.0,,<div class = centerbox><div class = fixation>+</div></div>,,,,441505,0.0,fixation,138,poldrack-single-stim,
139,550.0,450.0,550.0,500.0,<div class = bigbox><div class = centerbox><div class = starbox><img class = center src='/static/experiments/stop_signal_with_go_no_go/images/stopSignal.png'></img></div></div></div>,go,,2000.0,,77.0,1.0,0.0,4.0,stop_signal_with_go_no_go,,,,,,1.0,go,0.0-3.0-9.0,77.0,"[90, 77]",,826,circle,1000.0,solid,<div class = bigbox><div class = centerbox><div class = gng_number><div class = cue-text><img class = center src='/static/experiments/stop_signal_with_go_no_go/images/solid_circle.png'></img></div></div></div></div>,,go,,443508,0.0,test_trial,139,stop-signal,
140,,,,,,,,500.0,,,,,,stop_signal_with_go_no_go,,,,,,,,0.0-3.0-10.0,-1.0,none,,-1,,500.0,,<div class = centerbox><div class = fixation>+</div></div>,,,,444011,0.0,fixation,140,poldrack-single-stim,
141,550.0,450.0,550.0,500.0,<div class = bigbox><div class = centerbox><div class = starbox><img class = center src='/static/experiments/stop_signal_with_go_no_go/images/stopSignal.png'></img></div></div></div>,go,,2000.0,,90.0,1.0,0.0,5.0,stop_signal_with_go_no_go,,,,,,1.0,go,0.0-3.0-11.0,90.0,"[90, 77]",,589,square,1000.0,solid,<div class = bigbox><div class = centerbox><div class = gng_number><div class = cue-text><img class = center src='/static/experiments/stop_signal_with_go_no_go/images/solid_square.png'></img></div></div></div></div>,,go,,446014,0.0,test_trial,141,stop-signal,
142,,,,,,,,500.0,,,,,,stop_signal_with_go_no_go,,,,,,,,0.0-3.0-12.0,-1.0,none,,-1,,500.0,,<div class = centerbox><div class = fixation>+</div></div>,,,,446515,0.0,fixation,142,poldrack-single-stim,
143,550.0,450.0,550.0,500.0,<div class = bigbox><div class = centerbox><div class = starbox><img class = center src='/static/experiments/stop_signal_with_go_no_go/images/stopSignal.png'></img></div></div></div>,go,,2000.0,,90.0,1.0,0.0,6.0,stop_signal_with_go_no_go,,,,,,1.0,go,0.0-3.0-13.0,90.0,"[90, 77]",,910,square,1000.0,solid,<div class = bigbox><div class = centerbox><div class = gng_number><div class = cue-text><img class = center src='/static/experiments/stop_signal_with_go_no_go/images/solid_square.png'></img></div></div></div></div>,,go,,448517,0.0,test_trial,143,stop-signal,
144,,,,,,,,500.0,,,,,,stop_signal_with_go_no_go,,,,,,,,0.0-3.0-14.0,-1.0,none,,-1,,500.0,,<div class = centerbox><div class = fixation>+</div></div>,,,,449019,0.0,fixation,144,poldrack-single-stim,
145,550.0,450.0,550.0,500.0,<div class = bigbox><div class = centerbox><div class = starbox><img class = center src='/static/experiments/stop_signal_with_go_no_go/images/stopSignal.png'></img></div></div></div>,go,,2000.0,,90.0,1.0,0.0,7.0,stop_signal_with_go_no_go,,,,,,1.0,go,0.0-3.0-15.0,90.0,"[90, 77]",,822,square,1000.0,solid,<div class = bigbox><div class = centerbox><div class = gng_number><div class = cue-text><img class = center src='/static/experiments/stop_signal_with_go_no_go/images/solid_square.png'></img></div></div></div></div>,,go,,451020,0.0,test_trial,145,stop-signal,
146,,,,,,,,500.0,,,,,,stop_signal_with_go_no_go,,,,,,,,0.0-3.0-16.0,-1.0,none,,-1,,500.0,,<div class = centerbox><div class = fixation>+</div></div>,,,,451522,0.0,fixation,146,poldrack-single-stim,
147,550.0,450.0,550.0,500.0,<div class = bigbox><div class = centerbox><div class = starbox><img class = center src='/static/experiments/stop_signal_with_go_no_go/images/stopSignal.png'></img></div></div></div>,go,,2000.0,,90.0,1.0,0.0,8.0,stop_signal_with_go_no_go,,,,,,1.0,go,0.0-3.0-17.0,90.0,"[90, 77]",,511,square,1000.0,solid,<div class = bigbox><div class = centerbox><div class = gng_number><div class = cue-text><img class = center src='/static/experiments/stop_signal_with_go_no_go/images/solid_square.png'></img></div></div></div></div>,,go,,453526,0.0,test_trial,147,stop-signal,
148,,,,,,,,500.0,,,,,,stop_signal_with_go_no_go,,,,,,,,0.0-3.0-18.0,-1.0,none,,-1,,500.0,,<div class = centerbox><div class = fixation>+</div></div>,,,,454029,0.0,fixation,148,poldrack-single-stim,
149,550.0,450.0,550.0,500.0,<div class = bigbox><div class = centerbox><div class = starbox><img class = center src='/static/experiments/stop_signal_with_go_no_go/images/stopSignal.png'></img></div></div></div>,stop,,2000.0,,-1.0,0.0,0.0,9.0,stop_signal_with_go_no_go,,,,,,,go,0.0-3.0-19.0,90.0,"[90, 77]",,570,square,1000.0,solid,<div class = bigbox><div class = centerbox><div class = gng_number><div class = cue-text><img class = center src='/static/experiments/stop_signal_with_go_no_go/images/solid_square.png'></img></div></div></div></div>,0.0,stop,,456030,0.0,test_trial,149,stop-signal,
150,,,,,,,,500.0,,,,,,stop_signal_with_go_no_go,,,,,,,,0.0-3.0-20.0,-1.0,none,,-1,,500.0,,<div class = centerbox><div class = fixation>+</div></div>,,,,456533,0.0,fixation,150,poldrack-single-stim,
151,500.0,450.0,500.0,500.0,<div class = bigbox><div class = centerbox><div class = starbox><img class = center src='/static/experiments/stop_signal_with_go_no_go/images/stopSignal.png'></img></div></div></div>,go,,2000.0,,77.0,1.0,0.0,10.0,stop_signal_with_go_no_go,,,,,,1.0,go,0.0-3.0-21.0,77.0,"[90, 77]",,748,circle,1000.0,solid,<div class = bigbox><div class = centerbox><div class = gng_number><div class = cue-text><img class = center src='/static/experiments/stop_signal_with_go_no_go/images/solid_circle.png'></img></div></div></div></div>,,go,,458535,0.0,test_trial,151,stop-signal,
152,,,,,,,,500.0,,,,,,stop_signal_with_go_no_go,,,,,,,,0.0-3.0-22.0,-1.0,none,,-1,,500.0,,<div class = centerbox><div class = fixation>+</div></div>,,,,459037,0.0,fixation,152,poldrack-single-stim,
153,500.0,450.0,500.0,500.0,<div class = bigbox><div class = centerbox><div class = starbox><img class = center src='/static/experiments/stop_signal_with_go_no_go/images/stopSignal.png'></img></div></div></div>,go,,2000.0,,77.0,1.0,0.0,11.0,stop_signal_with_go_no_go,,,,,,1.0,go,0.0-3.0-23.0,77.0,"[90, 77]",,665,circle,1000.0,solid,<div class = bigbox><div class = centerbox><div class = gng_number><div class = cue-text><img class = center src='/static/experiments/stop_signal_with_go_no_go/images/solid_circle.png'></img></div></div></div></div>,,go,,461040,0.0,test_trial,153,stop-signal,
154,,,,,,,,500.0,,,,,,stop_signal_with_go_no_go,,,,,,,,0.0-3.0-24.0,-1.0,none,,-1,,500.0,,<div class = centerbox><div class = fixation>+</div></div>,,,,461544,0.0,fixation,154,poldrack-single-stim,
155,500.0,450.0,500.0,500.0,<div class = bigbox><div class = centerbox><div class = starbox><img class = center src='/static/experiments/stop_signal_with_go_no_go/images/stopSignal.png'></img></div></div></div>,go,,2000.0,,77.0,1.0,0.0,12.0,stop_signal_with_go_no_go,,,,,,1.0,go,0.0-3.0-25.0,77.0,"[90, 77]",,618,circle,1000.0,solid,<div class = bigbox><div class = centerbox><div class = gng_number><div class = cue-text><img class = center src='/static/experiments/stop_signal_with_go_no_go/images/solid_circle.png'></img></div></div></div></div>,,go,,463547,0.0,test_trial,155,stop-signal,
156,,,,,,,,500.0,,,,,,stop_signal_with_go_no_go,,,,,,,,0.0-3.0-26.0,-1.0,none,,-1,,500.0,,<div class = centerbox><div class = fixation>+</div></div>,,,,464050,0.0,fixation,156,poldrack-single-stim,
157,500.0,450.0,500.0,500.0,<div class = bigbox><div class = centerbox><div class = starbox><img class = center src='/static/experiments/stop_signal_with_go_no_go/images/stopSignal.png'></img></div></div></div>,go,,2000.0,,77.0,1.0,0.0,13.0,stop_signal_with_go_no_go,,,,,,1.0,go,0.0-3.0-27.0,77.0,"[90, 77]",,578,circle,1000.0,solid,<div class = bigbox><div class = centerbox><div class = gng_number><div class = cue-text><img class = center src='/static/experiments/stop_signal_with_go_no_go/images/solid_circle.png'></img></div></div></div></div>,,go,,466052,0.0,test_trial,157,stop-signal,
158,,,,,,,,500.0,,,,,,stop_signal_with_go_no_go,,,,,,,,0.0-3.0-28.0,-1.0,none,,-1,,500.0,,<div class = centerbox><div class = fixation>+</div></div>,,,,466555,0.0,fixation,158,poldrack-single-stim,
159,500.0,450.0,450.0,500.0,<div class = bigbox><div class = centerbox><div class = starbox><img class = center src='/static/experiments/stop_signal_with_go_no_go/images/stopSignal.png'></img></div></div></div>,stop,,2000.0,,-1.0,1.0,0.0,14.0,stop_signal_with_go_no_go,,,,,,,nogo,0.0-3.0-29.0,-1.0,"[90, 77]",,-1,square,1000.0,outlined,<div class = bigbox><div class = centerbox><div class = gng_number><div class = cue-text><img class = center src='/static/experiments/stop_signal_with_go_no_go/images/outlined_square.png'></img></div></div></div></div>,1.0,stop,,468558,0.0,test_trial,159,stop-signal,
160,,,,,,,,500.0,,,,,,stop_signal_with_go_no_go,,,,,,,,0.0-3.0-30.0,-1.0,none,,-1,,500.0,,<div class = centerbox><div class = fixation>+</div></div>,,,,469060,0.0,fixation,160,poldrack-single-stim,
161,500.0,500.0,500.0,500.0,<div class = bigbox><div class = centerbox><div class = starbox><img class = center src='/static/experiments/stop_signal_with_go_no_go/images/stopSignal.png'></img></div></div></div>,go,,2000.0,,77.0,1.0,0.0,15.0,stop_signal_with_go_no_go,,,,,,1.0,go,0.0-3.0-31.0,77.0,"[90, 77]",,762,circle,1000.0,solid,<div class = bigbox><div class = centerbox><div class = gng_number><div class = cue-text><img class = center src='/static/experiments/stop_signal_with_go_no_go/images/solid_circle.png'></img></div></div></div></div>,,go,,471063,0.0,test_trial,161,stop-signal,
162,,,,,,,,500.0,,,,,,stop_signal_with_go_no_go,,,,,,,,0.0-3.0-32.0,-1.0,none,,-1,,500.0,,<div class = centerbox><div class = fixation>+</div></div>,,,,471566,0.0,fixation,162,poldrack-single-stim,
163,500.0,500.0,500.0,500.0,<div class = bigbox><div class = centerbox><div class = starbox><img class = center src='/static/experiments/stop_signal_with_go_no_go/images/stopSignal.png'></img></div></div></div>,go,,2000.0,,-1.0,1.0,0.0,16.0,stop_signal_with_go_no_go,,,,,,1.0,nogo,0.0-3.0-33.0,-1.0,"[90, 77]",,-1,circle,1000.0,outlined,<div class = bigbox><div class = centerbox><div class = gng_number><div class = cue-text><img class = center src='/static/experiments/stop_signal_with_go_no_go/images/outlined_circle.png'></img></div></div></div></div>,,go,,473568,0.0,test_trial,163,stop-signal,
164,,,,,,,,500.0,,,,,,stop_signal_with_go_no_go,,,,,,,,0.0-3.0-34.0,-1.0,none,,-1,,500.0,,<div class = centerbox><div class = fixation>+</div></div>,,,,474070,0.0,fixation,164,poldrack-single-stim,
165,500.0,500.0,500.0,500.0,<div class = bigbox><div class = centerbox><div class = starbox><img class = center src='/static/experiments/stop_signal_with_go_no_go/images/stopSignal.png'></img></div></div></div>,go,,2000.0,,90.0,1.0,0.0,17.0,stop_signal_with_go_no_go,,,,,,1.0,go,0.0-3.0-35.0,90.0,"[90, 77]",,646,square,1000.0,solid,<div class = bigbox><div class = centerbox><div class = gng_number><div class = cue-text><img class = center src='/static/experiments/stop_signal_with_go_no_go/images/solid_square.png'></img></div></div></div></div>,,go,,476072,0.0,test_trial,165,stop-signal,
166,,,,,,,,500.0,,,,,,stop_signal_with_go_no_go,,,,,,,,0.0-3.0-36.0,-1.0,none,,-1,,500.0,,<div class = centerbox><div class = fixation>+</div></div>,,,,476576,0.0,fixation,166,poldrack-single-stim,
167,500.0,500.0,500.0,500.0,<div class = bigbox><div class = centerbox><div class = starbox><img class = center src='/static/experiments/stop_signal_with_go_no_go/images/stopSignal.png'></img></div></div></div>,stop,,2000.0,,-1.0,1.0,0.0,18.0,stop_signal_with_go_no_go,,,,,,,nogo,0.0-3.0-37.0,-1.0,"[90, 77]",,-1,circle,1000.0,outlined,<div class = bigbox><div class = centerbox><div class = gng_number><div class = cue-text><img class = center src='/static/experiments/stop_signal_with_go_no_go/images/outlined_circle.png'></img></div></div></div></div>,1.0,stop,,478579,0.0,test_trial,167,stop-signal,
168,,,,,,,,500.0,,,,,,stop_signal_with_go_no_go,,,,,,,,0.0-3.0-38.0,-1.0,none,,-1,,500.0,,<div class = centerbox><div class = fixation>+</div></div>,,,,479082,0.0,fixation,168,poldrack-single-stim,
169,500.0,550.0,500.0,500.0,<div class = bigbox><div class = centerbox><div class = starbox><img class = center src='/static/experiments/stop_signal_with_go_no_go/images/stopSignal.png'></img></div></div></div>,stop,,2000.0,,-1.0,0.0,0.0,19.0,stop_signal_with_go_no_go,,,,,,,go,0.0-3.0-39.0,90.0,"[90, 77]",,787,square,1000.0,solid,<div class = bigbox><div class = centerbox><div class = gng_number><div class = cue-text><img class = center src='/static/experiments/stop_signal_with_go_no_go/images/solid_square.png'></img></div></div></div></div>,0.0,stop,,481083,0.0,test_trial,169,stop-signal,
170,,,,,,,,500.0,,,,,,stop_signal_with_go_no_go,,,,,,,,0.0-3.0-40.0,-1.0,none,,-1,,500.0,,<div class = centerbox><div class = fixation>+</div></div>,,,,481586,0.0,fixation,170,poldrack-single-stim,
171,450.0,550.0,450.0,500.0,<div class = bigbox><div class = centerbox><div class = starbox><img class = center src='/static/experiments/stop_signal_with_go_no_go/images/stopSignal.png'></img></div></div></div>,go,,2000.0,,90.0,1.0,0.0,20.0,stop_signal_with_go_no_go,,,,,,1.0,go,0.0-3.0-41.0,90.0,"[90, 77]",,726,square,1000.0,solid,<div class = bigbox><div class = centerbox><div class = gng_number><div class = cue-text><img class = center src='/static/experiments/stop_signal_with_go_no_go/images/solid_square.png'></img></div></div></div></div>,,go,,483588,0.0,test_trial,171,stop-signal,
172,,,,,,,,500.0,,,,,,stop_signal_with_go_no_go,,,,,,,,0.0-3.0-42.0,-1.0,none,,-1,,500.0,,<div class = centerbox><div class = fixation>+</div></div>,,,,484091,0.0,fixation,172,poldrack-single-stim,
173,450.0,550.0,450.0,500.0,<div class = bigbox><div class = centerbox><div class = starbox><img class = center src='/static/experiments/stop_signal_with_go_no_go/images/stopSignal.png'></img></div></div></div>,go,,2000.0,,90.0,1.0,0.0,21.0,stop_signal_with_go_no_go,,,,,,1.0,go,0.0-3.0-43.0,90.0,"[90, 77]",,738,square,1000.0,solid,<div class = bigbox><div class = centerbox><div class = gng_number><div class = cue-text><img class = center src='/static/experiments/stop_signal_with_go_no_go/images/solid_square.png'></img></div></div></div></div>,,go,,486095,0.0,test_trial,173,stop-signal,
174,,,,,,,,500.0,,,,,,stop_signal_with_go_no_go,,,,,,,,0.0-3.0-44.0,-1.0,none,,-1,,500.0,,<div class = centerbox><div class = fixation>+</div></div>,,,,486598,0.0,fixation,174,poldrack-single-stim,
175,450.0,550.0,450.0,500.0,<div class = bigbox><div class = centerbox><div class = starbox><img class = center src='/static/experiments/stop_signal_with_go_no_go/images/stopSignal.png'></img></div></div></div>,go,,2000.0,,90.0,1.0,0.0,22.0,stop_signal_with_go_no_go,,,,,,1.0,go,0.0-3.0-45.0,90.0,"[90, 77]",,513,square,1000.0,solid,<div class = bigbox><div class = centerbox><div class = gng_number><div class = cue-text><img class = center src='/static/experiments/stop_signal_with_go_no_go/images/solid_square.png'></img></div></div></div></div>,,go,,488601,0.0,test_trial,175,stop-signal,
176,,,,,,,,500.0,,,,,,stop_signal_with_go_no_go,,,,,,,,0.0-3.0-46.0,-1.0,none,,-1,,500.0,,<div class = centerbox><div class = fixation>+</div></div>,,,,489105,0.0,fixation,176,poldrack-single-stim,
177,450.0,550.0,450.0,500.0,<div class = bigbox><div class = centerbox><div class = starbox><img class = center src='/static/experiments/stop_signal_with_go_no_go/images/stopSignal.png'></img></div></div></div>,stop,,2000.0,,-1.0,0.0,0.0,23.0,stop_signal_with_go_no_go,,,,,,,go,0.0-3.0-47.0,90.0,"[90, 77]",,562,square,1000.0,solid,<div class = bigbox><div class = centerbox><div class = gng_number><div class = cue-text><img class = center src='/static/experiments/stop_signal_with_go_no_go/images/solid_square.png'></img></div></div></div></div>,0.0,stop,,491108,0.0,test_trial,177,stop-signal,
178,,,,,,,,500.0,,,,,,stop_signal_with_go_no_go,,,,,,,,0.0-3.0-48.0,-1.0,none,,-1,,500.0,,<div class = centerbox><div class = fixation>+</div></div>,,,,491612,0.0,fixation,178,poldrack-single-stim,
179,400.0,550.0,400.0,500.0,<div class = bigbox><div class = centerbox><div class = starbox><img class = center src='/static/experiments/stop_signal_with_go_no_go/images/stopSignal.png'></img></div></div></div>,go,,2000.0,,77.0,1.0,0.0,24.0,stop_signal_with_go_no_go,,,,,,1.0,go,0.0-3.0-49.0,77.0,"[90, 77]",,607,circle,1000.0,solid,<div class = bigbox><div class = centerbox><div class = gng_number><div class = cue-text><img class = center src='/static/experiments/stop_signal_with_go_no_go/images/solid_circle.png'></img></div></div></div></div>,,go,,493614,0.0,test_trial,179,stop-signal,
180,,,,,,,,500.0,,,,,,stop_signal_with_go_no_go,,,,,,,,0.0-3.0-50.0,-1.0,none,,-1,,500.0,,<div class = centerbox><div class = fixation>+</div></div>,,,,494119,0.0,fixation,180,poldrack-single-stim,
181,400.0,550.0,400.0,500.0,<div class = bigbox><div class = centerbox><div class = starbox><img class = center src='/static/experiments/stop_signal_with_go_no_go/images/stopSignal.png'></img></div></div></div>,go,,2000.0,,90.0,1.0,0.0,25.0,stop_signal_with_go_no_go,,,,,,1.0,go,0.0-3.0-51.0,90.0,"[90, 77]",,706,square,1000.0,solid,<div class = bigbox><div class = centerbox><div class = gng_number><div class = cue-text><img class = center src='/static/experiments/stop_signal_with_go_no_go/images/solid_square.png'></img></div></div></div></div>,,go,,496122,0.0,test_trial,181,stop-signal,
182,,,,,,,,500.0,,,,,,stop_signal_with_go_no_go,,,,,,,,0.0-3.0-52.0,-1.0,none,,-1,,500.0,,<div class = centerbox><div class = fixation>+</div></div>,,,,496626,0.0,fixation,182,poldrack-single-stim,
183,400.0,550.0,400.0,500.0,<div class = bigbox><div class = centerbox><div class = starbox><img class = center src='/static/experiments/stop_signal_with_go_no_go/images/stopSignal.png'></img></div></div></div>,stop,,2000.0,,-1.0,1.0,0.0,26.0,stop_signal_with_go_no_go,,,,,,,go,0.0-3.0-53.0,-1.0,"[90, 77]",,-1,circle,1000.0,solid,<div class = bigbox><div class = centerbox><div class = gng_number><div class = cue-text><img class = center src='/static/experiments/stop_signal_with_go_no_go/images/solid_circle.png'></img></div></div></div></div>,1.0,stop,,498629,0.0,test_trial,183,stop-signal,
184,,,,,,,,500.0,,,,,,stop_signal_with_go_no_go,,,,,,,,0.0-3.0-54.0,-1.0,none,,-1,,500.0,,<div class = centerbox><div class = fixation>+</div></div>,,,,499131,0.0,fixation,184,poldrack-single-stim,
185,450.0,550.0,450.0,500.0,<div class = bigbox><div class = centerbox><div class = starbox><img class = center src='/static/experiments/stop_signal_with_go_no_go/images/stopSignal.png'></img></div></div></div>,go,,2000.0,,90.0,1.0,0.0,27.0,stop_signal_with_go_no_go,,,,,,1.0,go,0.0-3.0-55.0,90.0,"[90, 77]",,699,square,1000.0,solid,<div class = bigbox><div class = centerbox><div class = gng_number><div class = cue-text><img class = center src='/static/experiments/stop_signal_with_go_no_go/images/solid_square.png'></img></div></div></div></div>,,go,,501134,0.0,test_trial,185,stop-signal,
186,,,,,,,,500.0,,,,,,stop_signal_with_go_no_go,,,,,,,,0.0-3.0-56.0,-1.0,none,,-1,,500.0,,<div class = centerbox><div class = fixation>+</div></div>,,,,501636,0.0,fixation,186,poldrack-single-stim,
187,450.0,550.0,550.0,500.0,<div class = bigbox><div class = centerbox><div class = starbox><img class = center src='/static/experiments/stop_signal_with_go_no_go/images/stopSignal.png'></img></div></div></div>,go,,2000.0,,-1.0,1.0,0.0,28.0,stop_signal_with_go_no_go,,,,,,1.0,nogo,0.0-3.0-57.0,-1.0,"[90, 77]",,-1,square,1000.0,outlined,<div class = bigbox><div class = centerbox><div class = gng_number><div class = cue-text><img class = center src='/static/experiments/stop_signal_with_go_no_go/images/outlined_square.png'></img></div></div></div></div>,,go,,503639,0.0,test_trial,187,stop-signal,
188,,,,,,,,500.0,,,,,,stop_signal_with_go_no_go,,,,,,,,0.0-3.0-58.0,-1.0,none,,-1,,500.0,,<div class = centerbox><div class = fixation>+</div></div>,,,,504142,0.0,fixation,188,poldrack-single-stim,
189,450.0,550.0,450.0,500.0,<div class = bigbox><div class = centerbox><div class = starbox><img class = center src='/static/experiments/stop_signal_with_go_no_go/images/stopSignal.png'></img></div></div></div>,go,,2000.0,,77.0,1.0,0.0,29.0,stop_signal_with_go_no_go,,,,,,1.0,go,0.0-3.0-59.0,77.0,"[90, 77]",,591,circle,1000.0,solid,<div class = bigbox><div class = centerbox><div class = gng_number><div class = cue-text><img class = center src='/static/experiments/stop_signal_with_go_no_go/images/solid_circle.png'></img></div></div></div></div>,,go,,506144,0.0,test_trial,189,stop-signal,
190,,,,,,,,500.0,,,,,,stop_signal_with_go_no_go,,,,,,,,0.0-3.0-60.0,-1.0,none,,-1,,500.0,,<div class = centerbox><div class = fixation>+</div></div>,,,,506647,0.0,fixation,190,poldrack-single-stim,
191,450.0,550.0,450.0,500.0,<div class = bigbox><div class = centerbox><div class = starbox><img class = center src='/static/experiments/stop_signal_with_go_no_go/images/stopSignal.png'></img></div></div></div>,go,,2000.0,,77.0,1.0,0.0,30.0,stop_signal_with_go_no_go,,,,,,1.0,go,0.0-3.0-61.0,77.0,"[90, 77]",,861,circle,1000.0,solid,<div class = bigbox><div class = centerbox><div class = gng_number><div class = cue-text><img class = center src='/static/experiments/stop_signal_with_go_no_go/images/solid_circle.png'></img></div></div></div></div>,,go,,508649,0.0,test_trial,191,stop-signal,
192,,,,,,,,500.0,,,,,,stop_signal_with_go_no_go,,,,,,,,0.0-3.0-62.0,-1.0,none,,-1,,500.0,,<div class = centerbox><div class = fixation>+</div></div>,,,,509154,0.0,fixation,192,poldrack-single-stim,
193,450.0,550.0,450.0,500.0,<div class = bigbox><div class = centerbox><div class = starbox><img class = center src='/static/experiments/stop_signal_with_go_no_go/images/stopSignal.png'></img></div></div></div>,stop,,2000.0,,-1.0,0.0,0.0,31.0,stop_signal_with_go_no_go,,,,,,,go,0.0-3.0-63.0,77.0,"[90, 77]",,602,circle,1000.0,solid,<div class = bigbox><div class = centerbox><div class = gng_number><div class = cue-text><img class = center src='/static/experiments/stop_signal_with_go_no_go/images/solid_circle.png'></img></div></div></div></div>,0.0,stop,,511157,0.0,test_trial,193,stop-signal,
194,,,,,,,,500.0,,,,,,stop_signal_with_go_no_go,,,,,,,,0.0-3.0-64.0,-1.0,none,,-1,,500.0,,<div class = centerbox><div class = fixation>+</div></div>,,,,511658,0.0,fixation,194,poldrack-single-stim,
195,400.0,550.0,400.0,500.0,<div class = bigbox><div class = centerbox><div class = starbox><img class = center src='/static/experiments/stop_signal_with_go_no_go/images/stopSignal.png'></img></div></div></div>,go,,2000.0,,90.0,1.0,0.0,32.0,stop_signal_with_go_no_go,,,,,,1.0,go,0.0-3.0-65.0,90.0,"[90, 77]",,602,square,1000.0,solid,<div class = bigbox><div class = centerbox><div class = gng_number><div class = cue-text><img class = center src='/static/experiments/stop_signal_with_go_no_go/images/solid_square.png'></img></div></div></div></div>,,go,,513661,0.0,test_trial,195,stop-signal,
196,,,,,,,,500.0,,,,,,stop_signal_with_go_no_go,,,,,,,,0.0-3.0-66.0,-1.0,none,,-1,,500.0,,<div class = centerbox><div class = fixation>+</div></div>,,,,514165,0.0,fixation,196,poldrack-single-stim,
197,400.0,550.0,400.0,500.0,<div class = bigbox><div class = centerbox><div class = starbox><img class = center src='/static/experiments/stop_signal_with_go_no_go/images/stopSignal.png'></img></div></div></div>,go,,2000.0,,77.0,1.0,0.0,33.0,stop_signal_with_go_no_go,,,,,,1.0,go,0.0-3.0-67.0,77.0,"[90, 77]",,665,circle,1000.0,solid,<div class = bigbox><div class = centerbox><div class = gng_number><div class = cue-text><img class = center src='/static/experiments/stop_signal_with_go_no_go/images/solid_circle.png'></img></div></div></div></div>,,go,,516169,0.0,test_trial,197,stop-signal,
198,,,,,,,,500.0,,,,,,stop_signal_with_go_no_go,,,,,,,,0.0-3.0-68.0,-1.0,none,,-1,,500.0,,<div class = centerbox><div class = fixation>+</div></div>,,,,516671,0.0,fixation,198,poldrack-single-stim,
199,400.0,550.0,400.0,500.0,<div class = bigbox><div class = centerbox><div class = starbox><img class = center src='/static/experiments/stop_signal_with_go_no_go/images/stopSignal.png'></img></div></div></div>,go,,2000.0,,90.0,1.0,0.0,34.0,stop_signal_with_go_no_go,,,,,,1.0,go,0.0-3.0-69.0,90.0,"[90, 77]",,564,square,1000.0,solid,<div class = bigbox><div class = centerbox><div class = gng_number><div class = cue-text><img class = center src='/static/experiments/stop_signal_with_go_no_go/images/solid_square.png'></img></div></div></div></div>,,go,,518674,0.0,test_trial,199,stop-signal,
200,,,,,,,,500.0,,,,,,stop_signal_with_go_no_go,,,,,,,,0.0-3.0-70.0,-1.0,none,,-1,,500.0,,<div class = centerbox><div class = fixation>+</div></div>,,,,519176,0.0,fixation,200,poldrack-single-stim,
201,400.0,550.0,400.0,500.0,<div class = bigbox><div class = centerbox><div class = starbox><img class = center src='/static/experiments/stop_signal_with_go_no_go/images/stopSignal.png'></img></div></div></div>,stop,,2000.0,,-1.0,0.0,0.0,35.0,stop_signal_with_go_no_go,,,,,,,go,0.0-3.0-71.0,90.0,"[90, 77]",,500,square,1000.0,solid,<div class = bigbox><div class = centerbox><div class = gng_number><div class = cue-text><img class = center src='/static/experiments/stop_signal_with_go_no_go/images/solid_square.png'></img></div></div></div></div>,0.0,stop,,521178,0.0,test_trial,201,stop-signal,
202,,,,,,,,500.0,,,,,,stop_signal_with_go_no_go,,,,,,,,0.0-3.0-72.0,-1.0,none,,-1,,500.0,,<div class = centerbox><div class = fixation>+</div></div>,,,,521681,0.0,fixation,202,poldrack-single-stim,
203,350.0,550.0,350.0,500.0,<div class = bigbox><div class = centerbox><div class = starbox><img class = center src='/static/experiments/stop_signal_with_go_no_go/images/stopSignal.png'></img></div></div></div>,go,,2000.0,,77.0,1.0,0.0,36.0,stop_signal_with_go_no_go,,,,,,1.0,go,0.0-3.0-73.0,77.0,"[90, 77]",,604,circle,1000.0,solid,<div class = bigbox><div class = centerbox><div class = gng_number><div class = cue-text><img class = center src='/static/experiments/stop_signal_with_go_no_go/images/solid_circle.png'></img></div></div></div></div>,,go,,523684,0.0,test_trial,203,stop-signal,
204,,,,,,,,500.0,,,,,,stop_signal_with_go_no_go,,,,,,,,0.0-3.0-74.0,-1.0,none,,-1,,500.0,,<div class = centerbox><div class = fixation>+</div></div>,,,,524187,0.0,fixation,204,poldrack-single-stim,
205,350.0,550.0,550.0,500.0,<div class = bigbox><div class = centerbox><div class = starbox><img class = center src='/static/experiments/stop_signal_with_go_no_go/images/stopSignal.png'></img></div></div></div>,go,,2000.0,,-1.0,1.0,0.0,37.0,stop_signal_with_go_no_go,,,,,,1.0,nogo,0.0-3.0-75.0,-1.0,"[90, 77]",,-1,circle,1000.0,outlined,<div class = bigbox><div class = centerbox><div class = gng_number><div class = cue-text><img class = center src='/static/experiments/stop_signal_with_go_no_go/images/outlined_circle.png'></img></div></div></div></div>,,go,,526189,0.0,test_trial,205,stop-signal,
206,,,,,,,,500.0,,,,,,stop_signal_with_go_no_go,,,,,,,,0.0-3.0-76.0,-1.0,none,,-1,,500.0,,<div class = centerbox><div class = fixation>+</div></div>,,,,526692,0.0,fixation,206,poldrack-single-stim,
207,350.0,550.0,350.0,500.0,<div class = bigbox><div class = centerbox><div class = starbox><img class = center src='/static/experiments/stop_signal_with_go_no_go/images/stopSignal.png'></img></div></div></div>,stop,,2000.0,,-1.0,0.0,0.0,38.0,stop_signal_with_go_no_go,,,,,,,go,0.0-3.0-77.0,90.0,"[90, 77]",,512,square,1000.0,solid,<div class = bigbox><div class = centerbox><div class = gng_number><div class = cue-text><img class = center src='/static/experiments/stop_signal_with_go_no_go/images/solid_square.png'></img></div></div></div></div>,0.0,stop,,528695,0.0,test_trial,207,stop-signal,
208,,,,,,,,500.0,,,,,,stop_signal_with_go_no_go,,,,,,,,0.0-3.0-78.0,-1.0,none,,-1,,500.0,,<div class = centerbox><div class = fixation>+</div></div>,,,,529197,0.0,fixation,208,poldrack-single-stim,
209,300.0,550.0,300.0,500.0,<div class = bigbox><div class = centerbox><div class = starbox><img class = center src='/static/experiments/stop_signal_with_go_no_go/images/stopSignal.png'></img></div></div></div>,stop,,2000.0,,-1.0,1.0,0.0,39.0,stop_signal_with_go_no_go,,,,,,,go,0.0-3.0-79.0,-1.0,"[90, 77]",,-1,circle,1000.0,solid,<div class = bigbox><div class = centerbox><div class = gng_number><div class = cue-text><img class = center src='/static/experiments/stop_signal_with_go_no_go/images/solid_circle.png'></img></div></div></div></div>,1.0,stop,,531200,0.0,test_trial,209,stop-signal,
210,,,,,,,,500.0,,,,,,stop_signal_with_go_no_go,,,,,,,,0.0-3.0-80.0,-1.0,none,,-1,,500.0,,<div class = centerbox><div class = fixation>+</div></div>,,,,531702,0.0,fixation,210,poldrack-single-stim,
211,350.0,550.0,350.0,500.0,<div class = bigbox><div class = centerbox><div class = starbox><img class = center src='/static/experiments/stop_signal_with_go_no_go/images/stopSignal.png'></img></div></div></div>,go,,2000.0,,90.0,1.0,0.0,40.0,stop_signal_with_go_no_go,,,,,,1.0,go,0.0-3.0-81.0,90.0,"[90, 77]",,627,square,1000.0,solid,<div class = bigbox><div class = centerbox><div class = gng_number><div class = cue-text><img class = center src='/static/experiments/stop_signal_with_go_no_go/images/solid_square.png'></img></div></div></div></div>,,go,,533706,0.0,test_trial,211,stop-signal,
212,,,,,,,,500.0,,,,,,stop_signal_with_go_no_go,,,,,,,,0.0-3.0-82.0,-1.0,none,,-1,,500.0,,<div class = centerbox><div class = fixation>+</div></div>,,,,534209,0.0,fixation,212,poldrack-single-stim,
213,350.0,550.0,350.0,500.0,<div class = bigbox><div class = centerbox><div class = starbox><img class = center src='/static/experiments/stop_signal_with_go_no_go/images/stopSignal.png'></img></div></div></div>,go,,2000.0,,90.0,1.0,0.0,41.0,stop_signal_with_go_no_go,,,,,,1.0,go,0.0-3.0-83.0,90.0,"[90, 77]",,731,square,1000.0,solid,<div class = bigbox><div class = centerbox><div class = gng_number><div class = cue-text><img class = center src='/static/experiments/stop_signal_with_go_no_go/images/solid_square.png'></img></div></div></div></div>,,go,,536211,0.0,test_trial,213,stop-signal,
214,,,,,,,,500.0,,,,,,stop_signal_with_go_no_go,,,,,,,,0.0-3.0-84.0,-1.0,none,,-1,,500.0,,<div class = centerbox><div class = fixation>+</div></div>,,,,536714,0.0,fixation,214,poldrack-single-stim,
215,350.0,550.0,350.0,500.0,<div class = bigbox><div class = centerbox><div class = starbox><img class = center src='/static/experiments/stop_signal_with_go_no_go/images/stopSignal.png'></img></div></div></div>,stop,,2000.0,,-1.0,1.0,0.0,42.0,stop_signal_with_go_no_go,,,,,,,go,0.0-3.0-85.0,-1.0,"[90, 77]",,-1,circle,1000.0,solid,<div class = bigbox><div class = centerbox><div class = gng_number><div class = cue-text><img class = center src='/static/experiments/stop_signal_with_go_no_go/images/solid_circle.png'></img></div></div></div></div>,1.0,stop,,538716,0.0,test_trial,215,stop-signal,
216,,,,,,,,500.0,,,,,,stop_signal_with_go_no_go,,,,,,,,0.0-3.0-86.0,-1.0,none,,-1,,500.0,,<div class = centerbox><div class = fixation>+</div></div>,,,,539218,0.0,fixation,216,poldrack-single-stim,
217,400.0,550.0,400.0,500.0,<div class = bigbox><div class = centerbox><div class = starbox><img class = center src='/static/experiments/stop_signal_with_go_no_go/images/stopSignal.png'></img></div></div></div>,go,,2000.0,,77.0,1.0,0.0,43.0,stop_signal_with_go_no_go,,,,,,1.0,go,0.0-3.0-87.0,77.0,"[90, 77]",,724,circle,1000.0,solid,<div class = bigbox><div class = centerbox><div class = gng_number><div class = cue-text><img class = center src='/static/experiments/stop_signal_with_go_no_go/images/solid_circle.png'></img></div></div></div></div>,,go,,541221,0.0,test_trial,217,stop-signal,
218,,,,,,,,500.0,,,,,,stop_signal_with_go_no_go,,,,,,,,0.0-3.0-88.0,-1.0,none,,-1,,500.0,,<div class = centerbox><div class = fixation>+</div></div>,,,,541723,0.0,fixation,218,poldrack-single-stim,
