,SS_delay,SS_duration,SS_stimulus,SS_trial_type,att_check_percent,block_duration,bottom_stim,correct_response,correct_trial,cue,current_block,current_trial,directed_forgetting_condition,exp_id,final_accuracy,final_avg_rt,final_credit_var,final_missed_percent,final_responses_ok,internal_node_id,key_press,possible_responses,probe,responses,rt,stim_duration,stimulus,stop_acc,stop_signal_condition,text,time_elapsed,timing_post_trial,top_stim,trial_id,trial_index,trial_type,view_history
0,,,,,,1895.0,,,,,,,,stop_signal_with_directed_forgetting,,,,,,0.0-0.0-0.0,13.0,[13],,,1895,1895.0,<div class = bigbox><div class = picture_box><p class = block-text>Welcome to the experiment. This experiment will take about 30 minutes. Press <i>enter</i> to begin.</p></div></div>,,,,1897,0.0,,feedback_block,0,poldrack-single-stim,
1,,,,,,,,,,,,,,stop_signal_with_directed_forgetting,,,,,,0.0-0.0-1.0,,,,,94076,,,,,,95974,,,instruction,1,poldrack-instructions,"[{""page_index"":0,""viewing_time"":31490},{""page_index"":1,""viewing_time"":8088},{""page_index"":2,""viewing_time"":52243},{""page_index"":3,""viewing_time"":2255}]"
2,,,,,,500.0,,,,,,,,stop_signal_with_directed_forgetting,,,,,,0.0-0.0-2.0,-1.0,none,,,-1,500.0,"<div class = centerbox><div class = fixation><span style=""color:white"">+</span></div></div>",,,,97480,0.0,,practice_fixation,2,poldrack-single-stim,
3,,,,,,2000.0,,,,,,,,stop_signal_with_directed_forgetting,,,,,,0.0-0.0-3.0,-1.0,none,,,-1,2000.0,"<div class = bigbox><div class = topLeft><div class = cue-text><img class = center src=""/static/experiments/stop_signal_with_directed_forgetting/images/C.png""></img></div></div><div class = topMiddle><div class = cue-text></div></div><div class = topRight><div class = cue-text><img class = center src=""/static/experiments/stop_signal_with_directed_forgetting/images/N.png""></img></div></div><div class = bottomLeft><div class = cue-text><img class = center src=""/static/experiments/stop_signal_with_directed_forgetting/images/M.png""></img></div></div><div class = bottomMiddle><div class = cue-text></div></div><div class = bottomRight><div class = cue-text><img class = center src=""/static/experiments/stop_signal_with_directed_forgetting/images/D.png""></img></div></div></div>",,,,99484,0.0,,practice_stim,3,poldrack-single-stim,
4,,,,,,1000.0,,,,,,,,stop_signal_with_directed_forgetting,,,,,,0.0-0.0-4.0,-1.0,[],,,-1,1000.0,"<div class = bigbox><div class = centerbox><div class = cue-text><img class = center src=""/static/experiments/stop_signal_with_directed_forgetting/images/TOP.png""></img></font></div></div></div>",,,,100487,0.0,,practice_cue,4,poldrack-single-stim,
5,,,,,,2000.0,,,,,,,,stop_signal_with_directed_forgetting,,,,,,0.0-0.0-5.0,-1.0,none,,,-1,2000.0,"<div class = centerbox><div class = fixation><span style=""color:white"">+</span></div></div>",,,,102491,0.0,,practice_fixation,5,poldrack-single-stim,
6,350.0,500.0,"<div class = bigbox><div class = starbox><img class = center src=""/static/experiments/stop_signal_with_directed_forgetting/images/stopSignal.png""></img></div></div>",stop,,1000.0,"['M', 'D']",-1.0,1.0,TOP,0.0,1.0,neg,stop_signal_with_directed_forgetting,,,,,,0.0-0.0-6.0,-1.0,"[77, 90]",C,,-1,1000.0,"<div class = bigbox><div class = centerbox><div class = cue-text><img class = center src=""/static/experiments/stop_signal_with_directed_forgetting/images/C.png""></img></font></div></div></div>",1.0,stop,,103494,0.0,"['C', 'N']",practice_trial,6,stop-signal,
7,,,,,,1000.0,,,,,,,,stop_signal_with_directed_forgetting,,,,,,0.0-0.0-7.0,90.0,"[77, 90]",,,38,1000.0,,,,,104498,0.0,,practice_ITI_fixation,7,poldrack-single-stim,
8,,,,,,500.0,,,,,,,,stop_signal_with_directed_forgetting,,,,,,0.0-0.0-8.0,-1.0,none,,,-1,500.0,"<div class = fb_box><div class = center-text><font size = 20>Correct!</font></div></div><div class = prompt_box><p class = center-block-text style = ""font-size:16px; line-height:80%%;"">Please respond if the probe was in the memory set.</p><p class = center-block-text style = ""font-size:16px; line-height:80%%;"">In memory set: M Key</p><p class = center-block-text style = ""font-size:16px; line-height:80%%;"">Not in memory set: Z Key</p><p class = center-block-text style = ""font-size:16px; line-height:80%%;"">Do not respond if a star appears around the probe!</p></div>",,,,105000,0.0,,practice-stop-feedback,8,poldrack-single-stim,
9,,,,,,500.0,,,,,,,,stop_signal_with_directed_forgetting,,,,,,0.0-0.0-9.0,-1.0,none,,,-1,500.0,"<div class = centerbox><div class = fixation><span style=""color:white"">+</span></div></div>",,,,105504,0.0,,practice_fixation,9,poldrack-single-stim,
10,,,,,,2000.0,,,,,,,,stop_signal_with_directed_forgetting,,,,,,0.0-0.0-10.0,-1.0,none,,,-1,2000.0,"<div class = bigbox><div class = topLeft><div class = cue-text><img class = center src=""/static/experiments/stop_signal_with_directed_forgetting/images/Z.png""></img></div></div><div class = topMiddle><div class = cue-text></div></div><div class = topRight><div class = cue-text><img class = center src=""/static/experiments/stop_signal_with_directed_forgetting/images/B.png""></img></div></div><div class = bottomLeft><div class = cue-text><img class = center src=""/static/experiments/stop_signal_with_directed_forgetting/images/U.png""></img></div></div><div class = bottomMiddle><div class = cue-text></div></div><div class = bottomRight><div class = cue-text><img class = center src=""/static/experiments/stop_signal_with_directed_forgetting/images/Q.png""></img></div></div></div>",,,,107506,0.0,,practice_stim,10,poldrack-single-stim,
11,,,,,,1000.0,,,,,,,,stop_signal_with_directed_forgetting,,,,,,0.0-0.0-11.0,-1.0,[],,,-1,1000.0,"<div class = bigbox><div class = centerbox><div class = cue-text><img class = center src=""/static/experiments/stop_signal_with_directed_forgetting/images/TOP.png""></img></font></div></div></div>",,,,108508,0.0,,practice_cue,11,poldrack-single-stim,
12,,,,,,2000.0,,,,,,,,stop_signal_with_directed_forgetting,,,,,,0.0-0.0-12.0,-1.0,none,,,-1,2000.0,"<div class = centerbox><div class = fixation><span style=""color:white"">+</span></div></div>",,,,110510,0.0,,practice_fixation,12,poldrack-single-stim,
13,400.0,500.0,"<div class = bigbox><div class = starbox><img class = center src=""/static/experiments/stop_signal_with_directed_forgetting/images/stopSignal.png""></img></div></div>",go,,1000.0,"['U', 'Q']",77.0,1.0,TOP,0.0,2.0,pos,stop_signal_with_directed_forgetting,,,,,,0.0-0.0-13.0,77.0,"[77, 90]",U,,615,1000.0,"<div class = bigbox><div class = centerbox><div class = cue-text><img class = center src=""/static/experiments/stop_signal_with_directed_forgetting/images/U.png""></img></font></div></div></div>",,go,,111513,0.0,"['Z', 'B']",practice_trial,13,stop-signal,
14,,,,,,1000.0,,,,,,,,stop_signal_with_directed_forgetting,,,,,,0.0-0.0-14.0,-1.0,"[77, 90]",,,-1,1000.0,,,,,112516,0.0,,practice_ITI_fixation,14,poldrack-single-stim,
15,,,,,,500.0,,,,,,,,stop_signal_with_directed_forgetting,,,,,,0.0-0.0-15.0,-1.0,none,,,-1,500.0,"<div class = fb_box><div class = center-text><font size = 20>Correct!</font></div></div><div class = prompt_box><p class = center-block-text style = ""font-size:16px; line-height:80%%;"">Please respond if the probe was in the memory set.</p><p class = center-block-text style = ""font-size:16px; line-height:80%%;"">In memory set: M Key</p><p class = center-block-text style = ""font-size:16px; line-height:80%%;"">Not in memory set: Z Key</p><p class = center-block-text style = ""font-size:16px; line-height:80%%;"">Do not respond if a star appears around the probe!</p></div>",,,,113020,0.0,,practice-stop-feedback,15,poldrack-single-stim,
16,,,,,,500.0,,,,,,,,stop_signal_with_directed_forgetting,,,,,,0.0-0.0-16.0,-1.0,none,,,-1,500.0,"<div class = centerbox><div class = fixation><span style=""color:white"">+</span></div></div>",,,,113522,0.0,,practice_fixation,16,poldrack-single-stim,
17,,,,,,2000.0,,,,,,,,stop_signal_with_directed_forgetting,,,,,,0.0-0.0-17.0,-1.0,none,,,-1,2000.0,"<div class = bigbox><div class = topLeft><div class = cue-text><img class = center src=""/static/experiments/stop_signal_with_directed_forgetting/images/I.png""></img></div></div><div class = topMiddle><div class = cue-text></div></div><div class = topRight><div class = cue-text><img class = center src=""/static/experiments/stop_signal_with_directed_forgetting/images/V.png""></img></div></div><div class = bottomLeft><div class = cue-text><img class = center src=""/static/experiments/stop_signal_with_directed_forgetting/images/T.png""></img></div></div><div class = bottomMiddle><div class = cue-text></div></div><div class = bottomRight><div class = cue-text><img class = center src=""/static/experiments/stop_signal_with_directed_forgetting/images/Y.png""></img></div></div></div>",,,,115524,0.0,,practice_stim,17,poldrack-single-stim,
18,,,,,,1000.0,,,,,,,,stop_signal_with_directed_forgetting,,,,,,0.0-0.0-18.0,-1.0,[],,,-1,1000.0,"<div class = bigbox><div class = centerbox><div class = cue-text><img class = center src=""/static/experiments/stop_signal_with_directed_forgetting/images/BOT.png""></img></font></div></div></div>",,,,116526,0.0,,practice_cue,18,poldrack-single-stim,
19,,,,,,2000.0,,,,,,,,stop_signal_with_directed_forgetting,,,,,,0.0-0.0-19.0,-1.0,none,,,-1,2000.0,"<div class = centerbox><div class = fixation><span style=""color:white"">+</span></div></div>",,,,118530,0.0,,practice_fixation,19,poldrack-single-stim,
20,400.0,500.0,"<div class = bigbox><div class = starbox><img class = center src=""/static/experiments/stop_signal_with_directed_forgetting/images/stopSignal.png""></img></div></div>",go,,1000.0,"['T', 'Y']",77.0,1.0,BOT,0.0,3.0,pos,stop_signal_with_directed_forgetting,,,,,,0.0-0.0-20.0,77.0,"[77, 90]",I,,728,1000.0,"<div class = bigbox><div class = centerbox><div class = cue-text><img class = center src=""/static/experiments/stop_signal_with_directed_forgetting/images/I.png""></img></font></div></div></div>",,go,,119533,0.0,"['I', 'V']",practice_trial,20,stop-signal,
21,,,,,,1000.0,,,,,,,,stop_signal_with_directed_forgetting,,,,,,0.0-0.0-21.0,-1.0,"[77, 90]",,,-1,1000.0,,,,,120535,0.0,,practice_ITI_fixation,21,poldrack-single-stim,
22,,,,,,500.0,,,,,,,,stop_signal_with_directed_forgetting,,,,,,0.0-0.0-22.0,-1.0,none,,,-1,500.0,"<div class = fb_box><div class = center-text><font size = 20>Correct!</font></div></div><div class = prompt_box><p class = center-block-text style = ""font-size:16px; line-height:80%%;"">Please respond if the probe was in the memory set.</p><p class = center-block-text style = ""font-size:16px; line-height:80%%;"">In memory set: M Key</p><p class = center-block-text style = ""font-size:16px; line-height:80%%;"">Not in memory set: Z Key</p><p class = center-block-text style = ""font-size:16px; line-height:80%%;"">Do not respond if a star appears around the probe!</p></div>",,,,121039,0.0,,practice-stop-feedback,22,poldrack-single-stim,
23,,,,,,500.0,,,,,,,,stop_signal_with_directed_forgetting,,,,,,0.0-0.0-23.0,-1.0,none,,,-1,500.0,"<div class = centerbox><div class = fixation><span style=""color:white"">+</span></div></div>",,,,121540,0.0,,practice_fixation,23,poldrack-single-stim,
24,,,,,,2000.0,,,,,,,,stop_signal_with_directed_forgetting,,,,,,0.0-0.0-24.0,-1.0,none,,,-1,2000.0,"<div class = bigbox><div class = topLeft><div class = cue-text><img class = center src=""/static/experiments/stop_signal_with_directed_forgetting/images/W.png""></img></div></div><div class = topMiddle><div class = cue-text></div></div><div class = topRight><div class = cue-text><img class = center src=""/static/experiments/stop_signal_with_directed_forgetting/images/G.png""></img></div></div><div class = bottomLeft><div class = cue-text><img class = center src=""/static/experiments/stop_signal_with_directed_forgetting/images/P.png""></img></div></div><div class = bottomMiddle><div class = cue-text></div></div><div class = bottomRight><div class = cue-text><img class = center src=""/static/experiments/stop_signal_with_directed_forgetting/images/K.png""></img></div></div></div>",,,,123543,0.0,,practice_stim,24,poldrack-single-stim,
25,,,,,,1000.0,,,,,,,,stop_signal_with_directed_forgetting,,,,,,0.0-0.0-25.0,-1.0,[],,,-1,1000.0,"<div class = bigbox><div class = centerbox><div class = cue-text><img class = center src=""/static/experiments/stop_signal_with_directed_forgetting/images/TOP.png""></img></font></div></div></div>",,,,124545,0.0,,practice_cue,25,poldrack-single-stim,
26,,,,,,2000.0,,,,,,,,stop_signal_with_directed_forgetting,,,,,,0.0-0.0-26.0,-1.0,none,,,-1,2000.0,"<div class = centerbox><div class = fixation><span style=""color:white"">+</span></div></div>",,,,126547,0.0,,practice_fixation,26,poldrack-single-stim,
27,400.0,500.0,"<div class = bigbox><div class = starbox><img class = center src=""/static/experiments/stop_signal_with_directed_forgetting/images/stopSignal.png""></img></div></div>",go,,1000.0,"['P', 'K']",77.0,1.0,TOP,0.0,4.0,pos,stop_signal_with_directed_forgetting,,,,,,0.0-0.0-27.0,77.0,"[77, 90]",K,,720,1000.0,"<div class = bigbox><div class = centerbox><div class = cue-text><img class = center src=""/static/experiments/stop_signal_with_directed_forgetting/images/K.png""></img></font></div></div></div>",,go,,127550,0.0,"['W', 'G']",practice_trial,27,stop-signal,
28,,,,,,1000.0,,,,,,,,stop_signal_with_directed_forgetting,,,,,,0.0-0.0-28.0,-1.0,"[77, 90]",,,-1,1000.0,,,,,128554,0.0,,practice_ITI_fixation,28,poldrack-single-stim,
29,,,,,,500.0,,,,,,,,stop_signal_with_directed_forgetting,,,,,,0.0-0.0-29.0,-1.0,none,,,-1,500.0,"<div class = fb_box><div class = center-text><font size = 20>Correct!</font></div></div><div class = prompt_box><p class = center-block-text style = ""font-size:16px; line-height:80%%;"">Please respond if the probe was in the memory set.</p><p class = center-block-text style = ""font-size:16px; line-height:80%%;"">In memory set: M Key</p><p class = center-block-text style = ""font-size:16px; line-height:80%%;"">Not in memory set: Z Key</p><p class = center-block-text style = ""font-size:16px; line-height:80%%;"">Do not respond if a star appears around the probe!</p></div>",,,,129055,0.0,,practice-stop-feedback,29,poldrack-single-stim,
30,,,,,,500.0,,,,,,,,stop_signal_with_directed_forgetting,,,,,,0.0-0.0-30.0,-1.0,none,,,-1,500.0,"<div class = centerbox><div class = fixation><span style=""color:white"">+</span></div></div>",,,,129558,0.0,,practice_fixation,30,poldrack-single-stim,
31,,,,,,2000.0,,,,,,,,stop_signal_with_directed_forgetting,,,,,,0.0-0.0-31.0,-1.0,none,,,-1,2000.0,"<div class = bigbox><div class = topLeft><div class = cue-text><img class = center src=""/static/experiments/stop_signal_with_directed_forgetting/images/N.png""></img></div></div><div class = topMiddle><div class = cue-text></div></div><div class = topRight><div class = cue-text><img class = center src=""/static/experiments/stop_signal_with_directed_forgetting/images/D.png""></img></div></div><div class = bottomLeft><div class = cue-text><img class = center src=""/static/experiments/stop_signal_with_directed_forgetting/images/O.png""></img></div></div><div class = bottomMiddle><div class = cue-text></div></div><div class = bottomRight><div class = cue-text><img class = center src=""/static/experiments/stop_signal_with_directed_forgetting/images/F.png""></img></div></div></div>",,,,131559,0.0,,practice_stim,31,poldrack-single-stim,
32,,,,,,1000.0,,,,,,,,stop_signal_with_directed_forgetting,,,,,,0.0-0.0-32.0,-1.0,[],,,-1,1000.0,"<div class = bigbox><div class = centerbox><div class = cue-text><img class = center src=""/static/experiments/stop_signal_with_directed_forgetting/images/BOT.png""></img></font></div></div></div>",,,,132563,0.0,,practice_cue,32,poldrack-single-stim,
33,,,,,,2000.0,,,,,,,,stop_signal_with_directed_forgetting,,,,,,0.0-0.0-33.0,-1.0,none,,,-1,2000.0,"<div class = centerbox><div class = fixation><span style=""color:white"">+</span></div></div>",,,,134565,0.0,,practice_fixation,33,poldrack-single-stim,
34,400.0,500.0,"<div class = bigbox><div class = starbox><img class = center src=""/static/experiments/stop_signal_with_directed_forgetting/images/stopSignal.png""></img></div></div>",stop,,1000.0,"['O', 'F']",-1.0,0.0,BOT,0.0,5.0,pos,stop_signal_with_directed_forgetting,,,,,,0.0-0.0-34.0,77.0,"[77, 90]",D,,838,1000.0,"<div class = bigbox><div class = centerbox><div class = cue-text><img class = center src=""/static/experiments/stop_signal_with_directed_forgetting/images/D.png""></img></font></div></div></div>",0.0,stop,,135568,0.0,"['N', 'D']",practice_trial,34,stop-signal,
35,,,,,,1000.0,,,,,,,,stop_signal_with_directed_forgetting,,,,,,0.0-0.0-35.0,-1.0,"[77, 90]",,,-1,1000.0,,,,,136571,0.0,,practice_ITI_fixation,35,poldrack-single-stim,
36,,,,,,500.0,,,,,,,,stop_signal_with_directed_forgetting,,,,,,0.0-0.0-36.0,-1.0,none,,,-1,500.0,"<div class = fb_box><div class = center-text><font size = 20>There was a star.</font></div></div><div class = prompt_box><p class = center-block-text style = ""font-size:16px; line-height:80%%;"">Please respond if the probe was in the memory set.</p><p class = center-block-text style = ""font-size:16px; line-height:80%%;"">In memory set: M Key</p><p class = center-block-text style = ""font-size:16px; line-height:80%%;"">Not in memory set: Z Key</p><p class = center-block-text style = ""font-size:16px; line-height:80%%;"">Do not respond if a star appears around the probe!</p></div>",,,,137073,0.0,,practice-stop-feedback,36,poldrack-single-stim,
37,,,,,,500.0,,,,,,,,stop_signal_with_directed_forgetting,,,,,,0.0-0.0-37.0,-1.0,none,,,-1,500.0,"<div class = centerbox><div class = fixation><span style=""color:white"">+</span></div></div>",,,,137574,0.0,,practice_fixation,37,poldrack-single-stim,
38,,,,,,2000.0,,,,,,,,stop_signal_with_directed_forgetting,,,,,,0.0-0.0-38.0,-1.0,none,,,-1,2000.0,"<div class = bigbox><div class = topLeft><div class = cue-text><img class = center src=""/static/experiments/stop_signal_with_directed_forgetting/images/S.png""></img></div></div><div class = topMiddle><div class = cue-text></div></div><div class = topRight><div class = cue-text><img class = center src=""/static/experiments/stop_signal_with_directed_forgetting/images/T.png""></img></div></div><div class = bottomLeft><div class = cue-text><img class = center src=""/static/experiments/stop_signal_with_directed_forgetting/images/U.png""></img></div></div><div class = bottomMiddle><div class = cue-text></div></div><div class = bottomRight><div class = cue-text><img class = center src=""/static/experiments/stop_signal_with_directed_forgetting/images/C.png""></img></div></div></div>",,,,139577,0.0,,practice_stim,38,poldrack-single-stim,
39,,,,,,1000.0,,,,,,,,stop_signal_with_directed_forgetting,,,,,,0.0-0.0-39.0,-1.0,[],,,-1,1000.0,"<div class = bigbox><div class = centerbox><div class = cue-text><img class = center src=""/static/experiments/stop_signal_with_directed_forgetting/images/TOP.png""></img></font></div></div></div>",,,,140579,0.0,,practice_cue,39,poldrack-single-stim,
40,,,,,,2000.0,,,,,,,,stop_signal_with_directed_forgetting,,,,,,0.0-0.0-40.0,-1.0,none,,,-1,2000.0,"<div class = centerbox><div class = fixation><span style=""color:white"">+</span></div></div>",,,,142581,0.0,,practice_fixation,40,poldrack-single-stim,
41,350.0,500.0,"<div class = bigbox><div class = starbox><img class = center src=""/static/experiments/stop_signal_with_directed_forgetting/images/stopSignal.png""></img></div></div>",go,,1000.0,"['U', 'C']",90.0,0.0,TOP,0.0,6.0,con,stop_signal_with_directed_forgetting,,,,,,0.0-0.0-41.0,-1.0,"[77, 90]",P,,-1,1000.0,"<div class = bigbox><div class = centerbox><div class = cue-text><img class = center src=""/static/experiments/stop_signal_with_directed_forgetting/images/P.png""></img></font></div></div></div>",,go,,143583,0.0,"['S', 'T']",practice_trial,41,stop-signal,
42,,,,,,1000.0,,,,,,,,stop_signal_with_directed_forgetting,,,,,,0.0-0.0-42.0,90.0,"[77, 90]",,,193,1000.0,,,,,144586,0.0,,practice_ITI_fixation,42,poldrack-single-stim,
43,,,,,,500.0,,,,,,,,stop_signal_with_directed_forgetting,,,,,,0.0-0.0-43.0,-1.0,none,,,-1,500.0,"<div class = fb_box><div class = center-text><font size = 20>Respond Faster!</font></div></div><div class = prompt_box><p class = center-block-text style = ""font-size:16px; line-height:80%%;"">Please respond if the probe was in the memory set.</p><p class = center-block-text style = ""font-size:16px; line-height:80%%;"">In memory set: M Key</p><p class = center-block-text style = ""font-size:16px; line-height:80%%;"">Not in memory set: Z Key</p><p class = center-block-text style = ""font-size:16px; line-height:80%%;"">Do not respond if a star appears around the probe!</p></div>",,,,145088,0.0,,practice-stop-feedback,43,poldrack-single-stim,
44,,,,,,500.0,,,,,,,,stop_signal_with_directed_forgetting,,,,,,0.0-0.0-44.0,-1.0,none,,,-1,500.0,"<div class = centerbox><div class = fixation><span style=""color:white"">+</span></div></div>",,,,145589,0.0,,practice_fixation,44,poldrack-single-stim,
45,,,,,,2000.0,,,,,,,,stop_signal_with_directed_forgetting,,,,,,0.0-0.0-45.0,-1.0,none,,,-1,2000.0,"<div class = bigbox><div class = topLeft><div class = cue-text><img class = center src=""/static/experiments/stop_signal_with_directed_forgetting/images/J.png""></img></div></div><div class = topMiddle><div class = cue-text></div></div><div class = topRight><div class = cue-text><img class = center src=""/static/experiments/stop_signal_with_directed_forgetting/images/G.png""></img></div></div><div class = bottomLeft><div class = cue-text><img class = center src=""/static/experiments/stop_signal_with_directed_forgetting/images/L.png""></img></div></div><div class = bottomMiddle><div class = cue-text></div></div><div class = bottomRight><div class = cue-text><img class = center src=""/static/experiments/stop_signal_with_directed_forgetting/images/I.png""></img></div></div></div>",,,,147591,0.0,,practice_stim,45,poldrack-single-stim,
46,,,,,,1000.0,,,,,,,,stop_signal_with_directed_forgetting,,,,,,0.0-0.0-46.0,-1.0,[],,,-1,1000.0,"<div class = bigbox><div class = centerbox><div class = cue-text><img class = center src=""/static/experiments/stop_signal_with_directed_forgetting/images/TOP.png""></img></font></div></div></div>",,,,148595,0.0,,practice_cue,46,poldrack-single-stim,
47,,,,,,2000.0,,,,,,,,stop_signal_with_directed_forgetting,,,,,,0.0-0.0-47.0,-1.0,none,,,-1,2000.0,"<div class = centerbox><div class = fixation><span style=""color:white"">+</span></div></div>",,,,150596,0.0,,practice_fixation,47,poldrack-single-stim,
48,350.0,500.0,"<div class = bigbox><div class = starbox><img class = center src=""/static/experiments/stop_signal_with_directed_forgetting/images/stopSignal.png""></img></div></div>",stop,,1000.0,"['L', 'I']",-1.0,0.0,TOP,0.0,7.0,con,stop_signal_with_directed_forgetting,,,,,,0.0-0.0-48.0,90.0,"[77, 90]",C,,639,1000.0,"<div class = bigbox><div class = centerbox><div class = cue-text><img class = center src=""/static/experiments/stop_signal_with_directed_forgetting/images/C.png""></img></font></div></div></div>",0.0,stop,,151600,0.0,"['J', 'G']",practice_trial,48,stop-signal,
49,,,,,,1000.0,,,,,,,,stop_signal_with_directed_forgetting,,,,,,0.0-0.0-49.0,-1.0,"[77, 90]",,,-1,1000.0,,,,,152603,0.0,,practice_ITI_fixation,49,poldrack-single-stim,
50,,,,,,500.0,,,,,,,,stop_signal_with_directed_forgetting,,,,,,0.0-0.0-50.0,-1.0,none,,,-1,500.0,"<div class = fb_box><div class = center-text><font size = 20>There was a star.</font></div></div><div class = prompt_box><p class = center-block-text style = ""font-size:16px; line-height:80%%;"">Please respond if the probe was in the memory set.</p><p class = center-block-text style = ""font-size:16px; line-height:80%%;"">In memory set: M Key</p><p class = center-block-text style = ""font-size:16px; line-height:80%%;"">Not in memory set: Z Key</p><p class = center-block-text style = ""font-size:16px; line-height:80%%;"">Do not respond if a star appears around the probe!</p></div>",,,,153105,0.0,,practice-stop-feedback,50,poldrack-single-stim,
51,,,,,,500.0,,,,,,,,stop_signal_with_directed_forgetting,,,,,,0.0-0.0-51.0,-1.0,none,,,-1,500.0,"<div class = centerbox><div class = fixation><span style=""color:white"">+</span></div></div>",,,,153606,0.0,,practice_fixation,51,poldrack-single-stim,
52,,,,,,2000.0,,,,,,,,stop_signal_with_directed_forgetting,,,,,,0.0-0.0-52.0,-1.0,none,,,-1,2000.0,"<div class = bigbox><div class = topLeft><div class = cue-text><img class = center src=""/static/experiments/stop_signal_with_directed_forgetting/images/R.png""></img></div></div><div class = topMiddle><div class = cue-text></div></div><div class = topRight><div class = cue-text><img class = center src=""/static/experiments/stop_signal_with_directed_forgetting/images/B.png""></img></div></div><div class = bottomLeft><div class = cue-text><img class = center src=""/static/experiments/stop_signal_with_directed_forgetting/images/Z.png""></img></div></div><div class = bottomMiddle><div class = cue-text></div></div><div class = bottomRight><div class = cue-text><img class = center src=""/static/experiments/stop_signal_with_directed_forgetting/images/Y.png""></img></div></div></div>",,,,155609,0.0,,practice_stim,52,poldrack-single-stim,
53,,,,,,1000.0,,,,,,,,stop_signal_with_directed_forgetting,,,,,,0.0-0.0-53.0,-1.0,[],,,-1,1000.0,"<div class = bigbox><div class = centerbox><div class = cue-text><img class = center src=""/static/experiments/stop_signal_with_directed_forgetting/images/BOT.png""></img></font></div></div></div>",,,,156611,0.0,,practice_cue,53,poldrack-single-stim,
54,,,,,,2000.0,,,,,,,,stop_signal_with_directed_forgetting,,,,,,0.0-0.0-54.0,-1.0,none,,,-1,2000.0,"<div class = centerbox><div class = fixation><span style=""color:white"">+</span></div></div>",,,,158614,0.0,,practice_fixation,54,poldrack-single-stim,
55,300.0,500.0,"<div class = bigbox><div class = starbox><img class = center src=""/static/experiments/stop_signal_with_directed_forgetting/images/stopSignal.png""></img></div></div>",go,,1000.0,"['Z', 'Y']",90.0,0.0,BOT,0.0,8.0,con,stop_signal_with_directed_forgetting,,,,,,0.0-0.0-55.0,-1.0,"[77, 90]",W,,-1,1000.0,"<div class = bigbox><div class = centerbox><div class = cue-text><img class = center src=""/static/experiments/stop_signal_with_directed_forgetting/images/W.png""></img></font></div></div></div>",,go,,159616,0.0,"['R', 'B']",practice_trial,55,stop-signal,
56,,,,,,1000.0,,,,,,,,stop_signal_with_directed_forgetting,,,,,,0.0-0.0-56.0,90.0,"[77, 90]",,,299,1000.0,,,,,160620,0.0,,practice_ITI_fixation,56,poldrack-single-stim,
57,,,,,,500.0,,,,,,,,stop_signal_with_directed_forgetting,,,,,,0.0-0.0-57.0,-1.0,none,,,-1,500.0,"<div class = fb_box><div class = center-text><font size = 20>Respond Faster!</font></div></div><div class = prompt_box><p class = center-block-text style = ""font-size:16px; line-height:80%%;"">Please respond if the probe was in the memory set.</p><p class = center-block-text style = ""font-size:16px; line-height:80%%;"">In memory set: M Key</p><p class = center-block-text style = ""font-size:16px; line-height:80%%;"">Not in memory set: Z Key</p><p class = center-block-text style = ""font-size:16px; line-height:80%%;"">Do not respond if a star appears around the probe!</p></div>",,,,161122,0.0,,practice-stop-feedback,57,poldrack-single-stim,
58,,,,,,500.0,,,,,,,,stop_signal_with_directed_forgetting,,,,,,0.0-0.0-58.0,-1.0,none,,,-1,500.0,"<div class = centerbox><div class = fixation><span style=""color:white"">+</span></div></div>",,,,161623,0.0,,practice_fixation,58,poldrack-single-stim,
59,,,,,,2000.0,,,,,,,,stop_signal_with_directed_forgetting,,,,,,0.0-0.0-59.0,-1.0,none,,,-1,2000.0,"<div class = bigbox><div class = topLeft><div class = cue-text><img class = center src=""/static/experiments/stop_signal_with_directed_forgetting/images/X.png""></img></div></div><div class = topMiddle><div class = cue-text></div></div><div class = topRight><div class = cue-text><img class = center src=""/static/experiments/stop_signal_with_directed_forgetting/images/W.png""></img></div></div><div class = bottomLeft><div class = cue-text><img class = center src=""/static/experiments/stop_signal_with_directed_forgetting/images/E.png""></img></div></div><div class = bottomMiddle><div class = cue-text></div></div><div class = bottomRight><div class = cue-text><img class = center src=""/static/experiments/stop_signal_with_directed_forgetting/images/T.png""></img></div></div></div>",,,,163625,0.0,,practice_stim,59,poldrack-single-stim,
60,,,,,,1000.0,,,,,,,,stop_signal_with_directed_forgetting,,,,,,0.0-0.0-60.0,-1.0,[],,,-1,1000.0,"<div class = bigbox><div class = centerbox><div class = cue-text><img class = center src=""/static/experiments/stop_signal_with_directed_forgetting/images/TOP.png""></img></font></div></div></div>",,,,164628,0.0,,practice_cue,60,poldrack-single-stim,
61,,,,,,2000.0,,,,,,,,stop_signal_with_directed_forgetting,,,,,,0.0-0.0-61.0,-1.0,none,,,-1,2000.0,"<div class = centerbox><div class = fixation><span style=""color:white"">+</span></div></div>",,,,166631,0.0,,practice_fixation,61,poldrack-single-stim,
62,300.0,500.0,"<div class = bigbox><div class = starbox><img class = center src=""/static/experiments/stop_signal_with_directed_forgetting/images/stopSignal.png""></img></div></div>",go,,1000.0,"['E', 'T']",90.0,1.0,TOP,0.0,9.0,neg,stop_signal_with_directed_forgetting,,,,,,0.0-0.0-62.0,90.0,"[77, 90]",W,,823,1000.0,"<div class = bigbox><div class = centerbox><div class = cue-text><img class = center src=""/static/experiments/stop_signal_with_directed_forgetting/images/W.png""></img></font></div></div></div>",,go,,167634,0.0,"['X', 'W']",practice_trial,62,stop-signal,
63,,,,,,1000.0,,,,,,,,stop_signal_with_directed_forgetting,,,,,,0.0-0.0-63.0,-1.0,"[77, 90]",,,-1,1000.0,,,,,168637,0.0,,practice_ITI_fixation,63,poldrack-single-stim,
64,,,,,,500.0,,,,,,,,stop_signal_with_directed_forgetting,,,,,,0.0-0.0-64.0,-1.0,none,,,-1,500.0,"<div class = fb_box><div class = center-text><font size = 20>Correct!</font></div></div><div class = prompt_box><p class = center-block-text style = ""font-size:16px; line-height:80%%;"">Please respond if the probe was in the memory set.</p><p class = center-block-text style = ""font-size:16px; line-height:80%%;"">In memory set: M Key</p><p class = center-block-text style = ""font-size:16px; line-height:80%%;"">Not in memory set: Z Key</p><p class = center-block-text style = ""font-size:16px; line-height:80%%;"">Do not respond if a star appears around the probe!</p></div>",,,,169139,0.0,,practice-stop-feedback,64,poldrack-single-stim,
65,,,,,,500.0,,,,,,,,stop_signal_with_directed_forgetting,,,,,,0.0-0.0-65.0,-1.0,none,,,-1,500.0,"<div class = centerbox><div class = fixation><span style=""color:white"">+</span></div></div>",,,,169642,0.0,,practice_fixation,65,poldrack-single-stim,
66,,,,,,2000.0,,,,,,,,stop_signal_with_directed_forgetting,,,,,,0.0-0.0-66.0,-1.0,none,,,-1,2000.0,"<div class = bigbox><div class = topLeft><div class = cue-text><img class = center src=""/static/experiments/stop_signal_with_directed_forgetting/images/K.png""></img></div></div><div class = topMiddle><div class = cue-text></div></div><div class = topRight><div class = cue-text><img class = center src=""/static/experiments/stop_signal_with_directed_forgetting/images/M.png""></img></div></div><div class = bottomLeft><div class = cue-text><img class = center src=""/static/experiments/stop_signal_with_directed_forgetting/images/O.png""></img></div></div><div class = bottomMiddle><div class = cue-text></div></div><div class = bottomRight><div class = cue-text><img class = center src=""/static/experiments/stop_signal_with_directed_forgetting/images/I.png""></img></div></div></div>",,,,171644,0.0,,practice_stim,66,poldrack-single-stim,
67,,,,,,1000.0,,,,,,,,stop_signal_with_directed_forgetting,,,,,,0.0-0.0-67.0,-1.0,[],,,-1,1000.0,"<div class = bigbox><div class = centerbox><div class = cue-text><img class = center src=""/static/experiments/stop_signal_with_directed_forgetting/images/TOP.png""></img></font></div></div></div>",,,,172646,0.0,,practice_cue,67,poldrack-single-stim,
68,,,,,,2000.0,,,,,,,,stop_signal_with_directed_forgetting,,,,,,0.0-0.0-68.0,-1.0,none,,,-1,2000.0,"<div class = centerbox><div class = fixation><span style=""color:white"">+</span></div></div>",,,,174648,0.0,,practice_fixation,68,poldrack-single-stim,
69,300.0,500.0,"<div class = bigbox><div class = starbox><img class = center src=""/static/experiments/stop_signal_with_directed_forgetting/images/stopSignal.png""></img></div></div>",go,,1000.0,"['O', 'I']",90.0,1.0,TOP,0.0,10.0,neg,stop_signal_with_directed_forgetting,,,,,,0.0-0.0-69.0,90.0,"[77, 90]",K,,885,1000.0,"<div class = bigbox><div class = centerbox><div class = cue-text><img class = center src=""/static/experiments/stop_signal_with_directed_forgetting/images/K.png""></img></font></div></div></div>",,go,,175649,0.0,"['K', 'M']",practice_trial,69,stop-signal,
70,,,,,,1000.0,,,,,,,,stop_signal_with_directed_forgetting,,,,,,0.0-0.0-70.0,-1.0,"[77, 90]",,,-1,1000.0,,,,,176651,0.0,,practice_ITI_fixation,70,poldrack-single-stim,
71,,,,,,500.0,,,,,,,,stop_signal_with_directed_forgetting,,,,,,0.0-0.0-71.0,-1.0,none,,,-1,500.0,"<div class = fb_box><div class = center-text><font size = 20>Correct!</font></div></div><div class = prompt_box><p class = center-block-text style = ""font-size:16px; line-height:80%%;"">Please respond if the probe was in the memory set.</p><p class = center-block-text style = ""font-size:16px; line-height:80%%;"">In memory set: M Key</p><p class = center-block-text style = ""font-size:16px; line-height:80%%;"">Not in memory set: Z Key</p><p class = center-block-text style = ""font-size:16px; line-height:80%%;"">Do not respond if a star appears around the probe!</p></div>",,,,177153,0.0,,practice-stop-feedback,71,poldrack-single-stim,
72,,,,,,500.0,,,,,,,,stop_signal_with_directed_forgetting,,,,,,0.0-0.0-72.0,-1.0,none,,,-1,500.0,"<div class = centerbox><div class = fixation><span style=""color:white"">+</span></div></div>",,,,177656,0.0,,practice_fixation,72,poldrack-single-stim,
73,,,,,,2000.0,,,,,,,,stop_signal_with_directed_forgetting,,,,,,0.0-0.0-73.0,-1.0,none,,,-1,2000.0,"<div class = bigbox><div class = topLeft><div class = cue-text><img class = center src=""/static/experiments/stop_signal_with_directed_forgetting/images/V.png""></img></div></div><div class = topMiddle><div class = cue-text></div></div><div class = topRight><div class = cue-text><img class = center src=""/static/experiments/stop_signal_with_directed_forgetting/images/B.png""></img></div></div><div class = bottomLeft><div class = cue-text><img class = center src=""/static/experiments/stop_signal_with_directed_forgetting/images/D.png""></img></div></div><div class = bottomMiddle><div class = cue-text></div></div><div class = bottomRight><div class = cue-text><img class = center src=""/static/experiments/stop_signal_with_directed_forgetting/images/Q.png""></img></div></div></div>",,,,179659,0.0,,practice_stim,73,poldrack-single-stim,
74,,,,,,1000.0,,,,,,,,stop_signal_with_directed_forgetting,,,,,,0.0-0.0-74.0,-1.0,[],,,-1,1000.0,"<div class = bigbox><div class = centerbox><div class = cue-text><img class = center src=""/static/experiments/stop_signal_with_directed_forgetting/images/TOP.png""></img></font></div></div></div>",,,,180660,0.0,,practice_cue,74,poldrack-single-stim,
75,,,,,,2000.0,,,,,,,,stop_signal_with_directed_forgetting,,,,,,0.0-0.0-75.0,-1.0,none,,,-1,2000.0,"<div class = centerbox><div class = fixation><span style=""color:white"">+</span></div></div>",,,,182662,0.0,,practice_fixation,75,poldrack-single-stim,
76,300.0,500.0,"<div class = bigbox><div class = starbox><img class = center src=""/static/experiments/stop_signal_with_directed_forgetting/images/stopSignal.png""></img></div></div>",go,,1000.0,"['D', 'Q']",77.0,1.0,TOP,0.0,11.0,pos,stop_signal_with_directed_forgetting,,,,,,0.0-0.0-76.0,77.0,"[77, 90]",D,,837,1000.0,"<div class = bigbox><div class = centerbox><div class = cue-text><img class = center src=""/static/experiments/stop_signal_with_directed_forgetting/images/D.png""></img></font></div></div></div>",,go,,183664,0.0,"['V', 'B']",practice_trial,76,stop-signal,
77,,,,,,1000.0,,,,,,,,stop_signal_with_directed_forgetting,,,,,,0.0-0.0-77.0,-1.0,"[77, 90]",,,-1,1000.0,,,,,184666,0.0,,practice_ITI_fixation,77,poldrack-single-stim,
78,,,,,,500.0,,,,,,,,stop_signal_with_directed_forgetting,,,,,,0.0-0.0-78.0,-1.0,none,,,-1,500.0,"<div class = fb_box><div class = center-text><font size = 20>Correct!</font></div></div><div class = prompt_box><p class = center-block-text style = ""font-size:16px; line-height:80%%;"">Please respond if the probe was in the memory set.</p><p class = center-block-text style = ""font-size:16px; line-height:80%%;"">In memory set: M Key</p><p class = center-block-text style = ""font-size:16px; line-height:80%%;"">Not in memory set: Z Key</p><p class = center-block-text style = ""font-size:16px; line-height:80%%;"">Do not respond if a star appears around the probe!</p></div>",,,,185169,0.0,,practice-stop-feedback,78,poldrack-single-stim,
79,,,,,,500.0,,,,,,,,stop_signal_with_directed_forgetting,,,,,,0.0-0.0-79.0,-1.0,none,,,-1,500.0,"<div class = centerbox><div class = fixation><span style=""color:white"">+</span></div></div>",,,,185670,0.0,,practice_fixation,79,poldrack-single-stim,
80,,,,,,2000.0,,,,,,,,stop_signal_with_directed_forgetting,,,,,,0.0-0.0-80.0,-1.0,none,,,-1,2000.0,"<div class = bigbox><div class = topLeft><div class = cue-text><img class = center src=""/static/experiments/stop_signal_with_directed_forgetting/images/N.png""></img></div></div><div class = topMiddle><div class = cue-text></div></div><div class = topRight><div class = cue-text><img class = center src=""/static/experiments/stop_signal_with_directed_forgetting/images/F.png""></img></div></div><div class = bottomLeft><div class = cue-text><img class = center src=""/static/experiments/stop_signal_with_directed_forgetting/images/Y.png""></img></div></div><div class = bottomMiddle><div class = cue-text></div></div><div class = bottomRight><div class = cue-text><img class = center src=""/static/experiments/stop_signal_with_directed_forgetting/images/A.png""></img></div></div></div>",,,,187673,0.0,,practice_stim,80,poldrack-single-stim,
81,,,,,,1000.0,,,,,,,,stop_signal_with_directed_forgetting,,,,,,0.0-0.0-81.0,-1.0,[],,,-1,1000.0,"<div class = bigbox><div class = centerbox><div class = cue-text><img class = center src=""/static/experiments/stop_signal_with_directed_forgetting/images/TOP.png""></img></font></div></div></div>",,,,188674,0.0,,practice_cue,81,poldrack-single-stim,
82,,,,,,2000.0,,,,,,,,stop_signal_with_directed_forgetting,,,,,,0.0-0.0-82.0,-1.0,none,,,-1,2000.0,"<div class = centerbox><div class = fixation><span style=""color:white"">+</span></div></div>",,,,190677,0.0,,practice_fixation,82,poldrack-single-stim,
83,300.0,500.0,"<div class = bigbox><div class = starbox><img class = center src=""/static/experiments/stop_signal_with_directed_forgetting/images/stopSignal.png""></img></div></div>",stop,,1000.0,"['Y', 'A']",-1.0,1.0,TOP,0.0,12.0,pos,stop_signal_with_directed_forgetting,,,,,,0.0-0.0-83.0,-1.0,"[77, 90]",A,,-1,1000.0,"<div class = bigbox><div class = centerbox><div class = cue-text><img class = center src=""/static/experiments/stop_signal_with_directed_forgetting/images/A.png""></img></font></div></div></div>",1.0,stop,,191680,0.0,"['N', 'F']",practice_trial,83,stop-signal,
84,,,,,,1000.0,,,,,,,,stop_signal_with_directed_forgetting,,,,,,0.0-0.0-84.0,-1.0,"[77, 90]",,,-1,1000.0,,,,,192682,0.0,,practice_ITI_fixation,84,poldrack-single-stim,
85,,,,,,500.0,,,,,,,,stop_signal_with_directed_forgetting,,,,,,0.0-0.0-85.0,-1.0,none,,,-1,500.0,"<div class = fb_box><div class = center-text><font size = 20>Correct!</font></div></div><div class = prompt_box><p class = center-block-text style = ""font-size:16px; line-height:80%%;"">Please respond if the probe was in the memory set.</p><p class = center-block-text style = ""font-size:16px; line-height:80%%;"">In memory set: M Key</p><p class = center-block-text style = ""font-size:16px; line-height:80%%;"">Not in memory set: Z Key</p><p class = center-block-text style = ""font-size:16px; line-height:80%%;"">Do not respond if a star appears around the probe!</p></div>",,,,193184,0.0,,practice-stop-feedback,85,poldrack-single-stim,
86,,,,,,5461.0,,,,,,,,stop_signal_with_directed_forgetting,,,,,,0.0-0.1-0.1,13.0,[13],,,5461,5461.0,<div class = bigbox><div class = picture_box><p class = block-text><br>Please take this time to read your feedback and to take a short break! Press enter to continue</p><p class = block-text>You have not been responding to some trials.  Please respond on every trial that requires a response.</p><p class = block-text>Redoing this practice. Press Enter to continue.</p></div></div>,,,,198649,0.0,,feedback_block,86,poldrack-single-stim,
87,,,,,,,,,,,,,,stop_signal_with_directed_forgetting,,,,,,0.0-0.1-1.1,,,,,10327,,,,,,208977,,,instruction,87,poldrack-instructions,"[{""page_index"":0,""viewing_time"":2952},{""page_index"":1,""viewing_time"":3726},{""page_index"":2,""viewing_time"":2335},{""page_index"":3,""viewing_time"":1313}]"
88,,,,,,500.0,,,,,,,,stop_signal_with_directed_forgetting,,,,,,0.0-0.1-2.1,-1.0,none,,,-1,500.0,"<div class = centerbox><div class = fixation><span style=""color:white"">+</span></div></div>",,,,210481,0.0,,practice_fixation,88,poldrack-single-stim,
89,,,,,,2000.0,,,,,,,,stop_signal_with_directed_forgetting,,,,,,0.0-0.1-3.1,-1.0,none,,,-1,2000.0,"<div class = bigbox><div class = topLeft><div class = cue-text><img class = center src=""/static/experiments/stop_signal_with_directed_forgetting/images/V.png""></img></div></div><div class = topMiddle><div class = cue-text></div></div><div class = topRight><div class = cue-text><img class = center src=""/static/experiments/stop_signal_with_directed_forgetting/images/E.png""></img></div></div><div class = bottomLeft><div class = cue-text><img class = center src=""/static/experiments/stop_signal_with_directed_forgetting/images/X.png""></img></div></div><div class = bottomMiddle><div class = cue-text></div></div><div class = bottomRight><div class = cue-text><img class = center src=""/static/experiments/stop_signal_with_directed_forgetting/images/I.png""></img></div></div></div>",,,,212485,0.0,,practice_stim,89,poldrack-single-stim,
90,,,,,,1000.0,,,,,,,,stop_signal_with_directed_forgetting,,,,,,0.0-0.1-4.1,-1.0,[],,,-1,1000.0,"<div class = bigbox><div class = centerbox><div class = cue-text><img class = center src=""/static/experiments/stop_signal_with_directed_forgetting/images/TOP.png""></img></font></div></div></div>",,,,213487,0.0,,practice_cue,90,poldrack-single-stim,
91,,,,,,2000.0,,,,,,,,stop_signal_with_directed_forgetting,,,,,,0.0-0.1-5.1,-1.0,none,,,-1,2000.0,"<div class = centerbox><div class = fixation><span style=""color:white"">+</span></div></div>",,,,215488,0.0,,practice_fixation,91,poldrack-single-stim,
92,350.0,500.0,"<div class = bigbox><div class = starbox><img class = center src=""/static/experiments/stop_signal_with_directed_forgetting/images/stopSignal.png""></img></div></div>",go,,1000.0,"['X', 'I']",90.0,1.0,TOP,1.0,1.0,neg,stop_signal_with_directed_forgetting,,,,,,0.0-0.1-6.1,90.0,"[77, 90]",E,,915,1000.0,"<div class = bigbox><div class = centerbox><div class = cue-text><img class = center src=""/static/experiments/stop_signal_with_directed_forgetting/images/E.png""></img></font></div></div></div>",,go,,216490,0.0,"['V', 'E']",practice_trial,92,stop-signal,
93,,,,,,1000.0,,,,,,,,stop_signal_with_directed_forgetting,,,,,,0.0-0.1-7.1,-1.0,"[77, 90]",,,-1,1000.0,,,,,217493,0.0,,practice_ITI_fixation,93,poldrack-single-stim,
94,,,,,,500.0,,,,,,,,stop_signal_with_directed_forgetting,,,,,,0.0-0.1-8.1,-1.0,none,,,-1,500.0,"<div class = fb_box><div class = center-text><font size = 20>Correct!</font></div></div><div class = prompt_box><p class = center-block-text style = ""font-size:16px; line-height:80%%;"">Please respond if the probe was in the memory set.</p><p class = center-block-text style = ""font-size:16px; line-height:80%%;"">In memory set: M Key</p><p class = center-block-text style = ""font-size:16px; line-height:80%%;"">Not in memory set: Z Key</p><p class = center-block-text style = ""font-size:16px; line-height:80%%;"">Do not respond if a star appears around the probe!</p></div>",,,,217997,0.0,,practice-stop-feedback,94,poldrack-single-stim,
95,,,,,,500.0,,,,,,,,stop_signal_with_directed_forgetting,,,,,,0.0-0.1-9.1,-1.0,none,,,-1,500.0,"<div class = centerbox><div class = fixation><span style=""color:white"">+</span></div></div>",,,,218499,0.0,,practice_fixation,95,poldrack-single-stim,
96,,,,,,2000.0,,,,,,,,stop_signal_with_directed_forgetting,,,,,,0.0-0.1-10.1,-1.0,none,,,-1,2000.0,"<div class = bigbox><div class = topLeft><div class = cue-text><img class = center src=""/static/experiments/stop_signal_with_directed_forgetting/images/U.png""></img></div></div><div class = topMiddle><div class = cue-text></div></div><div class = topRight><div class = cue-text><img class = center src=""/static/experiments/stop_signal_with_directed_forgetting/images/Y.png""></img></div></div><div class = bottomLeft><div class = cue-text><img class = center src=""/static/experiments/stop_signal_with_directed_forgetting/images/F.png""></img></div></div><div class = bottomMiddle><div class = cue-text></div></div><div class = bottomRight><div class = cue-text><img class = center src=""/static/experiments/stop_signal_with_directed_forgetting/images/A.png""></img></div></div></div>",,,,220502,0.0,,practice_stim,96,poldrack-single-stim,
97,,,,,,1000.0,,,,,,,,stop_signal_with_directed_forgetting,,,,,,0.0-0.1-11.1,-1.0,[],,,-1,1000.0,"<div class = bigbox><div class = centerbox><div class = cue-text><img class = center src=""/static/experiments/stop_signal_with_directed_forgetting/images/BOT.png""></img></font></div></div></div>",,,,221504,0.0,,practice_cue,97,poldrack-single-stim,
98,,,,,,2000.0,,,,,,,,stop_signal_with_directed_forgetting,,,,,,0.0-0.1-12.1,-1.0,none,,,-1,2000.0,"<div class = centerbox><div class = fixation><span style=""color:white"">+</span></div></div>",,,,223506,0.0,,practice_fixation,98,poldrack-single-stim,
99,350.0,500.0,"<div class = bigbox><div class = starbox><img class = center src=""/static/experiments/stop_signal_with_directed_forgetting/images/stopSignal.png""></img></div></div>",go,,1000.0,"['F', 'A']",90.0,1.0,BOT,1.0,2.0,neg,stop_signal_with_directed_forgetting,,,,,,0.0-0.1-13.1,90.0,"[77, 90]",A,,702,1000.0,"<div class = bigbox><div class = centerbox><div class = cue-text><img class = center src=""/static/experiments/stop_signal_with_directed_forgetting/images/A.png""></img></font></div></div></div>",,go,,224509,0.0,"['U', 'Y']",practice_trial,99,stop-signal,
100,,,,,,1000.0,,,,,,,,stop_signal_with_directed_forgetting,,,,,,0.0-0.1-14.1,-1.0,"[77, 90]",,,-1,1000.0,,,,,225511,0.0,,practice_ITI_fixation,100,poldrack-single-stim,
101,,,,,,500.0,,,,,,,,stop_signal_with_directed_forgetting,,,,,,0.0-0.1-15.1,-1.0,none,,,-1,500.0,"<div class = fb_box><div class = center-text><font size = 20>Correct!</font></div></div><div class = prompt_box><p class = center-block-text style = ""font-size:16px; line-height:80%%;"">Please respond if the probe was in the memory set.</p><p class = center-block-text style = ""font-size:16px; line-height:80%%;"">In memory set: M Key</p><p class = center-block-text style = ""font-size:16px; line-height:80%%;"">Not in memory set: Z Key</p><p class = center-block-text style = ""font-size:16px; line-height:80%%;"">Do not respond if a star appears around the probe!</p></div>",,,,226013,0.0,,practice-stop-feedback,101,poldrack-single-stim,
102,,,,,,500.0,,,,,,,,stop_signal_with_directed_forgetting,,,,,,0.0-0.1-16.1,-1.0,none,,,-1,500.0,"<div class = centerbox><div class = fixation><span style=""color:white"">+</span></div></div>",,,,226515,0.0,,practice_fixation,102,poldrack-single-stim,
103,,,,,,2000.0,,,,,,,,stop_signal_with_directed_forgetting,,,,,,0.0-0.1-17.1,-1.0,none,,,-1,2000.0,"<div class = bigbox><div class = topLeft><div class = cue-text><img class = center src=""/static/experiments/stop_signal_with_directed_forgetting/images/D.png""></img></div></div><div class = topMiddle><div class = cue-text></div></div><div class = topRight><div class = cue-text><img class = center src=""/static/experiments/stop_signal_with_directed_forgetting/images/W.png""></img></div></div><div class = bottomLeft><div class = cue-text><img class = center src=""/static/experiments/stop_signal_with_directed_forgetting/images/O.png""></img></div></div><div class = bottomMiddle><div class = cue-text></div></div><div class = bottomRight><div class = cue-text><img class = center src=""/static/experiments/stop_signal_with_directed_forgetting/images/Q.png""></img></div></div></div>",,,,228517,0.0,,practice_stim,103,poldrack-single-stim,
104,,,,,,1000.0,,,,,,,,stop_signal_with_directed_forgetting,,,,,,0.0-0.1-18.1,-1.0,[],,,-1,1000.0,"<div class = bigbox><div class = centerbox><div class = cue-text><img class = center src=""/static/experiments/stop_signal_with_directed_forgetting/images/BOT.png""></img></font></div></div></div>",,,,229519,0.0,,practice_cue,104,poldrack-single-stim,
105,,,,,,2000.0,,,,,,,,stop_signal_with_directed_forgetting,,,,,,0.0-0.1-19.1,-1.0,none,,,-1,2000.0,"<div class = centerbox><div class = fixation><span style=""color:white"">+</span></div></div>",,,,231521,0.0,,practice_fixation,105,poldrack-single-stim,
106,350.0,500.0,"<div class = bigbox><div class = starbox><img class = center src=""/static/experiments/stop_signal_with_directed_forgetting/images/stopSignal.png""></img></div></div>",stop,,1000.0,"['O', 'Q']",-1.0,1.0,BOT,1.0,3.0,neg,stop_signal_with_directed_forgetting,,,,,,0.0-0.1-20.1,-1.0,"[77, 90]",O,,-1,1000.0,"<div class = bigbox><div class = centerbox><div class = cue-text><img class = center src=""/static/experiments/stop_signal_with_directed_forgetting/images/O.png""></img></font></div></div></div>",1.0,stop,,232523,0.0,"['D', 'W']",practice_trial,106,stop-signal,
107,,,,,,1000.0,,,,,,,,stop_signal_with_directed_forgetting,,,,,,0.0-0.1-21.1,-1.0,"[77, 90]",,,-1,1000.0,,,,,233525,0.0,,practice_ITI_fixation,107,poldrack-single-stim,
108,,,,,,500.0,,,,,,,,stop_signal_with_directed_forgetting,,,,,,0.0-0.1-22.1,-1.0,none,,,-1,500.0,"<div class = fb_box><div class = center-text><font size = 20>Correct!</font></div></div><div class = prompt_box><p class = center-block-text style = ""font-size:16px; line-height:80%%;"">Please respond if the probe was in the memory set.</p><p class = center-block-text style = ""font-size:16px; line-height:80%%;"">In memory set: M Key</p><p class = center-block-text style = ""font-size:16px; line-height:80%%;"">Not in memory set: Z Key</p><p class = center-block-text style = ""font-size:16px; line-height:80%%;"">Do not respond if a star appears around the probe!</p></div>",,,,234027,0.0,,practice-stop-feedback,108,poldrack-single-stim,
109,,,,,,500.0,,,,,,,,stop_signal_with_directed_forgetting,,,,,,0.0-0.1-23.1,-1.0,none,,,-1,500.0,"<div class = centerbox><div class = fixation><span style=""color:white"">+</span></div></div>",,,,234529,0.0,,practice_fixation,109,poldrack-single-stim,
110,,,,,,2000.0,,,,,,,,stop_signal_with_directed_forgetting,,,,,,0.0-0.1-24.1,-1.0,none,,,-1,2000.0,"<div class = bigbox><div class = topLeft><div class = cue-text><img class = center src=""/static/experiments/stop_signal_with_directed_forgetting/images/G.png""></img></div></div><div class = topMiddle><div class = cue-text></div></div><div class = topRight><div class = cue-text><img class = center src=""/static/experiments/stop_signal_with_directed_forgetting/images/K.png""></img></div></div><div class = bottomLeft><div class = cue-text><img class = center src=""/static/experiments/stop_signal_with_directed_forgetting/images/I.png""></img></div></div><div class = bottomMiddle><div class = cue-text></div></div><div class = bottomRight><div class = cue-text><img class = center src=""/static/experiments/stop_signal_with_directed_forgetting/images/J.png""></img></div></div></div>",,,,236531,0.0,,practice_stim,110,poldrack-single-stim,
111,,,,,,1000.0,,,,,,,,stop_signal_with_directed_forgetting,,,,,,0.0-0.1-25.1,-1.0,[],,,-1,1000.0,"<div class = bigbox><div class = centerbox><div class = cue-text><img class = center src=""/static/experiments/stop_signal_with_directed_forgetting/images/TOP.png""></img></font></div></div></div>",,,,237534,0.0,,practice_cue,111,poldrack-single-stim,
112,,,,,,2000.0,,,,,,,,stop_signal_with_directed_forgetting,,,,,,0.0-0.1-26.1,-1.0,none,,,-1,2000.0,"<div class = centerbox><div class = fixation><span style=""color:white"">+</span></div></div>",,,,239537,0.0,,practice_fixation,112,poldrack-single-stim,
113,400.0,500.0,"<div class = bigbox><div class = starbox><img class = center src=""/static/experiments/stop_signal_with_directed_forgetting/images/stopSignal.png""></img></div></div>",go,,1000.0,"['I', 'J']",90.0,1.0,TOP,1.0,4.0,con,stop_signal_with_directed_forgetting,,,,,,0.0-0.1-27.1,90.0,"[77, 90]",E,,957,1000.0,"<div class = bigbox><div class = centerbox><div class = cue-text><img class = center src=""/static/experiments/stop_signal_with_directed_forgetting/images/E.png""></img></font></div></div></div>",,go,,240540,0.0,"['G', 'K']",practice_trial,113,stop-signal,
114,,,,,,1000.0,,,,,,,,stop_signal_with_directed_forgetting,,,,,,0.0-0.1-28.1,-1.0,"[77, 90]",,,-1,1000.0,,,,,241541,0.0,,practice_ITI_fixation,114,poldrack-single-stim,
115,,,,,,500.0,,,,,,,,stop_signal_with_directed_forgetting,,,,,,0.0-0.1-29.1,-1.0,none,,,-1,500.0,"<div class = fb_box><div class = center-text><font size = 20>Correct!</font></div></div><div class = prompt_box><p class = center-block-text style = ""font-size:16px; line-height:80%%;"">Please respond if the probe was in the memory set.</p><p class = center-block-text style = ""font-size:16px; line-height:80%%;"">In memory set: M Key</p><p class = center-block-text style = ""font-size:16px; line-height:80%%;"">Not in memory set: Z Key</p><p class = center-block-text style = ""font-size:16px; line-height:80%%;"">Do not respond if a star appears around the probe!</p></div>",,,,242043,0.0,,practice-stop-feedback,115,poldrack-single-stim,
116,,,,,,500.0,,,,,,,,stop_signal_with_directed_forgetting,,,,,,0.0-0.1-30.1,-1.0,none,,,-1,500.0,"<div class = centerbox><div class = fixation><span style=""color:white"">+</span></div></div>",,,,242545,0.0,,practice_fixation,116,poldrack-single-stim,
117,,,,,,2000.0,,,,,,,,stop_signal_with_directed_forgetting,,,,,,0.0-0.1-31.1,-1.0,none,,,-1,2000.0,"<div class = bigbox><div class = topLeft><div class = cue-text><img class = center src=""/static/experiments/stop_signal_with_directed_forgetting/images/A.png""></img></div></div><div class = topMiddle><div class = cue-text></div></div><div class = topRight><div class = cue-text><img class = center src=""/static/experiments/stop_signal_with_directed_forgetting/images/R.png""></img></div></div><div class = bottomLeft><div class = cue-text><img class = center src=""/static/experiments/stop_signal_with_directed_forgetting/images/T.png""></img></div></div><div class = bottomMiddle><div class = cue-text></div></div><div class = bottomRight><div class = cue-text><img class = center src=""/static/experiments/stop_signal_with_directed_forgetting/images/N.png""></img></div></div></div>",,,,244548,0.0,,practice_stim,117,poldrack-single-stim,
118,,,,,,1000.0,,,,,,,,stop_signal_with_directed_forgetting,,,,,,0.0-0.1-32.1,-1.0,[],,,-1,1000.0,"<div class = bigbox><div class = centerbox><div class = cue-text><img class = center src=""/static/experiments/stop_signal_with_directed_forgetting/images/TOP.png""></img></font></div></div></div>",,,,245549,0.0,,practice_cue,118,poldrack-single-stim,
119,,,,,,2000.0,,,,,,,,stop_signal_with_directed_forgetting,,,,,,0.0-0.1-33.1,-1.0,none,,,-1,2000.0,"<div class = centerbox><div class = fixation><span style=""color:white"">+</span></div></div>",,,,247552,0.0,,practice_fixation,119,poldrack-single-stim,
120,400.0,500.0,"<div class = bigbox><div class = starbox><img class = center src=""/static/experiments/stop_signal_with_directed_forgetting/images/stopSignal.png""></img></div></div>",go,,1000.0,"['T', 'N']",90.0,1.0,TOP,1.0,5.0,con,stop_signal_with_directed_forgetting,,,,,,0.0-0.1-34.1,90.0,"[77, 90]",W,,979,1000.0,"<div class = bigbox><div class = centerbox><div class = cue-text><img class = center src=""/static/experiments/stop_signal_with_directed_forgetting/images/W.png""></img></font></div></div></div>",,go,,248554,0.0,"['A', 'R']",practice_trial,120,stop-signal,
121,,,,,,1000.0,,,,,,,,stop_signal_with_directed_forgetting,,,,,,0.0-0.1-35.1,-1.0,"[77, 90]",,,-1,1000.0,,,,,249556,0.0,,practice_ITI_fixation,121,poldrack-single-stim,
122,,,,,,500.0,,,,,,,,stop_signal_with_directed_forgetting,,,,,,0.0-0.1-36.1,-1.0,none,,,-1,500.0,"<div class = fb_box><div class = center-text><font size = 20>Correct!</font></div></div><div class = prompt_box><p class = center-block-text style = ""font-size:16px; line-height:80%%;"">Please respond if the probe was in the memory set.</p><p class = center-block-text style = ""font-size:16px; line-height:80%%;"">In memory set: M Key</p><p class = center-block-text style = ""font-size:16px; line-height:80%%;"">Not in memory set: Z Key</p><p class = center-block-text style = ""font-size:16px; line-height:80%%;"">Do not respond if a star appears around the probe!</p></div>",,,,250058,0.0,,practice-stop-feedback,122,poldrack-single-stim,
123,,,,,,500.0,,,,,,,,stop_signal_with_directed_forgetting,,,,,,0.0-0.1-37.1,-1.0,none,,,-1,500.0,"<div class = centerbox><div class = fixation><span style=""color:white"">+</span></div></div>",,,,250560,0.0,,practice_fixation,123,poldrack-single-stim,
124,,,,,,2000.0,,,,,,,,stop_signal_with_directed_forgetting,,,,,,0.0-0.1-38.1,-1.0,none,,,-1,2000.0,"<div class = bigbox><div class = topLeft><div class = cue-text><img class = center src=""/static/experiments/stop_signal_with_directed_forgetting/images/M.png""></img></div></div><div class = topMiddle><div class = cue-text></div></div><div class = topRight><div class = cue-text><img class = center src=""/static/experiments/stop_signal_with_directed_forgetting/images/Z.png""></img></div></div><div class = bottomLeft><div class = cue-text><img class = center src=""/static/experiments/stop_signal_with_directed_forgetting/images/H.png""></img></div></div><div class = bottomMiddle><div class = cue-text></div></div><div class = bottomRight><div class = cue-text><img class = center src=""/static/experiments/stop_signal_with_directed_forgetting/images/D.png""></img></div></div></div>",,,,252564,0.0,,practice_stim,124,poldrack-single-stim,
125,,,,,,1000.0,,,,,,,,stop_signal_with_directed_forgetting,,,,,,0.0-0.1-39.1,-1.0,[],,,-1,1000.0,"<div class = bigbox><div class = centerbox><div class = cue-text><img class = center src=""/static/experiments/stop_signal_with_directed_forgetting/images/BOT.png""></img></font></div></div></div>",,,,253568,0.0,,practice_cue,125,poldrack-single-stim,
126,,,,,,2000.0,,,,,,,,stop_signal_with_directed_forgetting,,,,,,0.0-0.1-40.1,-1.0,none,,,-1,2000.0,"<div class = centerbox><div class = fixation><span style=""color:white"">+</span></div></div>",,,,255570,0.0,,practice_fixation,126,poldrack-single-stim,
127,400.0,500.0,"<div class = bigbox><div class = starbox><img class = center src=""/static/experiments/stop_signal_with_directed_forgetting/images/stopSignal.png""></img></div></div>",go,,1000.0,"['H', 'D']",77.0,1.0,BOT,1.0,6.0,pos,stop_signal_with_directed_forgetting,,,,,,0.0-0.1-41.1,77.0,"[77, 90]",Z,,772,1000.0,"<div class = bigbox><div class = centerbox><div class = cue-text><img class = center src=""/static/experiments/stop_signal_with_directed_forgetting/images/Z.png""></img></font></div></div></div>",,go,,256572,0.0,"['M', 'Z']",practice_trial,127,stop-signal,
128,,,,,,1000.0,,,,,,,,stop_signal_with_directed_forgetting,,,,,,0.0-0.1-42.1,-1.0,"[77, 90]",,,-1,1000.0,,,,,257575,0.0,,practice_ITI_fixation,128,poldrack-single-stim,
129,,,,,,500.0,,,,,,,,stop_signal_with_directed_forgetting,,,,,,0.0-0.1-43.1,-1.0,none,,,-1,500.0,"<div class = fb_box><div class = center-text><font size = 20>Correct!</font></div></div><div class = prompt_box><p class = center-block-text style = ""font-size:16px; line-height:80%%;"">Please respond if the probe was in the memory set.</p><p class = center-block-text style = ""font-size:16px; line-height:80%%;"">In memory set: M Key</p><p class = center-block-text style = ""font-size:16px; line-height:80%%;"">Not in memory set: Z Key</p><p class = center-block-text style = ""font-size:16px; line-height:80%%;"">Do not respond if a star appears around the probe!</p></div>",,,,258078,0.0,,practice-stop-feedback,129,poldrack-single-stim,
130,,,,,,500.0,,,,,,,,stop_signal_with_directed_forgetting,,,,,,0.0-0.1-44.1,-1.0,none,,,-1,500.0,"<div class = centerbox><div class = fixation><span style=""color:white"">+</span></div></div>",,,,258580,0.0,,practice_fixation,130,poldrack-single-stim,
131,,,,,,2000.0,,,,,,,,stop_signal_with_directed_forgetting,,,,,,0.0-0.1-45.1,-1.0,none,,,-1,2000.0,"<div class = bigbox><div class = topLeft><div class = cue-text><img class = center src=""/static/experiments/stop_signal_with_directed_forgetting/images/P.png""></img></div></div><div class = topMiddle><div class = cue-text></div></div><div class = topRight><div class = cue-text><img class = center src=""/static/experiments/stop_signal_with_directed_forgetting/images/Q.png""></img></div></div><div class = bottomLeft><div class = cue-text><img class = center src=""/static/experiments/stop_signal_with_directed_forgetting/images/L.png""></img></div></div><div class = bottomMiddle><div class = cue-text></div></div><div class = bottomRight><div class = cue-text><img class = center src=""/static/experiments/stop_signal_with_directed_forgetting/images/B.png""></img></div></div></div>",,,,260582,0.0,,practice_stim,131,poldrack-single-stim,
132,,,,,,1000.0,,,,,,,,stop_signal_with_directed_forgetting,,,,,,0.0-0.1-46.1,-1.0,[],,,-1,1000.0,"<div class = bigbox><div class = centerbox><div class = cue-text><img class = center src=""/static/experiments/stop_signal_with_directed_forgetting/images/BOT.png""></img></font></div></div></div>",,,,261586,0.0,,practice_cue,132,poldrack-single-stim,
133,,,,,,2000.0,,,,,,,,stop_signal_with_directed_forgetting,,,,,,0.0-0.1-47.1,-1.0,none,,,-1,2000.0,"<div class = centerbox><div class = fixation><span style=""color:white"">+</span></div></div>",,,,263587,0.0,,practice_fixation,133,poldrack-single-stim,
134,400.0,500.0,"<div class = bigbox><div class = starbox><img class = center src=""/static/experiments/stop_signal_with_directed_forgetting/images/stopSignal.png""></img></div></div>",stop,,1000.0,"['L', 'B']",-1.0,1.0,BOT,1.0,7.0,pos,stop_signal_with_directed_forgetting,,,,,,0.0-0.1-48.1,-1.0,"[77, 90]",Q,,-1,1000.0,"<div class = bigbox><div class = centerbox><div class = cue-text><img class = center src=""/static/experiments/stop_signal_with_directed_forgetting/images/Q.png""></img></font></div></div></div>",1.0,stop,,264590,0.0,"['P', 'Q']",practice_trial,134,stop-signal,
135,,,,,,1000.0,,,,,,,,stop_signal_with_directed_forgetting,,,,,,0.0-0.1-49.1,-1.0,"[77, 90]",,,-1,1000.0,,,,,265592,0.0,,practice_ITI_fixation,135,poldrack-single-stim,
136,,,,,,500.0,,,,,,,,stop_signal_with_directed_forgetting,,,,,,0.0-0.1-50.1,-1.0,none,,,-1,500.0,"<div class = fb_box><div class = center-text><font size = 20>Correct!</font></div></div><div class = prompt_box><p class = center-block-text style = ""font-size:16px; line-height:80%%;"">Please respond if the probe was in the memory set.</p><p class = center-block-text style = ""font-size:16px; line-height:80%%;"">In memory set: M Key</p><p class = center-block-text style = ""font-size:16px; line-height:80%%;"">Not in memory set: Z Key</p><p class = center-block-text style = ""font-size:16px; line-height:80%%;"">Do not respond if a star appears around the probe!</p></div>",,,,266095,0.0,,practice-stop-feedback,136,poldrack-single-stim,
137,,,,,,500.0,,,,,,,,stop_signal_with_directed_forgetting,,,,,,0.0-0.1-51.1,-1.0,none,,,-1,500.0,"<div class = centerbox><div class = fixation><span style=""color:white"">+</span></div></div>",,,,266597,0.0,,practice_fixation,137,poldrack-single-stim,
138,,,,,,2000.0,,,,,,,,stop_signal_with_directed_forgetting,,,,,,0.0-0.1-52.1,-1.0,none,,,-1,2000.0,"<div class = bigbox><div class = topLeft><div class = cue-text><img class = center src=""/static/experiments/stop_signal_with_directed_forgetting/images/N.png""></img></div></div><div class = topMiddle><div class = cue-text></div></div><div class = topRight><div class = cue-text><img class = center src=""/static/experiments/stop_signal_with_directed_forgetting/images/K.png""></img></div></div><div class = bottomLeft><div class = cue-text><img class = center src=""/static/experiments/stop_signal_with_directed_forgetting/images/A.png""></img></div></div><div class = bottomMiddle><div class = cue-text></div></div><div class = bottomRight><div class = cue-text><img class = center src=""/static/experiments/stop_signal_with_directed_forgetting/images/C.png""></img></div></div></div>",,,,268602,0.0,,practice_stim,138,poldrack-single-stim,
139,,,,,,1000.0,,,,,,,,stop_signal_with_directed_forgetting,,,,,,0.0-0.1-53.1,-1.0,[],,,-1,1000.0,"<div class = bigbox><div class = centerbox><div class = cue-text><img class = center src=""/static/experiments/stop_signal_with_directed_forgetting/images/TOP.png""></img></font></div></div></div>",,,,269605,0.0,,practice_cue,139,poldrack-single-stim,
140,,,,,,2000.0,,,,,,,,stop_signal_with_directed_forgetting,,,,,,0.0-0.1-54.1,-1.0,none,,,-1,2000.0,"<div class = centerbox><div class = fixation><span style=""color:white"">+</span></div></div>",,,,271608,0.0,,practice_fixation,140,poldrack-single-stim,
141,450.0,500.0,"<div class = bigbox><div class = starbox><img class = center src=""/static/experiments/stop_signal_with_directed_forgetting/images/stopSignal.png""></img></div></div>",stop,,1000.0,"['A', 'C']",-1.0,1.0,TOP,1.0,8.0,con,stop_signal_with_directed_forgetting,,,,,,0.0-0.1-55.1,-1.0,"[77, 90]",E,,-1,1000.0,"<div class = bigbox><div class = centerbox><div class = cue-text><img class = center src=""/static/experiments/stop_signal_with_directed_forgetting/images/E.png""></img></font></div></div></div>",1.0,stop,,272611,0.0,"['N', 'K']",practice_trial,141,stop-signal,
142,,,,,,1000.0,,,,,,,,stop_signal_with_directed_forgetting,,,,,,0.0-0.1-56.1,-1.0,"[77, 90]",,,-1,1000.0,,,,,273613,0.0,,practice_ITI_fixation,142,poldrack-single-stim,
143,,,,,,500.0,,,,,,,,stop_signal_with_directed_forgetting,,,,,,0.0-0.1-57.1,-1.0,none,,,-1,500.0,"<div class = fb_box><div class = center-text><font size = 20>Correct!</font></div></div><div class = prompt_box><p class = center-block-text style = ""font-size:16px; line-height:80%%;"">Please respond if the probe was in the memory set.</p><p class = center-block-text style = ""font-size:16px; line-height:80%%;"">In memory set: M Key</p><p class = center-block-text style = ""font-size:16px; line-height:80%%;"">Not in memory set: Z Key</p><p class = center-block-text style = ""font-size:16px; line-height:80%%;"">Do not respond if a star appears around the probe!</p></div>",,,,274115,0.0,,practice-stop-feedback,143,poldrack-single-stim,
144,,,,,,500.0,,,,,,,,stop_signal_with_directed_forgetting,,,,,,0.0-0.1-58.1,-1.0,none,,,-1,500.0,"<div class = centerbox><div class = fixation><span style=""color:white"">+</span></div></div>",,,,274616,0.0,,practice_fixation,144,poldrack-single-stim,
145,,,,,,2000.0,,,,,,,,stop_signal_with_directed_forgetting,,,,,,0.0-0.1-59.1,-1.0,none,,,-1,2000.0,"<div class = bigbox><div class = topLeft><div class = cue-text><img class = center src=""/static/experiments/stop_signal_with_directed_forgetting/images/F.png""></img></div></div><div class = topMiddle><div class = cue-text></div></div><div class = topRight><div class = cue-text><img class = center src=""/static/experiments/stop_signal_with_directed_forgetting/images/O.png""></img></div></div><div class = bottomLeft><div class = cue-text><img class = center src=""/static/experiments/stop_signal_with_directed_forgetting/images/D.png""></img></div></div><div class = bottomMiddle><div class = cue-text></div></div><div class = bottomRight><div class = cue-text><img class = center src=""/static/experiments/stop_signal_with_directed_forgetting/images/R.png""></img></div></div></div>",,,,276619,0.0,,practice_stim,145,poldrack-single-stim,
146,,,,,,1000.0,,,,,,,,stop_signal_with_directed_forgetting,,,,,,0.0-0.1-60.1,-1.0,[],,,-1,1000.0,"<div class = bigbox><div class = centerbox><div class = cue-text><img class = center src=""/static/experiments/stop_signal_with_directed_forgetting/images/BOT.png""></img></font></div></div></div>",,,,277621,0.0,,practice_cue,146,poldrack-single-stim,
147,,,,,,2000.0,,,,,,,,stop_signal_with_directed_forgetting,,,,,,0.0-0.1-61.1,-1.0,none,,,-1,2000.0,"<div class = centerbox><div class = fixation><span style=""color:white"">+</span></div></div>",,,,279622,0.0,,practice_fixation,147,poldrack-single-stim,
148,500.0,500.0,"<div class = bigbox><div class = starbox><img class = center src=""/static/experiments/stop_signal_with_directed_forgetting/images/stopSignal.png""></img></div></div>",go,,1000.0,"['D', 'R']",77.0,1.0,BOT,1.0,9.0,pos,stop_signal_with_directed_forgetting,,,,,,0.0-0.1-62.1,77.0,"[77, 90]",F,,700,1000.0,"<div class = bigbox><div class = centerbox><div class = cue-text><img class = center src=""/static/experiments/stop_signal_with_directed_forgetting/images/F.png""></img></font></div></div></div>",,go,,280626,0.0,"['F', 'O']",practice_trial,148,stop-signal,
149,,,,,,1000.0,,,,,,,,stop_signal_with_directed_forgetting,,,,,,0.0-0.1-63.1,-1.0,"[77, 90]",,,-1,1000.0,,,,,281628,0.0,,practice_ITI_fixation,149,poldrack-single-stim,
150,,,,,,500.0,,,,,,,,stop_signal_with_directed_forgetting,,,,,,0.0-0.1-64.1,-1.0,none,,,-1,500.0,"<div class = fb_box><div class = center-text><font size = 20>Correct!</font></div></div><div class = prompt_box><p class = center-block-text style = ""font-size:16px; line-height:80%%;"">Please respond if the probe was in the memory set.</p><p class = center-block-text style = ""font-size:16px; line-height:80%%;"">In memory set: M Key</p><p class = center-block-text style = ""font-size:16px; line-height:80%%;"">Not in memory set: Z Key</p><p class = center-block-text style = ""font-size:16px; line-height:80%%;"">Do not respond if a star appears around the probe!</p></div>",,,,282132,0.0,,practice-stop-feedback,150,poldrack-single-stim,
151,,,,,,500.0,,,,,,,,stop_signal_with_directed_forgetting,,,,,,0.0-0.1-65.1,-1.0,none,,,-1,500.0,"<div class = centerbox><div class = fixation><span style=""color:white"">+</span></div></div>",,,,282635,0.0,,practice_fixation,151,poldrack-single-stim,
152,,,,,,2000.0,,,,,,,,stop_signal_with_directed_forgetting,,,,,,0.0-0.1-66.1,-1.0,none,,,-1,2000.0,"<div class = bigbox><div class = topLeft><div class = cue-text><img class = center src=""/static/experiments/stop_signal_with_directed_forgetting/images/B.png""></img></div></div><div class = topMiddle><div class = cue-text></div></div><div class = topRight><div class = cue-text><img class = center src=""/static/experiments/stop_signal_with_directed_forgetting/images/U.png""></img></div></div><div class = bottomLeft><div class = cue-text><img class = center src=""/static/experiments/stop_signal_with_directed_forgetting/images/W.png""></img></div></div><div class = bottomMiddle><div class = cue-text></div></div><div class = bottomRight><div class = cue-text><img class = center src=""/static/experiments/stop_signal_with_directed_forgetting/images/M.png""></img></div></div></div>",,,,284637,0.0,,practice_stim,152,poldrack-single-stim,
153,,,,,,1000.0,,,,,,,,stop_signal_with_directed_forgetting,,,,,,0.0-0.1-67.1,-1.0,[],,,-1,1000.0,"<div class = bigbox><div class = centerbox><div class = cue-text><img class = center src=""/static/experiments/stop_signal_with_directed_forgetting/images/TOP.png""></img></font></div></div></div>",,,,285639,0.0,,practice_cue,153,poldrack-single-stim,
154,,,,,,2000.0,,,,,,,,stop_signal_with_directed_forgetting,,,,,,0.0-0.1-68.1,-1.0,none,,,-1,2000.0,"<div class = centerbox><div class = fixation><span style=""color:white"">+</span></div></div>",,,,287640,0.0,,practice_fixation,154,poldrack-single-stim,
155,500.0,500.0,"<div class = bigbox><div class = starbox><img class = center src=""/static/experiments/stop_signal_with_directed_forgetting/images/stopSignal.png""></img></div></div>",stop,,1000.0,"['W', 'M']",-1.0,0.0,TOP,1.0,10.0,pos,stop_signal_with_directed_forgetting,,,,,,0.0-0.1-69.1,77.0,"[77, 90]",W,,592,1000.0,"<div class = bigbox><div class = centerbox><div class = cue-text><img class = center src=""/static/experiments/stop_signal_with_directed_forgetting/images/W.png""></img></font></div></div></div>",0.0,stop,,288643,0.0,"['B', 'U']",practice_trial,155,stop-signal,
156,,,,,,1000.0,,,,,,,,stop_signal_with_directed_forgetting,,,,,,0.0-0.1-70.1,-1.0,"[77, 90]",,,-1,1000.0,,,,,289644,0.0,,practice_ITI_fixation,156,poldrack-single-stim,
157,,,,,,500.0,,,,,,,,stop_signal_with_directed_forgetting,,,,,,0.0-0.1-71.1,-1.0,none,,,-1,500.0,"<div class = fb_box><div class = center-text><font size = 20>There was a star.</font></div></div><div class = prompt_box><p class = center-block-text style = ""font-size:16px; line-height:80%%;"">Please respond if the probe was in the memory set.</p><p class = center-block-text style = ""font-size:16px; line-height:80%%;"">In memory set: M Key</p><p class = center-block-text style = ""font-size:16px; line-height:80%%;"">Not in memory set: Z Key</p><p class = center-block-text style = ""font-size:16px; line-height:80%%;"">Do not respond if a star appears around the probe!</p></div>",,,,290146,0.0,,practice-stop-feedback,157,poldrack-single-stim,
158,,,,,,500.0,,,,,,,,stop_signal_with_directed_forgetting,,,,,,0.0-0.1-72.1,-1.0,none,,,-1,500.0,"<div class = centerbox><div class = fixation><span style=""color:white"">+</span></div></div>",,,,290648,0.0,,practice_fixation,158,poldrack-single-stim,
159,,,,,,2000.0,,,,,,,,stop_signal_with_directed_forgetting,,,,,,0.0-0.1-73.1,-1.0,none,,,-1,2000.0,"<div class = bigbox><div class = topLeft><div class = cue-text><img class = center src=""/static/experiments/stop_signal_with_directed_forgetting/images/Q.png""></img></div></div><div class = topMiddle><div class = cue-text></div></div><div class = topRight><div class = cue-text><img class = center src=""/static/experiments/stop_signal_with_directed_forgetting/images/A.png""></img></div></div><div class = bottomLeft><div class = cue-text><img class = center src=""/static/experiments/stop_signal_with_directed_forgetting/images/T.png""></img></div></div><div class = bottomMiddle><div class = cue-text></div></div><div class = bottomRight><div class = cue-text><img class = center src=""/static/experiments/stop_signal_with_directed_forgetting/images/P.png""></img></div></div></div>",,,,292651,0.0,,practice_stim,159,poldrack-single-stim,
160,,,,,,1000.0,,,,,,,,stop_signal_with_directed_forgetting,,,,,,0.0-0.1-74.1,-1.0,[],,,-1,1000.0,"<div class = bigbox><div class = centerbox><div class = cue-text><img class = center src=""/static/experiments/stop_signal_with_directed_forgetting/images/BOT.png""></img></font></div></div></div>",,,,293653,0.0,,practice_cue,160,poldrack-single-stim,
161,,,,,,2000.0,,,,,,,,stop_signal_with_directed_forgetting,,,,,,0.0-0.1-75.1,-1.0,none,,,-1,2000.0,"<div class = centerbox><div class = fixation><span style=""color:white"">+</span></div></div>",,,,295655,0.0,,practice_fixation,161,poldrack-single-stim,
162,450.0,500.0,"<div class = bigbox><div class = starbox><img class = center src=""/static/experiments/stop_signal_with_directed_forgetting/images/stopSignal.png""></img></div></div>",go,,1000.0,"['T', 'P']",77.0,1.0,BOT,1.0,11.0,pos,stop_signal_with_directed_forgetting,,,,,,0.0-0.1-76.1,77.0,"[77, 90]",A,,674,1000.0,"<div class = bigbox><div class = centerbox><div class = cue-text><img class = center src=""/static/experiments/stop_signal_with_directed_forgetting/images/A.png""></img></font></div></div></div>",,go,,296657,0.0,"['Q', 'A']",practice_trial,162,stop-signal,
163,,,,,,1000.0,,,,,,,,stop_signal_with_directed_forgetting,,,,,,0.0-0.1-77.1,-1.0,"[77, 90]",,,-1,1000.0,,,,,297660,0.0,,practice_ITI_fixation,163,poldrack-single-stim,
164,,,,,,500.0,,,,,,,,stop_signal_with_directed_forgetting,,,,,,0.0-0.1-78.1,-1.0,none,,,-1,500.0,"<div class = fb_box><div class = center-text><font size = 20>Correct!</font></div></div><div class = prompt_box><p class = center-block-text style = ""font-size:16px; line-height:80%%;"">Please respond if the probe was in the memory set.</p><p class = center-block-text style = ""font-size:16px; line-height:80%%;"">In memory set: M Key</p><p class = center-block-text style = ""font-size:16px; line-height:80%%;"">Not in memory set: Z Key</p><p class = center-block-text style = ""font-size:16px; line-height:80%%;"">Do not respond if a star appears around the probe!</p></div>",,,,298163,0.0,,practice-stop-feedback,164,poldrack-single-stim,
165,,,,,,500.0,,,,,,,,stop_signal_with_directed_forgetting,,,,,,0.0-0.1-79.1,-1.0,none,,,-1,500.0,"<div class = centerbox><div class = fixation><span style=""color:white"">+</span></div></div>",,,,298666,0.0,,practice_fixation,165,poldrack-single-stim,
166,,,,,,2000.0,,,,,,,,stop_signal_with_directed_forgetting,,,,,,0.0-0.1-80.1,-1.0,none,,,-1,2000.0,"<div class = bigbox><div class = topLeft><div class = cue-text><img class = center src=""/static/experiments/stop_signal_with_directed_forgetting/images/L.png""></img></div></div><div class = topMiddle><div class = cue-text></div></div><div class = topRight><div class = cue-text><img class = center src=""/static/experiments/stop_signal_with_directed_forgetting/images/J.png""></img></div></div><div class = bottomLeft><div class = cue-text><img class = center src=""/static/experiments/stop_signal_with_directed_forgetting/images/K.png""></img></div></div><div class = bottomMiddle><div class = cue-text></div></div><div class = bottomRight><div class = cue-text><img class = center src=""/static/experiments/stop_signal_with_directed_forgetting/images/N.png""></img></div></div></div>",,,,300669,0.0,,practice_stim,166,poldrack-single-stim,
167,,,,,,1000.0,,,,,,,,stop_signal_with_directed_forgetting,,,,,,0.0-0.1-81.1,-1.0,[],,,-1,1000.0,"<div class = bigbox><div class = centerbox><div class = cue-text><img class = center src=""/static/experiments/stop_signal_with_directed_forgetting/images/TOP.png""></img></font></div></div></div>",,,,301670,0.0,,practice_cue,167,poldrack-single-stim,
168,,,,,,2000.0,,,,,,,,stop_signal_with_directed_forgetting,,,,,,0.0-0.1-82.1,-1.0,none,,,-1,2000.0,"<div class = centerbox><div class = fixation><span style=""color:white"">+</span></div></div>",,,,303673,0.0,,practice_fixation,168,poldrack-single-stim,
169,450.0,500.0,"<div class = bigbox><div class = starbox><img class = center src=""/static/experiments/stop_signal_with_directed_forgetting/images/stopSignal.png""></img></div></div>",go,,1000.0,"['K', 'N']",77.0,1.0,TOP,1.0,12.0,pos,stop_signal_with_directed_forgetting,,,,,,0.0-0.1-83.1,77.0,"[77, 90]",K,,663,1000.0,"<div class = bigbox><div class = centerbox><div class = cue-text><img class = center src=""/static/experiments/stop_signal_with_directed_forgetting/images/K.png""></img></font></div></div></div>",,go,,304675,0.0,"['L', 'J']",practice_trial,169,stop-signal,
170,,,,,,1000.0,,,,,,,,stop_signal_with_directed_forgetting,,,,,,0.0-0.1-84.1,-1.0,"[77, 90]",,,-1,1000.0,,,,,305676,0.0,,practice_ITI_fixation,170,poldrack-single-stim,
171,,,,,,500.0,,,,,,,,stop_signal_with_directed_forgetting,,,,,,0.0-0.1-85.1,-1.0,none,,,-1,500.0,"<div class = fb_box><div class = center-text><font size = 20>Correct!</font></div></div><div class = prompt_box><p class = center-block-text style = ""font-size:16px; line-height:80%%;"">Please respond if the probe was in the memory set.</p><p class = center-block-text style = ""font-size:16px; line-height:80%%;"">In memory set: M Key</p><p class = center-block-text style = ""font-size:16px; line-height:80%%;"">Not in memory set: Z Key</p><p class = center-block-text style = ""font-size:16px; line-height:80%%;"">Do not respond if a star appears around the probe!</p></div>",,,,306179,0.0,,practice-stop-feedback,171,poldrack-single-stim,
172,,,,,,3202.0,,,,,,,,stop_signal_with_directed_forgetting,,,,,,0.0-1.0,13.0,[13],,,3202,3202.0,<div class = bigbox><div class = picture_box><p class = block-text><br>Please take this time to read your feedback and to take a short break! Press enter to continue</p><p class = block-text>Done with this practice. Press Enter to continue.</p></div></div>,,,,309385,0.0,,feedback_block,172,poldrack-single-stim,
173,,,,,,4150.0,,,,,,,,stop_signal_with_directed_forgetting,,,,,,0.0-2.0,13.0,,,,4150,,,,,"<div class = centerbox><p class = block-text>We will now start the test portion</p><p class = block-text>In this experiment you will be presented with 4 letters on each trial. You must memorize all 4 letters.</p> <p class = block-text>There will be a short delay, then you will see a cue, either <i>TOP</i> or <i>BOT</i>. This will instruct you to <i>FORGET</i> the 2 letters located at either the top or bottom (respectively) of the screen. The 2 remaining letters that you must remember are called your <i>MEMORY SET</i>. Please forget the letters not in the memory set.</p><p class = block-text>So for example, if you get the cue TOP, please forget the top 2 letters and remember the bottom 2 letters.</p><p class = block-text>After a short delay, you will be presented with a probe.  Please indicate whether this probe was in your memory set.</p><p class = block-text>Press the <i>M Key </i>if the probe was in the memory set, and the <i>Z Key  </i>if not.</p><p class = block-text>On some trials, you will see a star appear with or shortly after the probe. Do not respond if you see a star.  Do not slow down your response to the probe in order to wait for the star.</p><p class = block-text>You will no longer receive the rule prompt, so remember the instructions before you continue. Press Enter to begin.</p></div>",313536,1000.0,,instruction,173,poldrack-text,
174,,,,,,1697.0,,,,,,,,stop_signal_with_directed_forgetting,,,,,,0.0-3.0-0.0,13.0,[13],,,1697,1697.0,<div class = bigbox><div class = picture_box><p class = block-text>We will now start the test portion. Press enter to begin.</p></div></div>,,,,316235,0.0,,feedback_block,174,poldrack-single-stim,
175,,,,,,500.0,,,,,,,,stop_signal_with_directed_forgetting,,,,,,0.0-3.0-1.0,-1.0,none,,,-1,500.0,"<div class = centerbox><div class = fixation><span style=""color:white"">+</span></div></div>",,,,316737,0.0,,fixation,175,poldrack-single-stim,
176,,,,,,2000.0,,,,,,,,stop_signal_with_directed_forgetting,,,,,,0.0-3.0-2.0,-1.0,none,,,-1,2000.0,"<div class = bigbox><div class = topLeft><div class = cue-text><img class = center src=""/static/experiments/stop_signal_with_directed_forgetting/images/T.png""></img></div></div><div class = topMiddle><div class = cue-text></div></div><div class = topRight><div class = cue-text><img class = center src=""/static/experiments/stop_signal_with_directed_forgetting/images/I.png""></img></div></div><div class = bottomLeft><div class = cue-text><img class = center src=""/static/experiments/stop_signal_with_directed_forgetting/images/G.png""></img></div></div><div class = bottomMiddle><div class = cue-text></div></div><div class = bottomRight><div class = cue-text><img class = center src=""/static/experiments/stop_signal_with_directed_forgetting/images/W.png""></img></div></div></div>",,,,318739,0.0,,stim,176,poldrack-single-stim,
177,,,,,,1000.0,,,,,,,,stop_signal_with_directed_forgetting,,,,,,0.0-3.0-3.0,-1.0,[],,,-1,1000.0,"<div class = bigbox><div class = centerbox><div class = cue-text><img class = center src=""/static/experiments/stop_signal_with_directed_forgetting/images/BOT.png""></img></font></div></div></div>",,,,319742,0.0,,cue,177,poldrack-single-stim,
178,,,,,,2000.0,,,,,,,,stop_signal_with_directed_forgetting,,,,,,0.0-3.0-4.0,-1.0,none,,,-1,2000.0,"<div class = centerbox><div class = fixation><span style=""color:white"">+</span></div></div>",,,,321744,0.0,,fixation,178,poldrack-single-stim,
179,450.0,500.0,"<div class = bigbox><div class = starbox><img class = center src=""/static/experiments/stop_signal_with_directed_forgetting/images/stopSignal.png""></img></div></div>",go,,1000.0,"['G', 'W']",90.0,1.0,BOT,0.0,1.0,neg,stop_signal_with_directed_forgetting,,,,,,0.0-3.0-5.0,90.0,"[77, 90]",W,,647,1000.0,"<div class = bigbox><div class = centerbox><div class = cue-text><img class = center src=""/static/experiments/stop_signal_with_directed_forgetting/images/W.png""></img></font></div></div></div>",,go,,322747,0.0,"['T', 'I']",test_trial,179,stop-signal,
180,,,,,,1000.0,,,,,,,,stop_signal_with_directed_forgetting,,,,,,0.0-3.0-6.0,-1.0,"[77, 90]",,,-1,1000.0,,,,,323749,0.0,,ITI_fixation,180,poldrack-single-stim,
181,,,,,,500.0,,,,,,,,stop_signal_with_directed_forgetting,,,,,,0.0-3.0-7.0,-1.0,none,,,-1,500.0,"<div class = centerbox><div class = fixation><span style=""color:white"">+</span></div></div>",,,,324250,0.0,,fixation,181,poldrack-single-stim,
182,,,,,,2000.0,,,,,,,,stop_signal_with_directed_forgetting,,,,,,0.0-3.0-8.0,-1.0,none,,,-1,2000.0,"<div class = bigbox><div class = topLeft><div class = cue-text><img class = center src=""/static/experiments/stop_signal_with_directed_forgetting/images/S.png""></img></div></div><div class = topMiddle><div class = cue-text></div></div><div class = topRight><div class = cue-text><img class = center src=""/static/experiments/stop_signal_with_directed_forgetting/images/E.png""></img></div></div><div class = bottomLeft><div class = cue-text><img class = center src=""/static/experiments/stop_signal_with_directed_forgetting/images/D.png""></img></div></div><div class = bottomMiddle><div class = cue-text></div></div><div class = bottomRight><div class = cue-text><img class = center src=""/static/experiments/stop_signal_with_directed_forgetting/images/K.png""></img></div></div></div>",,,,326254,0.0,,stim,182,poldrack-single-stim,
183,,,,,,1000.0,,,,,,,,stop_signal_with_directed_forgetting,,,,,,0.0-3.0-9.0,-1.0,[],,,-1,1000.0,"<div class = bigbox><div class = centerbox><div class = cue-text><img class = center src=""/static/experiments/stop_signal_with_directed_forgetting/images/TOP.png""></img></font></div></div></div>",,,,327256,0.0,,cue,183,poldrack-single-stim,
184,,,,,,2000.0,,,,,,,,stop_signal_with_directed_forgetting,,,,,,0.0-3.0-10.0,-1.0,none,,,-1,2000.0,"<div class = centerbox><div class = fixation><span style=""color:white"">+</span></div></div>",,,,329257,0.0,,fixation,184,poldrack-single-stim,
185,450.0,500.0,"<div class = bigbox><div class = starbox><img class = center src=""/static/experiments/stop_signal_with_directed_forgetting/images/stopSignal.png""></img></div></div>",go,,1000.0,"['D', 'K']",90.0,1.0,TOP,0.0,2.0,neg,stop_signal_with_directed_forgetting,,,,,,0.0-3.0-11.0,90.0,"[77, 90]",S,,735,1000.0,"<div class = bigbox><div class = centerbox><div class = cue-text><img class = center src=""/static/experiments/stop_signal_with_directed_forgetting/images/S.png""></img></font></div></div></div>",,go,,330261,0.0,"['S', 'E']",test_trial,185,stop-signal,
186,,,,,,1000.0,,,,,,,,stop_signal_with_directed_forgetting,,,,,,0.0-3.0-12.0,-1.0,"[77, 90]",,,-1,1000.0,,,,,331264,0.0,,ITI_fixation,186,poldrack-single-stim,
187,,,,,,500.0,,,,,,,,stop_signal_with_directed_forgetting,,,,,,0.0-3.0-13.0,-1.0,none,,,-1,500.0,"<div class = centerbox><div class = fixation><span style=""color:white"">+</span></div></div>",,,,331767,0.0,,fixation,187,poldrack-single-stim,
188,,,,,,2000.0,,,,,,,,stop_signal_with_directed_forgetting,,,,,,0.0-3.0-14.0,-1.0,none,,,-1,2000.0,"<div class = bigbox><div class = topLeft><div class = cue-text><img class = center src=""/static/experiments/stop_signal_with_directed_forgetting/images/M.png""></img></div></div><div class = topMiddle><div class = cue-text></div></div><div class = topRight><div class = cue-text><img class = center src=""/static/experiments/stop_signal_with_directed_forgetting/images/B.png""></img></div></div><div class = bottomLeft><div class = cue-text><img class = center src=""/static/experiments/stop_signal_with_directed_forgetting/images/C.png""></img></div></div><div class = bottomMiddle><div class = cue-text></div></div><div class = bottomRight><div class = cue-text><img class = center src=""/static/experiments/stop_signal_with_directed_forgetting/images/U.png""></img></div></div></div>",,,,333769,0.0,,stim,188,poldrack-single-stim,
189,,,,,,1000.0,,,,,,,,stop_signal_with_directed_forgetting,,,,,,0.0-3.0-15.0,-1.0,[],,,-1,1000.0,"<div class = bigbox><div class = centerbox><div class = cue-text><img class = center src=""/static/experiments/stop_signal_with_directed_forgetting/images/TOP.png""></img></font></div></div></div>",,,,334772,0.0,,cue,189,poldrack-single-stim,
190,,,,,,2000.0,,,,,,,,stop_signal_with_directed_forgetting,,,,,,0.0-3.0-16.0,-1.0,none,,,-1,2000.0,"<div class = centerbox><div class = fixation><span style=""color:white"">+</span></div></div>",,,,336774,0.0,,fixation,190,poldrack-single-stim,
191,450.0,500.0,"<div class = bigbox><div class = starbox><img class = center src=""/static/experiments/stop_signal_with_directed_forgetting/images/stopSignal.png""></img></div></div>",go,,1000.0,"['C', 'U']",77.0,1.0,TOP,0.0,3.0,pos,stop_signal_with_directed_forgetting,,,,,,0.0-3.0-17.0,77.0,"[77, 90]",U,,623,1000.0,"<div class = bigbox><div class = centerbox><div class = cue-text><img class = center src=""/static/experiments/stop_signal_with_directed_forgetting/images/U.png""></img></font></div></div></div>",,go,,337776,0.0,"['M', 'B']",test_trial,191,stop-signal,
192,,,,,,1000.0,,,,,,,,stop_signal_with_directed_forgetting,,,,,,0.0-3.0-18.0,-1.0,"[77, 90]",,,-1,1000.0,,,,,338777,0.0,,ITI_fixation,192,poldrack-single-stim,
193,,,,,,500.0,,,,,,,,stop_signal_with_directed_forgetting,,,,,,0.0-3.0-19.0,-1.0,none,,,-1,500.0,"<div class = centerbox><div class = fixation><span style=""color:white"">+</span></div></div>",,,,339278,0.0,,fixation,193,poldrack-single-stim,
194,,,,,,2000.0,,,,,,,,stop_signal_with_directed_forgetting,,,,,,0.0-3.0-20.0,-1.0,none,,,-1,2000.0,"<div class = bigbox><div class = topLeft><div class = cue-text><img class = center src=""/static/experiments/stop_signal_with_directed_forgetting/images/Y.png""></img></div></div><div class = topMiddle><div class = cue-text></div></div><div class = topRight><div class = cue-text><img class = center src=""/static/experiments/stop_signal_with_directed_forgetting/images/L.png""></img></div></div><div class = bottomLeft><div class = cue-text><img class = center src=""/static/experiments/stop_signal_with_directed_forgetting/images/H.png""></img></div></div><div class = bottomMiddle><div class = cue-text></div></div><div class = bottomRight><div class = cue-text><img class = center src=""/static/experiments/stop_signal_with_directed_forgetting/images/Q.png""></img></div></div></div>",,,,341281,0.0,,stim,194,poldrack-single-stim,
195,,,,,,1000.0,,,,,,,,stop_signal_with_directed_forgetting,,,,,,0.0-3.0-21.0,-1.0,[],,,-1,1000.0,"<div class = bigbox><div class = centerbox><div class = cue-text><img class = center src=""/static/experiments/stop_signal_with_directed_forgetting/images/TOP.png""></img></font></div></div></div>",,,,342282,0.0,,cue,195,poldrack-single-stim,
196,,,,,,2000.0,,,,,,,,stop_signal_with_directed_forgetting,,,,,,0.0-3.0-22.0,-1.0,none,,,-1,2000.0,"<div class = centerbox><div class = fixation><span style=""color:white"">+</span></div></div>",,,,344284,0.0,,fixation,196,poldrack-single-stim,
197,450.0,500.0,"<div class = bigbox><div class = starbox><img class = center src=""/static/experiments/stop_signal_with_directed_forgetting/images/stopSignal.png""></img></div></div>",go,,1000.0,"['H', 'Q']",90.0,1.0,TOP,0.0,4.0,con,stop_signal_with_directed_forgetting,,,,,,0.0-3.0-23.0,90.0,"[77, 90]",U,,869,1000.0,"<div class = bigbox><div class = centerbox><div class = cue-text><img class = center src=""/static/experiments/stop_signal_with_directed_forgetting/images/U.png""></img></font></div></div></div>",,go,,345285,0.0,"['Y', 'L']",test_trial,197,stop-signal,
198,,,,,,1000.0,,,,,,,,stop_signal_with_directed_forgetting,,,,,,0.0-3.0-24.0,-1.0,"[77, 90]",,,-1,1000.0,,,,,346287,0.0,,ITI_fixation,198,poldrack-single-stim,
199,,,,,,500.0,,,,,,,,stop_signal_with_directed_forgetting,,,,,,0.0-3.0-25.0,-1.0,none,,,-1,500.0,"<div class = centerbox><div class = fixation><span style=""color:white"">+</span></div></div>",,,,346789,0.0,,fixation,199,poldrack-single-stim,
200,,,,,,2000.0,,,,,,,,stop_signal_with_directed_forgetting,,,,,,0.0-3.0-26.0,-1.0,none,,,-1,2000.0,"<div class = bigbox><div class = topLeft><div class = cue-text><img class = center src=""/static/experiments/stop_signal_with_directed_forgetting/images/V.png""></img></div></div><div class = topMiddle><div class = cue-text></div></div><div class = topRight><div class = cue-text><img class = center src=""/static/experiments/stop_signal_with_directed_forgetting/images/P.png""></img></div></div><div class = bottomLeft><div class = cue-text><img class = center src=""/static/experiments/stop_signal_with_directed_forgetting/images/O.png""></img></div></div><div class = bottomMiddle><div class = cue-text></div></div><div class = bottomRight><div class = cue-text><img class = center src=""/static/experiments/stop_signal_with_directed_forgetting/images/S.png""></img></div></div></div>",,,,348790,0.0,,stim,200,poldrack-single-stim,
201,,,,,,1000.0,,,,,,,,stop_signal_with_directed_forgetting,,,,,,0.0-3.0-27.0,-1.0,[],,,-1,1000.0,"<div class = bigbox><div class = centerbox><div class = cue-text><img class = center src=""/static/experiments/stop_signal_with_directed_forgetting/images/TOP.png""></img></font></div></div></div>",,,,349793,0.0,,cue,201,poldrack-single-stim,
202,,,,,,2000.0,,,,,,,,stop_signal_with_directed_forgetting,,,,,,0.0-3.0-28.0,-1.0,none,,,-1,2000.0,"<div class = centerbox><div class = fixation><span style=""color:white"">+</span></div></div>",,,,351795,0.0,,fixation,202,poldrack-single-stim,
203,450.0,500.0,"<div class = bigbox><div class = starbox><img class = center src=""/static/experiments/stop_signal_with_directed_forgetting/images/stopSignal.png""></img></div></div>",go,,1000.0,"['O', 'S']",77.0,1.0,TOP,0.0,5.0,pos,stop_signal_with_directed_forgetting,,,,,,0.0-3.0-29.0,77.0,"[77, 90]",O,,650,1000.0,"<div class = bigbox><div class = centerbox><div class = cue-text><img class = center src=""/static/experiments/stop_signal_with_directed_forgetting/images/O.png""></img></font></div></div></div>",,go,,352799,0.0,"['V', 'P']",test_trial,203,stop-signal,
204,,,,,,1000.0,,,,,,,,stop_signal_with_directed_forgetting,,,,,,0.0-3.0-30.0,-1.0,"[77, 90]",,,-1,1000.0,,,,,353800,0.0,,ITI_fixation,204,poldrack-single-stim,
205,,,,,,500.0,,,,,,,,stop_signal_with_directed_forgetting,,,,,,0.0-3.0-31.0,-1.0,none,,,-1,500.0,"<div class = centerbox><div class = fixation><span style=""color:white"">+</span></div></div>",,,,354303,0.0,,fixation,205,poldrack-single-stim,
206,,,,,,2000.0,,,,,,,,stop_signal_with_directed_forgetting,,,,,,0.0-3.0-32.0,-1.0,none,,,-1,2000.0,"<div class = bigbox><div class = topLeft><div class = cue-text><img class = center src=""/static/experiments/stop_signal_with_directed_forgetting/images/K.png""></img></div></div><div class = topMiddle><div class = cue-text></div></div><div class = topRight><div class = cue-text><img class = center src=""/static/experiments/stop_signal_with_directed_forgetting/images/Z.png""></img></div></div><div class = bottomLeft><div class = cue-text><img class = center src=""/static/experiments/stop_signal_with_directed_forgetting/images/D.png""></img></div></div><div class = bottomMiddle><div class = cue-text></div></div><div class = bottomRight><div class = cue-text><img class = center src=""/static/experiments/stop_signal_with_directed_forgetting/images/B.png""></img></div></div></div>",,,,356306,0.0,,stim,206,poldrack-single-stim,
207,,,,,,1000.0,,,,,,,,stop_signal_with_directed_forgetting,,,,,,0.0-3.0-33.0,-1.0,[],,,-1,1000.0,"<div class = bigbox><div class = centerbox><div class = cue-text><img class = center src=""/static/experiments/stop_signal_with_directed_forgetting/images/TOP.png""></img></font></div></div></div>",,,,357309,0.0,,cue,207,poldrack-single-stim,
208,,,,,,2000.0,,,,,,,,stop_signal_with_directed_forgetting,,,,,,0.0-3.0-34.0,-1.0,none,,,-1,2000.0,"<div class = centerbox><div class = fixation><span style=""color:white"">+</span></div></div>",,,,359312,0.0,,fixation,208,poldrack-single-stim,
209,450.0,500.0,"<div class = bigbox><div class = starbox><img class = center src=""/static/experiments/stop_signal_with_directed_forgetting/images/stopSignal.png""></img></div></div>",stop,,1000.0,"['D', 'B']",-1.0,0.0,TOP,0.0,6.0,neg,stop_signal_with_directed_forgetting,,,,,,0.0-3.0-35.0,90.0,"[77, 90]",Z,,666,1000.0,"<div class = bigbox><div class = centerbox><div class = cue-text><img class = center src=""/static/experiments/stop_signal_with_directed_forgetting/images/Z.png""></img></font></div></div></div>",0.0,stop,,360315,0.0,"['K', 'Z']",test_trial,209,stop-signal,
210,,,,,,1000.0,,,,,,,,stop_signal_with_directed_forgetting,,,,,,0.0-3.0-36.0,-1.0,"[77, 90]",,,-1,1000.0,,,,,361317,0.0,,ITI_fixation,210,poldrack-single-stim,
211,,,,,,500.0,,,,,,,,stop_signal_with_directed_forgetting,,,,,,0.0-3.0-37.0,-1.0,none,,,-1,500.0,"<div class = centerbox><div class = fixation><span style=""color:white"">+</span></div></div>",,,,361819,0.0,,fixation,211,poldrack-single-stim,
212,,,,,,2000.0,,,,,,,,stop_signal_with_directed_forgetting,,,,,,0.0-3.0-38.0,-1.0,none,,,-1,2000.0,"<div class = bigbox><div class = topLeft><div class = cue-text><img class = center src=""/static/experiments/stop_signal_with_directed_forgetting/images/Q.png""></img></div></div><div class = topMiddle><div class = cue-text></div></div><div class = topRight><div class = cue-text><img class = center src=""/static/experiments/stop_signal_with_directed_forgetting/images/N.png""></img></div></div><div class = bottomLeft><div class = cue-text><img class = center src=""/static/experiments/stop_signal_with_directed_forgetting/images/H.png""></img></div></div><div class = bottomMiddle><div class = cue-text></div></div><div class = bottomRight><div class = cue-text><img class = center src=""/static/experiments/stop_signal_with_directed_forgetting/images/M.png""></img></div></div></div>",,,,363823,0.0,,stim,212,poldrack-single-stim,
213,,,,,,1000.0,,,,,,,,stop_signal_with_directed_forgetting,,,,,,0.0-3.0-39.0,-1.0,[],,,-1,1000.0,"<div class = bigbox><div class = centerbox><div class = cue-text><img class = center src=""/static/experiments/stop_signal_with_directed_forgetting/images/BOT.png""></img></font></div></div></div>",,,,364825,0.0,,cue,213,poldrack-single-stim,
214,,,,,,2000.0,,,,,,,,stop_signal_with_directed_forgetting,,,,,,0.0-3.0-40.0,-1.0,none,,,-1,2000.0,"<div class = centerbox><div class = fixation><span style=""color:white"">+</span></div></div>",,,,366827,0.0,,fixation,214,poldrack-single-stim,
