,SS_delay,SS_duration,SS_stimulus,SS_trial_type,att_check_percent,block_duration,bottom_stim,correct_response,correct_trial,cue,current_block,current_trial,directed_forgetting_condition,exp_id,final_accuracy,final_avg_rt,final_credit_var,final_missed_percent,final_responses_ok,internal_node_id,key_press,possible_responses,probe,responses,rt,stim_duration,stimulus,stop_acc,stop_signal_condition,text,time_elapsed,timing_post_trial,top_stim,trial_id,trial_index,trial_type,view_history
0,,,,,,180000.0,,,,,,,,stop_signal_with_directed_forgetting,,,,,,0.0-0.0-0.0,-1.0,[13],,,-1,180000.0,<div class = bigbox><div class = picture_box><p class = block-text>Welcome to the experiment. This experiment will take about 30 minutes. Press <i>enter</i> to begin.</p></div></div>,,,,180235,0.0,,feedback_block,0,poldrack-single-stim,
1,,,,,,,,,,,,,,stop_signal_with_directed_forgetting,,,,,,0.0-0.0-1.0,,,,,143763748,,,,,,143943985,,,instruction,1,poldrack-instructions,"[{""page_index"":0,""viewing_time"":143750984},{""page_index"":1,""viewing_time"":5495},{""page_index"":2,""viewing_time"":3669},{""page_index"":3,""viewing_time"":3599}]"
2,,,,,,500.0,,,,,,,,stop_signal_with_directed_forgetting,,,,,,0.0-0.0-2.0,-1.0,none,,,-1,500.0,"<div class = centerbox><div class = fixation><span style=""color:white"">+</span></div></div>",,,,143945491,0.0,,practice_fixation,2,poldrack-single-stim,
3,,,,,,2000.0,,,,,,,,stop_signal_with_directed_forgetting,,,,,,0.0-0.0-3.0,-1.0,none,,,-1,2000.0,"<div class = bigbox><div class = topLeft><div class = cue-text><img class = center src=""/static/experiments/stop_signal_with_directed_forgetting/images/V.png""></img></div></div><div class = topMiddle><div class = cue-text></div></div><div class = topRight><div class = cue-text><img class = center src=""/static/experiments/stop_signal_with_directed_forgetting/images/K.png""></img></div></div><div class = bottomLeft><div class = cue-text><img class = center src=""/static/experiments/stop_signal_with_directed_forgetting/images/D.png""></img></div></div><div class = bottomMiddle><div class = cue-text></div></div><div class = bottomRight><div class = cue-text><img class = center src=""/static/experiments/stop_signal_with_directed_forgetting/images/P.png""></img></div></div></div>",,,,143947494,0.0,,practice_stim,3,poldrack-single-stim,
4,,,,,,1000.0,,,,,,,,stop_signal_with_directed_forgetting,,,,,,0.0-0.0-4.0,-1.0,[],,,-1,1000.0,"<div class = bigbox><div class = centerbox><div class = cue-text><img class = center src=""/static/experiments/stop_signal_with_directed_forgetting/images/BOT.png""></img></font></div></div></div>",,,,143948496,0.0,,practice_cue,4,poldrack-single-stim,
5,,,,,,2000.0,,,,,,,,stop_signal_with_directed_forgetting,,,,,,0.0-0.0-5.0,-1.0,none,,,-1,2000.0,"<div class = centerbox><div class = fixation><span style=""color:white"">+</span></div></div>",,,,143950498,0.0,,practice_fixation,5,poldrack-single-stim,
6,350.0,500.0,"<div class = bigbox><div class = starbox><img class = center src=""/static/experiments/stop_signal_with_directed_forgetting/images/stopSignal.png""></img></div></div>",go,,1000.0,"['D', 'P']",90.0,1.0,BOT,0.0,1.0,con,stop_signal_with_directed_forgetting,,,,,,0.0-0.0-6.0,90.0,"[77, 90]",U,,651,1000.0,"<div class = bigbox><div class = centerbox><div class = cue-text><img class = center src=""/static/experiments/stop_signal_with_directed_forgetting/images/U.png""></img></font></div></div></div>",,go,,143951501,0.0,"['V', 'K']",practice_trial,6,stop-signal,
7,,,,,,1000.0,,,,,,,,stop_signal_with_directed_forgetting,,,,,,0.0-0.0-7.0,-1.0,"[77, 90]",,,-1,1000.0,,,,,143952504,0.0,,practice_ITI_fixation,7,poldrack-single-stim,
8,,,,,,500.0,,,,,,,,stop_signal_with_directed_forgetting,,,,,,0.0-0.0-8.0,-1.0,none,,,-1,500.0,"<div class = fb_box><div class = center-text><font size = 20>Correct!</font></div></div><div class = prompt_box><p class = center-block-text style = ""font-size:16px; line-height:80%%;"">Please respond if the probe was in the memory set.</p><p class = center-block-text style = ""font-size:16px; line-height:80%%;"">In memory set: M Key</p><p class = center-block-text style = ""font-size:16px; line-height:80%%;"">Not in memory set: Z Key</p><p class = center-block-text style = ""font-size:16px; line-height:80%%;"">Do not respond if a star appears around the probe!</p></div>",,,,143953006,0.0,,practice-stop-feedback,8,poldrack-single-stim,
9,,,,,,500.0,,,,,,,,stop_signal_with_directed_forgetting,,,,,,0.0-0.0-9.0,-1.0,none,,,-1,500.0,"<div class = centerbox><div class = fixation><span style=""color:white"">+</span></div></div>",,,,143953509,0.0,,practice_fixation,9,poldrack-single-stim,
10,,,,,,2000.0,,,,,,,,stop_signal_with_directed_forgetting,,,,,,0.0-0.0-10.0,-1.0,none,,,-1,2000.0,"<div class = bigbox><div class = topLeft><div class = cue-text><img class = center src=""/static/experiments/stop_signal_with_directed_forgetting/images/G.png""></img></div></div><div class = topMiddle><div class = cue-text></div></div><div class = topRight><div class = cue-text><img class = center src=""/static/experiments/stop_signal_with_directed_forgetting/images/N.png""></img></div></div><div class = bottomLeft><div class = cue-text><img class = center src=""/static/experiments/stop_signal_with_directed_forgetting/images/W.png""></img></div></div><div class = bottomMiddle><div class = cue-text></div></div><div class = bottomRight><div class = cue-text><img class = center src=""/static/experiments/stop_signal_with_directed_forgetting/images/Z.png""></img></div></div></div>",,,,143955511,0.0,,practice_stim,10,poldrack-single-stim,
11,,,,,,1000.0,,,,,,,,stop_signal_with_directed_forgetting,,,,,,0.0-0.0-11.0,-1.0,[],,,-1,1000.0,"<div class = bigbox><div class = centerbox><div class = cue-text><img class = center src=""/static/experiments/stop_signal_with_directed_forgetting/images/BOT.png""></img></font></div></div></div>",,,,143956514,0.0,,practice_cue,11,poldrack-single-stim,
12,,,,,,2000.0,,,,,,,,stop_signal_with_directed_forgetting,,,,,,0.0-0.0-12.0,-1.0,none,,,-1,2000.0,"<div class = centerbox><div class = fixation><span style=""color:white"">+</span></div></div>",,,,143958516,0.0,,practice_fixation,12,poldrack-single-stim,
13,350.0,500.0,"<div class = bigbox><div class = starbox><img class = center src=""/static/experiments/stop_signal_with_directed_forgetting/images/stopSignal.png""></img></div></div>",go,,1000.0,"['W', 'Z']",77.0,1.0,BOT,0.0,2.0,pos,stop_signal_with_directed_forgetting,,,,,,0.0-0.0-13.0,77.0,"[77, 90]",N,,524,1000.0,"<div class = bigbox><div class = centerbox><div class = cue-text><img class = center src=""/static/experiments/stop_signal_with_directed_forgetting/images/N.png""></img></font></div></div></div>",,go,,143959518,0.0,"['G', 'N']",practice_trial,13,stop-signal,
14,,,,,,1000.0,,,,,,,,stop_signal_with_directed_forgetting,,,,,,0.0-0.0-14.0,-1.0,"[77, 90]",,,-1,1000.0,,,,,143960520,0.0,,practice_ITI_fixation,14,poldrack-single-stim,
15,,,,,,500.0,,,,,,,,stop_signal_with_directed_forgetting,,,,,,0.0-0.0-15.0,-1.0,none,,,-1,500.0,"<div class = fb_box><div class = center-text><font size = 20>Correct!</font></div></div><div class = prompt_box><p class = center-block-text style = ""font-size:16px; line-height:80%%;"">Please respond if the probe was in the memory set.</p><p class = center-block-text style = ""font-size:16px; line-height:80%%;"">In memory set: M Key</p><p class = center-block-text style = ""font-size:16px; line-height:80%%;"">Not in memory set: Z Key</p><p class = center-block-text style = ""font-size:16px; line-height:80%%;"">Do not respond if a star appears around the probe!</p></div>",,,,143961022,0.0,,practice-stop-feedback,15,poldrack-single-stim,
16,,,,,,500.0,,,,,,,,stop_signal_with_directed_forgetting,,,,,,0.0-0.0-16.0,-1.0,none,,,-1,500.0,"<div class = centerbox><div class = fixation><span style=""color:white"">+</span></div></div>",,,,143961524,0.0,,practice_fixation,16,poldrack-single-stim,
17,,,,,,2000.0,,,,,,,,stop_signal_with_directed_forgetting,,,,,,0.0-0.0-17.0,-1.0,none,,,-1,2000.0,"<div class = bigbox><div class = topLeft><div class = cue-text><img class = center src=""/static/experiments/stop_signal_with_directed_forgetting/images/L.png""></img></div></div><div class = topMiddle><div class = cue-text></div></div><div class = topRight><div class = cue-text><img class = center src=""/static/experiments/stop_signal_with_directed_forgetting/images/B.png""></img></div></div><div class = bottomLeft><div class = cue-text><img class = center src=""/static/experiments/stop_signal_with_directed_forgetting/images/O.png""></img></div></div><div class = bottomMiddle><div class = cue-text></div></div><div class = bottomRight><div class = cue-text><img class = center src=""/static/experiments/stop_signal_with_directed_forgetting/images/Y.png""></img></div></div></div>",,,,143963526,0.0,,practice_stim,17,poldrack-single-stim,
18,,,,,,1000.0,,,,,,,,stop_signal_with_directed_forgetting,,,,,,0.0-0.0-18.0,-1.0,[],,,-1,1000.0,"<div class = bigbox><div class = centerbox><div class = cue-text><img class = center src=""/static/experiments/stop_signal_with_directed_forgetting/images/BOT.png""></img></font></div></div></div>",,,,143964528,0.0,,practice_cue,18,poldrack-single-stim,
19,,,,,,2000.0,,,,,,,,stop_signal_with_directed_forgetting,,,,,,0.0-0.0-19.0,-1.0,none,,,-1,2000.0,"<div class = centerbox><div class = fixation><span style=""color:white"">+</span></div></div>",,,,143966530,0.0,,practice_fixation,19,poldrack-single-stim,
20,350.0,500.0,"<div class = bigbox><div class = starbox><img class = center src=""/static/experiments/stop_signal_with_directed_forgetting/images/stopSignal.png""></img></div></div>",stop,,1000.0,"['O', 'Y']",-1.0,0.0,BOT,0.0,3.0,con,stop_signal_with_directed_forgetting,,,,,,0.0-0.0-20.0,90.0,"[77, 90]",W,,564,1000.0,"<div class = bigbox><div class = centerbox><div class = cue-text><img class = center src=""/static/experiments/stop_signal_with_directed_forgetting/images/W.png""></img></font></div></div></div>",0.0,stop,,143967532,0.0,"['L', 'B']",practice_trial,20,stop-signal,
21,,,,,,1000.0,,,,,,,,stop_signal_with_directed_forgetting,,,,,,0.0-0.0-21.0,-1.0,"[77, 90]",,,-1,1000.0,,,,,143968534,0.0,,practice_ITI_fixation,21,poldrack-single-stim,
22,,,,,,500.0,,,,,,,,stop_signal_with_directed_forgetting,,,,,,0.0-0.0-22.0,-1.0,none,,,-1,500.0,"<div class = fb_box><div class = center-text><font size = 20>There was a star.</font></div></div><div class = prompt_box><p class = center-block-text style = ""font-size:16px; line-height:80%%;"">Please respond if the probe was in the memory set.</p><p class = center-block-text style = ""font-size:16px; line-height:80%%;"">In memory set: M Key</p><p class = center-block-text style = ""font-size:16px; line-height:80%%;"">Not in memory set: Z Key</p><p class = center-block-text style = ""font-size:16px; line-height:80%%;"">Do not respond if a star appears around the probe!</p></div>",,,,143969036,0.0,,practice-stop-feedback,22,poldrack-single-stim,
23,,,,,,500.0,,,,,,,,stop_signal_with_directed_forgetting,,,,,,0.0-0.0-23.0,-1.0,none,,,-1,500.0,"<div class = centerbox><div class = fixation><span style=""color:white"">+</span></div></div>",,,,143969538,0.0,,practice_fixation,23,poldrack-single-stim,
24,,,,,,2000.0,,,,,,,,stop_signal_with_directed_forgetting,,,,,,0.0-0.0-24.0,-1.0,none,,,-1,2000.0,"<div class = bigbox><div class = topLeft><div class = cue-text><img class = center src=""/static/experiments/stop_signal_with_directed_forgetting/images/T.png""></img></div></div><div class = topMiddle><div class = cue-text></div></div><div class = topRight><div class = cue-text><img class = center src=""/static/experiments/stop_signal_with_directed_forgetting/images/U.png""></img></div></div><div class = bottomLeft><div class = cue-text><img class = center src=""/static/experiments/stop_signal_with_directed_forgetting/images/S.png""></img></div></div><div class = bottomMiddle><div class = cue-text></div></div><div class = bottomRight><div class = cue-text><img class = center src=""/static/experiments/stop_signal_with_directed_forgetting/images/C.png""></img></div></div></div>",,,,143971540,0.0,,practice_stim,24,poldrack-single-stim,
25,,,,,,1000.0,,,,,,,,stop_signal_with_directed_forgetting,,,,,,0.0-0.0-25.0,-1.0,[],,,-1,1000.0,"<div class = bigbox><div class = centerbox><div class = cue-text><img class = center src=""/static/experiments/stop_signal_with_directed_forgetting/images/TOP.png""></img></font></div></div></div>",,,,143972543,0.0,,practice_cue,25,poldrack-single-stim,
26,,,,,,2000.0,,,,,,,,stop_signal_with_directed_forgetting,,,,,,0.0-0.0-26.0,-1.0,none,,,-1,2000.0,"<div class = centerbox><div class = fixation><span style=""color:white"">+</span></div></div>",,,,143974545,0.0,,practice_fixation,26,poldrack-single-stim,
27,300.0,500.0,"<div class = bigbox><div class = starbox><img class = center src=""/static/experiments/stop_signal_with_directed_forgetting/images/stopSignal.png""></img></div></div>",stop,,1000.0,"['S', 'C']",-1.0,1.0,TOP,0.0,4.0,neg,stop_signal_with_directed_forgetting,,,,,,0.0-0.0-27.0,-1.0,"[77, 90]",T,,-1,1000.0,"<div class = bigbox><div class = centerbox><div class = cue-text><img class = center src=""/static/experiments/stop_signal_with_directed_forgetting/images/T.png""></img></font></div></div></div>",1.0,stop,,143975547,0.0,"['T', 'U']",practice_trial,27,stop-signal,
28,,,,,,1000.0,,,,,,,,stop_signal_with_directed_forgetting,,,,,,0.0-0.0-28.0,-1.0,"[77, 90]",,,-1,1000.0,,,,,143976549,0.0,,practice_ITI_fixation,28,poldrack-single-stim,
29,,,,,,500.0,,,,,,,,stop_signal_with_directed_forgetting,,,,,,0.0-0.0-29.0,-1.0,none,,,-1,500.0,"<div class = fb_box><div class = center-text><font size = 20>Correct!</font></div></div><div class = prompt_box><p class = center-block-text style = ""font-size:16px; line-height:80%%;"">Please respond if the probe was in the memory set.</p><p class = center-block-text style = ""font-size:16px; line-height:80%%;"">In memory set: M Key</p><p class = center-block-text style = ""font-size:16px; line-height:80%%;"">Not in memory set: Z Key</p><p class = center-block-text style = ""font-size:16px; line-height:80%%;"">Do not respond if a star appears around the probe!</p></div>",,,,143977050,0.0,,practice-stop-feedback,29,poldrack-single-stim,
30,,,,,,500.0,,,,,,,,stop_signal_with_directed_forgetting,,,,,,0.0-0.0-30.0,-1.0,none,,,-1,500.0,"<div class = centerbox><div class = fixation><span style=""color:white"">+</span></div></div>",,,,143977553,0.0,,practice_fixation,30,poldrack-single-stim,
31,,,,,,2000.0,,,,,,,,stop_signal_with_directed_forgetting,,,,,,0.0-0.0-31.0,-1.0,none,,,-1,2000.0,"<div class = bigbox><div class = topLeft><div class = cue-text><img class = center src=""/static/experiments/stop_signal_with_directed_forgetting/images/N.png""></img></div></div><div class = topMiddle><div class = cue-text></div></div><div class = topRight><div class = cue-text><img class = center src=""/static/experiments/stop_signal_with_directed_forgetting/images/R.png""></img></div></div><div class = bottomLeft><div class = cue-text><img class = center src=""/static/experiments/stop_signal_with_directed_forgetting/images/H.png""></img></div></div><div class = bottomMiddle><div class = cue-text></div></div><div class = bottomRight><div class = cue-text><img class = center src=""/static/experiments/stop_signal_with_directed_forgetting/images/D.png""></img></div></div></div>",,,,143979556,0.0,,practice_stim,31,poldrack-single-stim,
32,,,,,,1000.0,,,,,,,,stop_signal_with_directed_forgetting,,,,,,0.0-0.0-32.0,-1.0,[],,,-1,1000.0,"<div class = bigbox><div class = centerbox><div class = cue-text><img class = center src=""/static/experiments/stop_signal_with_directed_forgetting/images/BOT.png""></img></font></div></div></div>",,,,143980558,0.0,,practice_cue,32,poldrack-single-stim,
33,,,,,,2000.0,,,,,,,,stop_signal_with_directed_forgetting,,,,,,0.0-0.0-33.0,-1.0,none,,,-1,2000.0,"<div class = centerbox><div class = fixation><span style=""color:white"">+</span></div></div>",,,,143982560,0.0,,practice_fixation,33,poldrack-single-stim,
34,350.0,500.0,"<div class = bigbox><div class = starbox><img class = center src=""/static/experiments/stop_signal_with_directed_forgetting/images/stopSignal.png""></img></div></div>",go,,1000.0,"['H', 'D']",77.0,1.0,BOT,0.0,5.0,pos,stop_signal_with_directed_forgetting,,,,,,0.0-0.0-34.0,77.0,"[77, 90]",N,,696,1000.0,"<div class = bigbox><div class = centerbox><div class = cue-text><img class = center src=""/static/experiments/stop_signal_with_directed_forgetting/images/N.png""></img></font></div></div></div>",,go,,143983562,0.0,"['N', 'R']",practice_trial,34,stop-signal,
35,,,,,,1000.0,,,,,,,,stop_signal_with_directed_forgetting,,,,,,0.0-0.0-35.0,-1.0,"[77, 90]",,,-1,1000.0,,,,,143984564,0.0,,practice_ITI_fixation,35,poldrack-single-stim,
36,,,,,,500.0,,,,,,,,stop_signal_with_directed_forgetting,,,,,,0.0-0.0-36.0,-1.0,none,,,-1,500.0,"<div class = fb_box><div class = center-text><font size = 20>Correct!</font></div></div><div class = prompt_box><p class = center-block-text style = ""font-size:16px; line-height:80%%;"">Please respond if the probe was in the memory set.</p><p class = center-block-text style = ""font-size:16px; line-height:80%%;"">In memory set: M Key</p><p class = center-block-text style = ""font-size:16px; line-height:80%%;"">Not in memory set: Z Key</p><p class = center-block-text style = ""font-size:16px; line-height:80%%;"">Do not respond if a star appears around the probe!</p></div>",,,,143985066,0.0,,practice-stop-feedback,36,poldrack-single-stim,
37,,,,,,500.0,,,,,,,,stop_signal_with_directed_forgetting,,,,,,0.0-0.0-37.0,-1.0,none,,,-1,500.0,"<div class = centerbox><div class = fixation><span style=""color:white"">+</span></div></div>",,,,143985568,0.0,,practice_fixation,37,poldrack-single-stim,
38,,,,,,2000.0,,,,,,,,stop_signal_with_directed_forgetting,,,,,,0.0-0.0-38.0,-1.0,none,,,-1,2000.0,"<div class = bigbox><div class = topLeft><div class = cue-text><img class = center src=""/static/experiments/stop_signal_with_directed_forgetting/images/X.png""></img></div></div><div class = topMiddle><div class = cue-text></div></div><div class = topRight><div class = cue-text><img class = center src=""/static/experiments/stop_signal_with_directed_forgetting/images/K.png""></img></div></div><div class = bottomLeft><div class = cue-text><img class = center src=""/static/experiments/stop_signal_with_directed_forgetting/images/V.png""></img></div></div><div class = bottomMiddle><div class = cue-text></div></div><div class = bottomRight><div class = cue-text><img class = center src=""/static/experiments/stop_signal_with_directed_forgetting/images/F.png""></img></div></div></div>",,,,143987570,0.0,,practice_stim,38,poldrack-single-stim,
39,,,,,,1000.0,,,,,,,,stop_signal_with_directed_forgetting,,,,,,0.0-0.0-39.0,-1.0,[],,,-1,1000.0,"<div class = bigbox><div class = centerbox><div class = cue-text><img class = center src=""/static/experiments/stop_signal_with_directed_forgetting/images/TOP.png""></img></font></div></div></div>",,,,143988572,0.0,,practice_cue,39,poldrack-single-stim,
40,,,,,,2000.0,,,,,,,,stop_signal_with_directed_forgetting,,,,,,0.0-0.0-40.0,-1.0,none,,,-1,2000.0,"<div class = centerbox><div class = fixation><span style=""color:white"">+</span></div></div>",,,,143990574,0.0,,practice_fixation,40,poldrack-single-stim,
41,350.0,500.0,"<div class = bigbox><div class = starbox><img class = center src=""/static/experiments/stop_signal_with_directed_forgetting/images/stopSignal.png""></img></div></div>",stop,,1000.0,"['V', 'F']",-1.0,1.0,TOP,0.0,6.0,pos,stop_signal_with_directed_forgetting,,,,,,0.0-0.0-41.0,-1.0,"[77, 90]",V,,-1,1000.0,"<div class = bigbox><div class = centerbox><div class = cue-text><img class = center src=""/static/experiments/stop_signal_with_directed_forgetting/images/V.png""></img></font></div></div></div>",1.0,stop,,143991576,0.0,"['X', 'K']",practice_trial,41,stop-signal,
42,,,,,,1000.0,,,,,,,,stop_signal_with_directed_forgetting,,,,,,0.0-0.0-42.0,-1.0,"[77, 90]",,,-1,1000.0,,,,,143992578,0.0,,practice_ITI_fixation,42,poldrack-single-stim,
43,,,,,,500.0,,,,,,,,stop_signal_with_directed_forgetting,,,,,,0.0-0.0-43.0,-1.0,none,,,-1,500.0,"<div class = fb_box><div class = center-text><font size = 20>Correct!</font></div></div><div class = prompt_box><p class = center-block-text style = ""font-size:16px; line-height:80%%;"">Please respond if the probe was in the memory set.</p><p class = center-block-text style = ""font-size:16px; line-height:80%%;"">In memory set: M Key</p><p class = center-block-text style = ""font-size:16px; line-height:80%%;"">Not in memory set: Z Key</p><p class = center-block-text style = ""font-size:16px; line-height:80%%;"">Do not respond if a star appears around the probe!</p></div>",,,,143993080,0.0,,practice-stop-feedback,43,poldrack-single-stim,
44,,,,,,500.0,,,,,,,,stop_signal_with_directed_forgetting,,,,,,0.0-0.0-44.0,-1.0,none,,,-1,500.0,"<div class = centerbox><div class = fixation><span style=""color:white"">+</span></div></div>",,,,143993582,0.0,,practice_fixation,44,poldrack-single-stim,
45,,,,,,2000.0,,,,,,,,stop_signal_with_directed_forgetting,,,,,,0.0-0.0-45.0,-1.0,none,,,-1,2000.0,"<div class = bigbox><div class = topLeft><div class = cue-text><img class = center src=""/static/experiments/stop_signal_with_directed_forgetting/images/O.png""></img></div></div><div class = topMiddle><div class = cue-text></div></div><div class = topRight><div class = cue-text><img class = center src=""/static/experiments/stop_signal_with_directed_forgetting/images/S.png""></img></div></div><div class = bottomLeft><div class = cue-text><img class = center src=""/static/experiments/stop_signal_with_directed_forgetting/images/E.png""></img></div></div><div class = bottomMiddle><div class = cue-text></div></div><div class = bottomRight><div class = cue-text><img class = center src=""/static/experiments/stop_signal_with_directed_forgetting/images/U.png""></img></div></div></div>",,,,143995584,0.0,,practice_stim,45,poldrack-single-stim,
46,,,,,,1000.0,,,,,,,,stop_signal_with_directed_forgetting,,,,,,0.0-0.0-46.0,-1.0,[],,,-1,1000.0,"<div class = bigbox><div class = centerbox><div class = cue-text><img class = center src=""/static/experiments/stop_signal_with_directed_forgetting/images/TOP.png""></img></font></div></div></div>",,,,143996587,0.0,,practice_cue,46,poldrack-single-stim,
47,,,,,,2000.0,,,,,,,,stop_signal_with_directed_forgetting,,,,,,0.0-0.0-47.0,-1.0,none,,,-1,2000.0,"<div class = centerbox><div class = fixation><span style=""color:white"">+</span></div></div>",,,,143998589,0.0,,practice_fixation,47,poldrack-single-stim,
48,400.0,500.0,"<div class = bigbox><div class = starbox><img class = center src=""/static/experiments/stop_signal_with_directed_forgetting/images/stopSignal.png""></img></div></div>",go,,1000.0,"['E', 'U']",77.0,1.0,TOP,0.0,7.0,pos,stop_signal_with_directed_forgetting,,,,,,0.0-0.0-48.0,77.0,"[77, 90]",E,,702,1000.0,"<div class = bigbox><div class = centerbox><div class = cue-text><img class = center src=""/static/experiments/stop_signal_with_directed_forgetting/images/E.png""></img></font></div></div></div>",,go,,143999591,0.0,"['O', 'S']",practice_trial,48,stop-signal,
49,,,,,,1000.0,,,,,,,,stop_signal_with_directed_forgetting,,,,,,0.0-0.0-49.0,-1.0,"[77, 90]",,,-1,1000.0,,,,,144000593,0.0,,practice_ITI_fixation,49,poldrack-single-stim,
50,,,,,,500.0,,,,,,,,stop_signal_with_directed_forgetting,,,,,,0.0-0.0-50.0,-1.0,none,,,-1,500.0,"<div class = fb_box><div class = center-text><font size = 20>Correct!</font></div></div><div class = prompt_box><p class = center-block-text style = ""font-size:16px; line-height:80%%;"">Please respond if the probe was in the memory set.</p><p class = center-block-text style = ""font-size:16px; line-height:80%%;"">In memory set: M Key</p><p class = center-block-text style = ""font-size:16px; line-height:80%%;"">Not in memory set: Z Key</p><p class = center-block-text style = ""font-size:16px; line-height:80%%;"">Do not respond if a star appears around the probe!</p></div>",,,,144001094,0.0,,practice-stop-feedback,50,poldrack-single-stim,
51,,,,,,500.0,,,,,,,,stop_signal_with_directed_forgetting,,,,,,0.0-0.0-51.0,-1.0,none,,,-1,500.0,"<div class = centerbox><div class = fixation><span style=""color:white"">+</span></div></div>",,,,144001596,0.0,,practice_fixation,51,poldrack-single-stim,
52,,,,,,2000.0,,,,,,,,stop_signal_with_directed_forgetting,,,,,,0.0-0.0-52.0,-1.0,none,,,-1,2000.0,"<div class = bigbox><div class = topLeft><div class = cue-text><img class = center src=""/static/experiments/stop_signal_with_directed_forgetting/images/T.png""></img></div></div><div class = topMiddle><div class = cue-text></div></div><div class = topRight><div class = cue-text><img class = center src=""/static/experiments/stop_signal_with_directed_forgetting/images/N.png""></img></div></div><div class = bottomLeft><div class = cue-text><img class = center src=""/static/experiments/stop_signal_with_directed_forgetting/images/B.png""></img></div></div><div class = bottomMiddle><div class = cue-text></div></div><div class = bottomRight><div class = cue-text><img class = center src=""/static/experiments/stop_signal_with_directed_forgetting/images/Z.png""></img></div></div></div>",,,,144003599,0.0,,practice_stim,52,poldrack-single-stim,
53,,,,,,1000.0,,,,,,,,stop_signal_with_directed_forgetting,,,,,,0.0-0.0-53.0,-1.0,[],,,-1,1000.0,"<div class = bigbox><div class = centerbox><div class = cue-text><img class = center src=""/static/experiments/stop_signal_with_directed_forgetting/images/BOT.png""></img></font></div></div></div>",,,,144004601,0.0,,practice_cue,53,poldrack-single-stim,
54,,,,,,2000.0,,,,,,,,stop_signal_with_directed_forgetting,,,,,,0.0-0.0-54.0,-1.0,none,,,-1,2000.0,"<div class = centerbox><div class = fixation><span style=""color:white"">+</span></div></div>",,,,144006603,0.0,,practice_fixation,54,poldrack-single-stim,
55,400.0,500.0,"<div class = bigbox><div class = starbox><img class = center src=""/static/experiments/stop_signal_with_directed_forgetting/images/stopSignal.png""></img></div></div>",go,,1000.0,"['B', 'Z']",90.0,0.0,BOT,0.0,8.0,neg,stop_signal_with_directed_forgetting,,,,,,0.0-0.0-55.0,-1.0,"[77, 90]",Z,,-1,1000.0,"<div class = bigbox><div class = centerbox><div class = cue-text><img class = center src=""/static/experiments/stop_signal_with_directed_forgetting/images/Z.png""></img></font></div></div></div>",,go,,144007605,0.0,"['T', 'N']",practice_trial,55,stop-signal,
56,,,,,,1000.0,,,,,,,,stop_signal_with_directed_forgetting,,,,,,0.0-0.0-56.0,90.0,"[77, 90]",,,155,1000.0,,,,,144008607,0.0,,practice_ITI_fixation,56,poldrack-single-stim,
57,,,,,,500.0,,,,,,,,stop_signal_with_directed_forgetting,,,,,,0.0-0.0-57.0,-1.0,none,,,-1,500.0,"<div class = fb_box><div class = center-text><font size = 20>Respond Faster!</font></div></div><div class = prompt_box><p class = center-block-text style = ""font-size:16px; line-height:80%%;"">Please respond if the probe was in the memory set.</p><p class = center-block-text style = ""font-size:16px; line-height:80%%;"">In memory set: M Key</p><p class = center-block-text style = ""font-size:16px; line-height:80%%;"">Not in memory set: Z Key</p><p class = center-block-text style = ""font-size:16px; line-height:80%%;"">Do not respond if a star appears around the probe!</p></div>",,,,144009109,0.0,,practice-stop-feedback,57,poldrack-single-stim,
58,,,,,,500.0,,,,,,,,stop_signal_with_directed_forgetting,,,,,,0.0-0.0-58.0,-1.0,none,,,-1,500.0,"<div class = centerbox><div class = fixation><span style=""color:white"">+</span></div></div>",,,,144009611,0.0,,practice_fixation,58,poldrack-single-stim,
59,,,,,,2000.0,,,,,,,,stop_signal_with_directed_forgetting,,,,,,0.0-0.0-59.0,-1.0,none,,,-1,2000.0,"<div class = bigbox><div class = topLeft><div class = cue-text><img class = center src=""/static/experiments/stop_signal_with_directed_forgetting/images/V.png""></img></div></div><div class = topMiddle><div class = cue-text></div></div><div class = topRight><div class = cue-text><img class = center src=""/static/experiments/stop_signal_with_directed_forgetting/images/M.png""></img></div></div><div class = bottomLeft><div class = cue-text><img class = center src=""/static/experiments/stop_signal_with_directed_forgetting/images/D.png""></img></div></div><div class = bottomMiddle><div class = cue-text></div></div><div class = bottomRight><div class = cue-text><img class = center src=""/static/experiments/stop_signal_with_directed_forgetting/images/I.png""></img></div></div></div>",,,,144011613,0.0,,practice_stim,59,poldrack-single-stim,
60,,,,,,1000.0,,,,,,,,stop_signal_with_directed_forgetting,,,,,,0.0-0.0-60.0,-1.0,[],,,-1,1000.0,"<div class = bigbox><div class = centerbox><div class = cue-text><img class = center src=""/static/experiments/stop_signal_with_directed_forgetting/images/BOT.png""></img></font></div></div></div>",,,,144012615,0.0,,practice_cue,60,poldrack-single-stim,
61,,,,,,2000.0,,,,,,,,stop_signal_with_directed_forgetting,,,,,,0.0-0.0-61.0,-1.0,none,,,-1,2000.0,"<div class = centerbox><div class = fixation><span style=""color:white"">+</span></div></div>",,,,144014617,0.0,,practice_fixation,61,poldrack-single-stim,
62,400.0,500.0,"<div class = bigbox><div class = starbox><img class = center src=""/static/experiments/stop_signal_with_directed_forgetting/images/stopSignal.png""></img></div></div>",go,,1000.0,"['D', 'I']",77.0,1.0,BOT,0.0,9.0,pos,stop_signal_with_directed_forgetting,,,,,,0.0-0.0-62.0,77.0,"[77, 90]",M,,556,1000.0,"<div class = bigbox><div class = centerbox><div class = cue-text><img class = center src=""/static/experiments/stop_signal_with_directed_forgetting/images/M.png""></img></font></div></div></div>",,go,,144015620,0.0,"['V', 'M']",practice_trial,62,stop-signal,
63,,,,,,1000.0,,,,,,,,stop_signal_with_directed_forgetting,,,,,,0.0-0.0-63.0,-1.0,"[77, 90]",,,-1,1000.0,,,,,144016622,0.0,,practice_ITI_fixation,63,poldrack-single-stim,
64,,,,,,500.0,,,,,,,,stop_signal_with_directed_forgetting,,,,,,0.0-0.0-64.0,-1.0,none,,,-1,500.0,"<div class = fb_box><div class = center-text><font size = 20>Correct!</font></div></div><div class = prompt_box><p class = center-block-text style = ""font-size:16px; line-height:80%%;"">Please respond if the probe was in the memory set.</p><p class = center-block-text style = ""font-size:16px; line-height:80%%;"">In memory set: M Key</p><p class = center-block-text style = ""font-size:16px; line-height:80%%;"">Not in memory set: Z Key</p><p class = center-block-text style = ""font-size:16px; line-height:80%%;"">Do not respond if a star appears around the probe!</p></div>",,,,144017124,0.0,,practice-stop-feedback,64,poldrack-single-stim,
65,,,,,,500.0,,,,,,,,stop_signal_with_directed_forgetting,,,,,,0.0-0.0-65.0,-1.0,none,,,-1,500.0,"<div class = centerbox><div class = fixation><span style=""color:white"">+</span></div></div>",,,,144017626,0.0,,practice_fixation,65,poldrack-single-stim,
66,,,,,,2000.0,,,,,,,,stop_signal_with_directed_forgetting,,,,,,0.0-0.0-66.0,-1.0,none,,,-1,2000.0,"<div class = bigbox><div class = topLeft><div class = cue-text><img class = center src=""/static/experiments/stop_signal_with_directed_forgetting/images/H.png""></img></div></div><div class = topMiddle><div class = cue-text></div></div><div class = topRight><div class = cue-text><img class = center src=""/static/experiments/stop_signal_with_directed_forgetting/images/Y.png""></img></div></div><div class = bottomLeft><div class = cue-text><img class = center src=""/static/experiments/stop_signal_with_directed_forgetting/images/Q.png""></img></div></div><div class = bottomMiddle><div class = cue-text></div></div><div class = bottomRight><div class = cue-text><img class = center src=""/static/experiments/stop_signal_with_directed_forgetting/images/A.png""></img></div></div></div>",,,,144019628,0.0,,practice_stim,66,poldrack-single-stim,
67,,,,,,1000.0,,,,,,,,stop_signal_with_directed_forgetting,,,,,,0.0-0.0-67.0,-1.0,[],,,-1,1000.0,"<div class = bigbox><div class = centerbox><div class = cue-text><img class = center src=""/static/experiments/stop_signal_with_directed_forgetting/images/BOT.png""></img></font></div></div></div>",,,,144020630,0.0,,practice_cue,67,poldrack-single-stim,
68,,,,,,2000.0,,,,,,,,stop_signal_with_directed_forgetting,,,,,,0.0-0.0-68.0,-1.0,none,,,-1,2000.0,"<div class = centerbox><div class = fixation><span style=""color:white"">+</span></div></div>",,,,144022632,0.0,,practice_fixation,68,poldrack-single-stim,
69,400.0,500.0,"<div class = bigbox><div class = starbox><img class = center src=""/static/experiments/stop_signal_with_directed_forgetting/images/stopSignal.png""></img></div></div>",go,,1000.0,"['Q', 'A']",90.0,1.0,BOT,0.0,10.0,neg,stop_signal_with_directed_forgetting,,,,,,0.0-0.0-69.0,90.0,"[77, 90]",Q,,552,1000.0,"<div class = bigbox><div class = centerbox><div class = cue-text><img class = center src=""/static/experiments/stop_signal_with_directed_forgetting/images/Q.png""></img></font></div></div></div>",,go,,144023634,0.0,"['H', 'Y']",practice_trial,69,stop-signal,
70,,,,,,1000.0,,,,,,,,stop_signal_with_directed_forgetting,,,,,,0.0-0.0-70.0,-1.0,"[77, 90]",,,-1,1000.0,,,,,144024636,0.0,,practice_ITI_fixation,70,poldrack-single-stim,
71,,,,,,500.0,,,,,,,,stop_signal_with_directed_forgetting,,,,,,0.0-0.0-71.0,-1.0,none,,,-1,500.0,"<div class = fb_box><div class = center-text><font size = 20>Correct!</font></div></div><div class = prompt_box><p class = center-block-text style = ""font-size:16px; line-height:80%%;"">Please respond if the probe was in the memory set.</p><p class = center-block-text style = ""font-size:16px; line-height:80%%;"">In memory set: M Key</p><p class = center-block-text style = ""font-size:16px; line-height:80%%;"">Not in memory set: Z Key</p><p class = center-block-text style = ""font-size:16px; line-height:80%%;"">Do not respond if a star appears around the probe!</p></div>",,,,144025138,0.0,,practice-stop-feedback,71,poldrack-single-stim,
72,,,,,,500.0,,,,,,,,stop_signal_with_directed_forgetting,,,,,,0.0-0.0-72.0,-1.0,none,,,-1,500.0,"<div class = centerbox><div class = fixation><span style=""color:white"">+</span></div></div>",,,,144025640,0.0,,practice_fixation,72,poldrack-single-stim,
73,,,,,,2000.0,,,,,,,,stop_signal_with_directed_forgetting,,,,,,0.0-0.0-73.0,-1.0,none,,,-1,2000.0,"<div class = bigbox><div class = topLeft><div class = cue-text><img class = center src=""/static/experiments/stop_signal_with_directed_forgetting/images/G.png""></img></div></div><div class = topMiddle><div class = cue-text></div></div><div class = topRight><div class = cue-text><img class = center src=""/static/experiments/stop_signal_with_directed_forgetting/images/Z.png""></img></div></div><div class = bottomLeft><div class = cue-text><img class = center src=""/static/experiments/stop_signal_with_directed_forgetting/images/N.png""></img></div></div><div class = bottomMiddle><div class = cue-text></div></div><div class = bottomRight><div class = cue-text><img class = center src=""/static/experiments/stop_signal_with_directed_forgetting/images/C.png""></img></div></div></div>",,,,144027642,0.0,,practice_stim,73,poldrack-single-stim,
74,,,,,,1000.0,,,,,,,,stop_signal_with_directed_forgetting,,,,,,0.0-0.0-74.0,-1.0,[],,,-1,1000.0,"<div class = bigbox><div class = centerbox><div class = cue-text><img class = center src=""/static/experiments/stop_signal_with_directed_forgetting/images/TOP.png""></img></font></div></div></div>",,,,144028644,0.0,,practice_cue,74,poldrack-single-stim,
75,,,,,,2000.0,,,,,,,,stop_signal_with_directed_forgetting,,,,,,0.0-0.0-75.0,-1.0,none,,,-1,2000.0,"<div class = centerbox><div class = fixation><span style=""color:white"">+</span></div></div>",,,,144030646,0.0,,practice_fixation,75,poldrack-single-stim,
76,400.0,500.0,"<div class = bigbox><div class = starbox><img class = center src=""/static/experiments/stop_signal_with_directed_forgetting/images/stopSignal.png""></img></div></div>",stop,,1000.0,"['N', 'C']",-1.0,0.0,TOP,0.0,11.0,pos,stop_signal_with_directed_forgetting,,,,,,0.0-0.0-76.0,77.0,"[77, 90]",N,,719,1000.0,"<div class = bigbox><div class = centerbox><div class = cue-text><img class = center src=""/static/experiments/stop_signal_with_directed_forgetting/images/N.png""></img></font></div></div></div>",0.0,stop,,144031649,0.0,"['G', 'Z']",practice_trial,76,stop-signal,
77,,,,,,1000.0,,,,,,,,stop_signal_with_directed_forgetting,,,,,,0.0-0.0-77.0,-1.0,"[77, 90]",,,-1,1000.0,,,,,144032650,0.0,,practice_ITI_fixation,77,poldrack-single-stim,
78,,,,,,500.0,,,,,,,,stop_signal_with_directed_forgetting,,,,,,0.0-0.0-78.0,-1.0,none,,,-1,500.0,"<div class = fb_box><div class = center-text><font size = 20>There was a star.</font></div></div><div class = prompt_box><p class = center-block-text style = ""font-size:16px; line-height:80%%;"">Please respond if the probe was in the memory set.</p><p class = center-block-text style = ""font-size:16px; line-height:80%%;"">In memory set: M Key</p><p class = center-block-text style = ""font-size:16px; line-height:80%%;"">Not in memory set: Z Key</p><p class = center-block-text style = ""font-size:16px; line-height:80%%;"">Do not respond if a star appears around the probe!</p></div>",,,,144033153,0.0,,practice-stop-feedback,78,poldrack-single-stim,
79,,,,,,500.0,,,,,,,,stop_signal_with_directed_forgetting,,,,,,0.0-0.0-79.0,-1.0,none,,,-1,500.0,"<div class = centerbox><div class = fixation><span style=""color:white"">+</span></div></div>",,,,144033655,0.0,,practice_fixation,79,poldrack-single-stim,
80,,,,,,2000.0,,,,,,,,stop_signal_with_directed_forgetting,,,,,,0.0-0.0-80.0,-1.0,none,,,-1,2000.0,"<div class = bigbox><div class = topLeft><div class = cue-text><img class = center src=""/static/experiments/stop_signal_with_directed_forgetting/images/O.png""></img></div></div><div class = topMiddle><div class = cue-text></div></div><div class = topRight><div class = cue-text><img class = center src=""/static/experiments/stop_signal_with_directed_forgetting/images/S.png""></img></div></div><div class = bottomLeft><div class = cue-text><img class = center src=""/static/experiments/stop_signal_with_directed_forgetting/images/D.png""></img></div></div><div class = bottomMiddle><div class = cue-text></div></div><div class = bottomRight><div class = cue-text><img class = center src=""/static/experiments/stop_signal_with_directed_forgetting/images/V.png""></img></div></div></div>",,,,144035657,0.0,,practice_stim,80,poldrack-single-stim,
81,,,,,,1000.0,,,,,,,,stop_signal_with_directed_forgetting,,,,,,0.0-0.0-81.0,-1.0,[],,,-1,1000.0,"<div class = bigbox><div class = centerbox><div class = cue-text><img class = center src=""/static/experiments/stop_signal_with_directed_forgetting/images/TOP.png""></img></font></div></div></div>",,,,144036659,0.0,,practice_cue,81,poldrack-single-stim,
82,,,,,,2000.0,,,,,,,,stop_signal_with_directed_forgetting,,,,,,0.0-0.0-82.0,-1.0,none,,,-1,2000.0,"<div class = centerbox><div class = fixation><span style=""color:white"">+</span></div></div>",,,,144038661,0.0,,practice_fixation,82,poldrack-single-stim,
83,350.0,500.0,"<div class = bigbox><div class = starbox><img class = center src=""/static/experiments/stop_signal_with_directed_forgetting/images/stopSignal.png""></img></div></div>",go,,1000.0,"['D', 'V']",90.0,1.0,TOP,0.0,12.0,con,stop_signal_with_directed_forgetting,,,,,,0.0-0.0-83.0,90.0,"[77, 90]",K,,770,1000.0,"<div class = bigbox><div class = centerbox><div class = cue-text><img class = center src=""/static/experiments/stop_signal_with_directed_forgetting/images/K.png""></img></font></div></div></div>",,go,,144039664,0.0,"['O', 'S']",practice_trial,83,stop-signal,
84,,,,,,1000.0,,,,,,,,stop_signal_with_directed_forgetting,,,,,,0.0-0.0-84.0,-1.0,"[77, 90]",,,-1,1000.0,,,,,144040666,0.0,,practice_ITI_fixation,84,poldrack-single-stim,
85,,,,,,500.0,,,,,,,,stop_signal_with_directed_forgetting,,,,,,0.0-0.0-85.0,-1.0,none,,,-1,500.0,"<div class = fb_box><div class = center-text><font size = 20>Correct!</font></div></div><div class = prompt_box><p class = center-block-text style = ""font-size:16px; line-height:80%%;"">Please respond if the probe was in the memory set.</p><p class = center-block-text style = ""font-size:16px; line-height:80%%;"">In memory set: M Key</p><p class = center-block-text style = ""font-size:16px; line-height:80%%;"">Not in memory set: Z Key</p><p class = center-block-text style = ""font-size:16px; line-height:80%%;"">Do not respond if a star appears around the probe!</p></div>",,,,144041168,0.0,,practice-stop-feedback,85,poldrack-single-stim,
86,,,,,,2752.0,,,,,,,,stop_signal_with_directed_forgetting,,,,,,0.0-1.0,13.0,[13],,,2752,2752.0,<div class = bigbox><div class = picture_box><p class = block-text><br>Please take this time to read your feedback and to take a short break! Press enter to continue</p><p class = block-text>Done with this practice. Press Enter to continue.</p></div></div>,,,,144043926,0.0,,feedback_block,86,poldrack-single-stim,
87,,,,,,4194.0,,,,,,,,stop_signal_with_directed_forgetting,,,,,,0.0-2.0,13.0,,,,4194,,,,,"<div class = centerbox><p class = block-text>We will now start the test portion</p><p class = block-text>In this experiment you will be presented with 4 letters on each trial. You must memorize all 4 letters.</p> <p class = block-text>There will be a short delay, then you will see a cue, either <i>TOP</i> or <i>BOT</i>. This will instruct you to <i>FORGET</i> the 2 letters located at either the top or bottom (respectively) of the screen. The 2 remaining letters that you must remember are called your <i>MEMORY SET</i>. Please forget the letters not in the memory set.</p><p class = block-text>So for example, if you get the cue TOP, please forget the top 2 letters and remember the bottom 2 letters.</p><p class = block-text>After a short delay, you will be presented with a probe.  Please indicate whether this probe was in your memory set.</p><p class = block-text>Press the <i>M Key </i>if the probe was in the memory set, and the <i>Z Key  </i>if not.</p><p class = block-text>On some trials, you will see a star appear with or shortly after the probe. Do not respond if you see a star.  Do not slow down your response to the probe in order to wait for the star.</p><p class = block-text>You will no longer receive the rule prompt, so remember the instructions before you continue. Press Enter to begin.</p></div>",144048121,1000.0,,instruction,87,poldrack-text,
88,,,,,,1578.0,,,,,,,,stop_signal_with_directed_forgetting,,,,,,0.0-3.0-0.0,13.0,[13],,,1578,1578.0,<div class = bigbox><div class = picture_box><p class = block-text>We will now start the test portion. Press enter to begin.</p></div></div>,,,,144050700,0.0,,feedback_block,88,poldrack-single-stim,
89,,,,,,500.0,,,,,,,,stop_signal_with_directed_forgetting,,,,,,0.0-3.0-1.0,-1.0,none,,,-1,500.0,"<div class = centerbox><div class = fixation><span style=""color:white"">+</span></div></div>",,,,144051202,0.0,,fixation,89,poldrack-single-stim,
90,,,,,,2000.0,,,,,,,,stop_signal_with_directed_forgetting,,,,,,0.0-3.0-2.0,-1.0,none,,,-1,2000.0,"<div class = bigbox><div class = topLeft><div class = cue-text><img class = center src=""/static/experiments/stop_signal_with_directed_forgetting/images/L.png""></img></div></div><div class = topMiddle><div class = cue-text></div></div><div class = topRight><div class = cue-text><img class = center src=""/static/experiments/stop_signal_with_directed_forgetting/images/H.png""></img></div></div><div class = bottomLeft><div class = cue-text><img class = center src=""/static/experiments/stop_signal_with_directed_forgetting/images/X.png""></img></div></div><div class = bottomMiddle><div class = cue-text></div></div><div class = bottomRight><div class = cue-text><img class = center src=""/static/experiments/stop_signal_with_directed_forgetting/images/V.png""></img></div></div></div>",,,,144053204,0.0,,stim,90,poldrack-single-stim,
91,,,,,,1000.0,,,,,,,,stop_signal_with_directed_forgetting,,,,,,0.0-3.0-3.0,-1.0,[],,,-1,1000.0,"<div class = bigbox><div class = centerbox><div class = cue-text><img class = center src=""/static/experiments/stop_signal_with_directed_forgetting/images/BOT.png""></img></font></div></div></div>",,,,144054206,0.0,,cue,91,poldrack-single-stim,
92,,,,,,2000.0,,,,,,,,stop_signal_with_directed_forgetting,,,,,,0.0-3.0-4.0,-1.0,none,,,-1,2000.0,"<div class = centerbox><div class = fixation><span style=""color:white"">+</span></div></div>",,,,144056208,0.0,,fixation,92,poldrack-single-stim,
93,350.0,500.0,"<div class = bigbox><div class = starbox><img class = center src=""/static/experiments/stop_signal_with_directed_forgetting/images/stopSignal.png""></img></div></div>",go,,1000.0,"['X', 'V']",77.0,0.0,BOT,0.0,1.0,pos,stop_signal_with_directed_forgetting,,,,,,0.0-3.0-5.0,90.0,"[77, 90]",H,,704,1000.0,"<div class = bigbox><div class = centerbox><div class = cue-text><img class = center src=""/static/experiments/stop_signal_with_directed_forgetting/images/H.png""></img></font></div></div></div>",,go,,144057210,0.0,"['L', 'H']",test_trial,93,stop-signal,
94,,,,,,1000.0,,,,,,,,stop_signal_with_directed_forgetting,,,,,,0.0-3.0-6.0,77.0,"[77, 90]",,,247,1000.0,,,,,144058212,0.0,,ITI_fixation,94,poldrack-single-stim,
95,,,,,,500.0,,,,,,,,stop_signal_with_directed_forgetting,,,,,,0.0-3.0-7.0,-1.0,none,,,-1,500.0,"<div class = centerbox><div class = fixation><span style=""color:white"">+</span></div></div>",,,,144058714,0.0,,fixation,95,poldrack-single-stim,
96,,,,,,2000.0,,,,,,,,stop_signal_with_directed_forgetting,,,,,,0.0-3.0-8.0,-1.0,none,,,-1,2000.0,"<div class = bigbox><div class = topLeft><div class = cue-text><img class = center src=""/static/experiments/stop_signal_with_directed_forgetting/images/A.png""></img></div></div><div class = topMiddle><div class = cue-text></div></div><div class = topRight><div class = cue-text><img class = center src=""/static/experiments/stop_signal_with_directed_forgetting/images/F.png""></img></div></div><div class = bottomLeft><div class = cue-text><img class = center src=""/static/experiments/stop_signal_with_directed_forgetting/images/M.png""></img></div></div><div class = bottomMiddle><div class = cue-text></div></div><div class = bottomRight><div class = cue-text><img class = center src=""/static/experiments/stop_signal_with_directed_forgetting/images/Y.png""></img></div></div></div>",,,,144060716,0.0,,stim,96,poldrack-single-stim,
97,,,,,,1000.0,,,,,,,,stop_signal_with_directed_forgetting,,,,,,0.0-3.0-9.0,-1.0,[],,,-1,1000.0,"<div class = bigbox><div class = centerbox><div class = cue-text><img class = center src=""/static/experiments/stop_signal_with_directed_forgetting/images/TOP.png""></img></font></div></div></div>",,,,144061718,0.0,,cue,97,poldrack-single-stim,
98,,,,,,2000.0,,,,,,,,stop_signal_with_directed_forgetting,,,,,,0.0-3.0-10.0,-1.0,none,,,-1,2000.0,"<div class = centerbox><div class = fixation><span style=""color:white"">+</span></div></div>",,,,144063720,0.0,,fixation,98,poldrack-single-stim,
99,350.0,500.0,"<div class = bigbox><div class = starbox><img class = center src=""/static/experiments/stop_signal_with_directed_forgetting/images/stopSignal.png""></img></div></div>",go,,1000.0,"['M', 'Y']",77.0,1.0,TOP,0.0,2.0,pos,stop_signal_with_directed_forgetting,,,,,,0.0-3.0-11.0,77.0,"[77, 90]",Y,,592,1000.0,"<div class = bigbox><div class = centerbox><div class = cue-text><img class = center src=""/static/experiments/stop_signal_with_directed_forgetting/images/Y.png""></img></font></div></div></div>",,go,,144064723,0.0,"['A', 'F']",test_trial,99,stop-signal,
100,,,,,,1000.0,,,,,,,,stop_signal_with_directed_forgetting,,,,,,0.0-3.0-12.0,-1.0,"[77, 90]",,,-1,1000.0,,,,,144065725,0.0,,ITI_fixation,100,poldrack-single-stim,
101,,,,,,500.0,,,,,,,,stop_signal_with_directed_forgetting,,,,,,0.0-3.0-13.0,-1.0,none,,,-1,500.0,"<div class = centerbox><div class = fixation><span style=""color:white"">+</span></div></div>",,,,144066227,0.0,,fixation,101,poldrack-single-stim,
102,,,,,,2000.0,,,,,,,,stop_signal_with_directed_forgetting,,,,,,0.0-3.0-14.0,-1.0,none,,,-1,2000.0,"<div class = bigbox><div class = topLeft><div class = cue-text><img class = center src=""/static/experiments/stop_signal_with_directed_forgetting/images/N.png""></img></div></div><div class = topMiddle><div class = cue-text></div></div><div class = topRight><div class = cue-text><img class = center src=""/static/experiments/stop_signal_with_directed_forgetting/images/P.png""></img></div></div><div class = bottomLeft><div class = cue-text><img class = center src=""/static/experiments/stop_signal_with_directed_forgetting/images/K.png""></img></div></div><div class = bottomMiddle><div class = cue-text></div></div><div class = bottomRight><div class = cue-text><img class = center src=""/static/experiments/stop_signal_with_directed_forgetting/images/U.png""></img></div></div></div>",,,,144068229,0.0,,stim,102,poldrack-single-stim,
103,,,,,,1000.0,,,,,,,,stop_signal_with_directed_forgetting,,,,,,0.0-3.0-15.0,-1.0,[],,,-1,1000.0,"<div class = bigbox><div class = centerbox><div class = cue-text><img class = center src=""/static/experiments/stop_signal_with_directed_forgetting/images/BOT.png""></img></font></div></div></div>",,,,144069232,0.0,,cue,103,poldrack-single-stim,
104,,,,,,2000.0,,,,,,,,stop_signal_with_directed_forgetting,,,,,,0.0-3.0-16.0,-1.0,none,,,-1,2000.0,"<div class = centerbox><div class = fixation><span style=""color:white"">+</span></div></div>",,,,144071234,0.0,,fixation,104,poldrack-single-stim,
105,350.0,500.0,"<div class = bigbox><div class = starbox><img class = center src=""/static/experiments/stop_signal_with_directed_forgetting/images/stopSignal.png""></img></div></div>",go,,1000.0,"['K', 'U']",90.0,1.0,BOT,0.0,3.0,con,stop_signal_with_directed_forgetting,,,,,,0.0-3.0-17.0,90.0,"[77, 90]",F,,987,1000.0,"<div class = bigbox><div class = centerbox><div class = cue-text><img class = center src=""/static/experiments/stop_signal_with_directed_forgetting/images/F.png""></img></font></div></div></div>",,go,,144072236,0.0,"['N', 'P']",test_trial,105,stop-signal,
106,,,,,,1000.0,,,,,,,,stop_signal_with_directed_forgetting,,,,,,0.0-3.0-18.0,-1.0,"[77, 90]",,,-1,1000.0,,,,,144073238,0.0,,ITI_fixation,106,poldrack-single-stim,
107,,,,,,500.0,,,,,,,,stop_signal_with_directed_forgetting,,,,,,0.0-3.0-19.0,-1.0,none,,,-1,500.0,"<div class = centerbox><div class = fixation><span style=""color:white"">+</span></div></div>",,,,144073740,0.0,,fixation,107,poldrack-single-stim,
108,,,,,,2000.0,,,,,,,,stop_signal_with_directed_forgetting,,,,,,0.0-3.0-20.0,-1.0,none,,,-1,2000.0,"<div class = bigbox><div class = topLeft><div class = cue-text><img class = center src=""/static/experiments/stop_signal_with_directed_forgetting/images/G.png""></img></div></div><div class = topMiddle><div class = cue-text></div></div><div class = topRight><div class = cue-text><img class = center src=""/static/experiments/stop_signal_with_directed_forgetting/images/L.png""></img></div></div><div class = bottomLeft><div class = cue-text><img class = center src=""/static/experiments/stop_signal_with_directed_forgetting/images/E.png""></img></div></div><div class = bottomMiddle><div class = cue-text></div></div><div class = bottomRight><div class = cue-text><img class = center src=""/static/experiments/stop_signal_with_directed_forgetting/images/C.png""></img></div></div></div>",,,,144075742,0.0,,stim,108,poldrack-single-stim,
109,,,,,,1000.0,,,,,,,,stop_signal_with_directed_forgetting,,,,,,0.0-3.0-21.0,-1.0,[],,,-1,1000.0,"<div class = bigbox><div class = centerbox><div class = cue-text><img class = center src=""/static/experiments/stop_signal_with_directed_forgetting/images/TOP.png""></img></font></div></div></div>",,,,144076744,0.0,,cue,109,poldrack-single-stim,
110,,,,,,2000.0,,,,,,,,stop_signal_with_directed_forgetting,,,,,,0.0-3.0-22.0,-1.0,none,,,-1,2000.0,"<div class = centerbox><div class = fixation><span style=""color:white"">+</span></div></div>",,,,144078746,0.0,,fixation,110,poldrack-single-stim,
111,350.0,500.0,"<div class = bigbox><div class = starbox><img class = center src=""/static/experiments/stop_signal_with_directed_forgetting/images/stopSignal.png""></img></div></div>",go,,1000.0,"['E', 'C']",77.0,1.0,TOP,0.0,4.0,pos,stop_signal_with_directed_forgetting,,,,,,0.0-3.0-23.0,77.0,"[77, 90]",C,,709,1000.0,"<div class = bigbox><div class = centerbox><div class = cue-text><img class = center src=""/static/experiments/stop_signal_with_directed_forgetting/images/C.png""></img></font></div></div></div>",,go,,144079748,0.0,"['G', 'L']",test_trial,111,stop-signal,
112,,,,,,1000.0,,,,,,,,stop_signal_with_directed_forgetting,,,,,,0.0-3.0-24.0,-1.0,"[77, 90]",,,-1,1000.0,,,,,144080752,0.0,,ITI_fixation,112,poldrack-single-stim,
113,,,,,,500.0,,,,,,,,stop_signal_with_directed_forgetting,,,,,,0.0-3.0-25.0,-1.0,none,,,-1,500.0,"<div class = centerbox><div class = fixation><span style=""color:white"">+</span></div></div>",,,,144081254,0.0,,fixation,113,poldrack-single-stim,
114,,,,,,2000.0,,,,,,,,stop_signal_with_directed_forgetting,,,,,,0.0-3.0-26.0,-1.0,none,,,-1,2000.0,"<div class = bigbox><div class = topLeft><div class = cue-text><img class = center src=""/static/experiments/stop_signal_with_directed_forgetting/images/O.png""></img></div></div><div class = topMiddle><div class = cue-text></div></div><div class = topRight><div class = cue-text><img class = center src=""/static/experiments/stop_signal_with_directed_forgetting/images/D.png""></img></div></div><div class = bottomLeft><div class = cue-text><img class = center src=""/static/experiments/stop_signal_with_directed_forgetting/images/M.png""></img></div></div><div class = bottomMiddle><div class = cue-text></div></div><div class = bottomRight><div class = cue-text><img class = center src=""/static/experiments/stop_signal_with_directed_forgetting/images/H.png""></img></div></div></div>",,,,144083257,0.0,,stim,114,poldrack-single-stim,
115,,,,,,1000.0,,,,,,,,stop_signal_with_directed_forgetting,,,,,,0.0-3.0-27.0,-1.0,[],,,-1,1000.0,"<div class = bigbox><div class = centerbox><div class = cue-text><img class = center src=""/static/experiments/stop_signal_with_directed_forgetting/images/BOT.png""></img></font></div></div></div>",,,,144084259,0.0,,cue,115,poldrack-single-stim,
116,,,,,,2000.0,,,,,,,,stop_signal_with_directed_forgetting,,,,,,0.0-3.0-28.0,-1.0,none,,,-1,2000.0,"<div class = centerbox><div class = fixation><span style=""color:white"">+</span></div></div>",,,,144086261,0.0,,fixation,116,poldrack-single-stim,
117,350.0,500.0,"<div class = bigbox><div class = starbox><img class = center src=""/static/experiments/stop_signal_with_directed_forgetting/images/stopSignal.png""></img></div></div>",go,,1000.0,"['M', 'H']",90.0,1.0,BOT,0.0,5.0,neg,stop_signal_with_directed_forgetting,,,,,,0.0-3.0-29.0,90.0,"[77, 90]",M,,606,1000.0,"<div class = bigbox><div class = centerbox><div class = cue-text><img class = center src=""/static/experiments/stop_signal_with_directed_forgetting/images/M.png""></img></font></div></div></div>",,go,,144087263,0.0,"['O', 'D']",test_trial,117,stop-signal,
118,,,,,,1000.0,,,,,,,,stop_signal_with_directed_forgetting,,,,,,0.0-3.0-30.0,-1.0,"[77, 90]",,,-1,1000.0,,,,,144088265,0.0,,ITI_fixation,118,poldrack-single-stim,
119,,,,,,500.0,,,,,,,,stop_signal_with_directed_forgetting,,,,,,0.0-3.0-31.0,-1.0,none,,,-1,500.0,"<div class = centerbox><div class = fixation><span style=""color:white"">+</span></div></div>",,,,144088767,0.0,,fixation,119,poldrack-single-stim,
120,,,,,,2000.0,,,,,,,,stop_signal_with_directed_forgetting,,,,,,0.0-3.0-32.0,-1.0,none,,,-1,2000.0,"<div class = bigbox><div class = topLeft><div class = cue-text><img class = center src=""/static/experiments/stop_signal_with_directed_forgetting/images/S.png""></img></div></div><div class = topMiddle><div class = cue-text></div></div><div class = topRight><div class = cue-text><img class = center src=""/static/experiments/stop_signal_with_directed_forgetting/images/N.png""></img></div></div><div class = bottomLeft><div class = cue-text><img class = center src=""/static/experiments/stop_signal_with_directed_forgetting/images/K.png""></img></div></div><div class = bottomMiddle><div class = cue-text></div></div><div class = bottomRight><div class = cue-text><img class = center src=""/static/experiments/stop_signal_with_directed_forgetting/images/P.png""></img></div></div></div>",,,,144090769,0.0,,stim,120,poldrack-single-stim,
121,,,,,,1000.0,,,,,,,,stop_signal_with_directed_forgetting,,,,,,0.0-3.0-33.0,-1.0,[],,,-1,1000.0,"<div class = bigbox><div class = centerbox><div class = cue-text><img class = center src=""/static/experiments/stop_signal_with_directed_forgetting/images/BOT.png""></img></font></div></div></div>",,,,144091772,0.0,,cue,121,poldrack-single-stim,
122,,,,,,2000.0,,,,,,,,stop_signal_with_directed_forgetting,,,,,,0.0-3.0-34.0,-1.0,none,,,-1,2000.0,"<div class = centerbox><div class = fixation><span style=""color:white"">+</span></div></div>",,,,144093774,0.0,,fixation,122,poldrack-single-stim,
123,350.0,500.0,"<div class = bigbox><div class = starbox><img class = center src=""/static/experiments/stop_signal_with_directed_forgetting/images/stopSignal.png""></img></div></div>",go,,1000.0,"['K', 'P']",77.0,0.0,BOT,0.0,6.0,pos,stop_signal_with_directed_forgetting,,,,,,0.0-3.0-35.0,90.0,"[77, 90]",S,,971,1000.0,"<div class = bigbox><div class = centerbox><div class = cue-text><img class = center src=""/static/experiments/stop_signal_with_directed_forgetting/images/S.png""></img></font></div></div></div>",,go,,144094776,0.0,"['S', 'N']",test_trial,123,stop-signal,
124,,,,,,1000.0,,,,,,,,stop_signal_with_directed_forgetting,,,,,,0.0-3.0-36.0,-1.0,"[77, 90]",,,-1,1000.0,,,,,144095778,0.0,,ITI_fixation,124,poldrack-single-stim,
125,,,,,,500.0,,,,,,,,stop_signal_with_directed_forgetting,,,,,,0.0-3.0-37.0,-1.0,none,,,-1,500.0,"<div class = centerbox><div class = fixation><span style=""color:white"">+</span></div></div>",,,,144096280,0.0,,fixation,125,poldrack-single-stim,
126,,,,,,2000.0,,,,,,,,stop_signal_with_directed_forgetting,,,,,,0.0-3.0-38.0,-1.0,none,,,-1,2000.0,"<div class = bigbox><div class = topLeft><div class = cue-text><img class = center src=""/static/experiments/stop_signal_with_directed_forgetting/images/J.png""></img></div></div><div class = topMiddle><div class = cue-text></div></div><div class = topRight><div class = cue-text><img class = center src=""/static/experiments/stop_signal_with_directed_forgetting/images/Q.png""></img></div></div><div class = bottomLeft><div class = cue-text><img class = center src=""/static/experiments/stop_signal_with_directed_forgetting/images/B.png""></img></div></div><div class = bottomMiddle><div class = cue-text></div></div><div class = bottomRight><div class = cue-text><img class = center src=""/static/experiments/stop_signal_with_directed_forgetting/images/F.png""></img></div></div></div>",,,,144098282,0.0,,stim,126,poldrack-single-stim,
127,,,,,,1000.0,,,,,,,,stop_signal_with_directed_forgetting,,,,,,0.0-3.0-39.0,-1.0,[],,,-1,1000.0,"<div class = bigbox><div class = centerbox><div class = cue-text><img class = center src=""/static/experiments/stop_signal_with_directed_forgetting/images/BOT.png""></img></font></div></div></div>",,,,144099284,0.0,,cue,127,poldrack-single-stim,
128,,,,,,2000.0,,,,,,,,stop_signal_with_directed_forgetting,,,,,,0.0-3.0-40.0,-1.0,none,,,-1,2000.0,"<div class = centerbox><div class = fixation><span style=""color:white"">+</span></div></div>",,,,144101288,0.0,,fixation,128,poldrack-single-stim,
129,350.0,500.0,"<div class = bigbox><div class = starbox><img class = center src=""/static/experiments/stop_signal_with_directed_forgetting/images/stopSignal.png""></img></div></div>",stop,,1000.0,"['B', 'F']",-1.0,1.0,BOT,0.0,7.0,pos,stop_signal_with_directed_forgetting,,,,,,0.0-3.0-41.0,-1.0,"[77, 90]",Q,,-1,1000.0,"<div class = bigbox><div class = centerbox><div class = cue-text><img class = center src=""/static/experiments/stop_signal_with_directed_forgetting/images/Q.png""></img></font></div></div></div>",1.0,stop,,144102290,0.0,"['J', 'Q']",test_trial,129,stop-signal,
130,,,,,,1000.0,,,,,,,,stop_signal_with_directed_forgetting,,,,,,0.0-3.0-42.0,-1.0,"[77, 90]",,,-1,1000.0,,,,,144103292,0.0,,ITI_fixation,130,poldrack-single-stim,
131,,,,,,500.0,,,,,,,,stop_signal_with_directed_forgetting,,,,,,0.0-3.0-43.0,-1.0,none,,,-1,500.0,"<div class = centerbox><div class = fixation><span style=""color:white"">+</span></div></div>",,,,144103794,0.0,,fixation,131,poldrack-single-stim,
132,,,,,,2000.0,,,,,,,,stop_signal_with_directed_forgetting,,,,,,0.0-3.0-44.0,-1.0,none,,,-1,2000.0,"<div class = bigbox><div class = topLeft><div class = cue-text><img class = center src=""/static/experiments/stop_signal_with_directed_forgetting/images/G.png""></img></div></div><div class = topMiddle><div class = cue-text></div></div><div class = topRight><div class = cue-text><img class = center src=""/static/experiments/stop_signal_with_directed_forgetting/images/U.png""></img></div></div><div class = bottomLeft><div class = cue-text><img class = center src=""/static/experiments/stop_signal_with_directed_forgetting/images/D.png""></img></div></div><div class = bottomMiddle><div class = cue-text></div></div><div class = bottomRight><div class = cue-text><img class = center src=""/static/experiments/stop_signal_with_directed_forgetting/images/E.png""></img></div></div></div>",,,,144105796,0.0,,stim,132,poldrack-single-stim,
133,,,,,,1000.0,,,,,,,,stop_signal_with_directed_forgetting,,,,,,0.0-3.0-45.0,-1.0,[],,,-1,1000.0,"<div class = bigbox><div class = centerbox><div class = cue-text><img class = center src=""/static/experiments/stop_signal_with_directed_forgetting/images/BOT.png""></img></font></div></div></div>",,,,144106798,0.0,,cue,133,poldrack-single-stim,
134,,,,,,2000.0,,,,,,,,stop_signal_with_directed_forgetting,,,,,,0.0-3.0-46.0,-1.0,none,,,-1,2000.0,"<div class = centerbox><div class = fixation><span style=""color:white"">+</span></div></div>",,,,144108800,0.0,,fixation,134,poldrack-single-stim,
135,400.0,500.0,"<div class = bigbox><div class = starbox><img class = center src=""/static/experiments/stop_signal_with_directed_forgetting/images/stopSignal.png""></img></div></div>",stop,,1000.0,"['D', 'E']",-1.0,0.0,BOT,0.0,8.0,pos,stop_signal_with_directed_forgetting,,,,,,0.0-3.0-47.0,77.0,"[77, 90]",G,,677,1000.0,"<div class = bigbox><div class = centerbox><div class = cue-text><img class = center src=""/static/experiments/stop_signal_with_directed_forgetting/images/G.png""></img></font></div></div></div>",0.0,stop,,144109802,0.0,"['G', 'U']",test_trial,135,stop-signal,
136,,,,,,1000.0,,,,,,,,stop_signal_with_directed_forgetting,,,,,,0.0-3.0-48.0,-1.0,"[77, 90]",,,-1,1000.0,,,,,144110804,0.0,,ITI_fixation,136,poldrack-single-stim,
137,,,,,,500.0,,,,,,,,stop_signal_with_directed_forgetting,,,,,,0.0-3.0-49.0,-1.0,none,,,-1,500.0,"<div class = centerbox><div class = fixation><span style=""color:white"">+</span></div></div>",,,,144111306,0.0,,fixation,137,poldrack-single-stim,
138,,,,,,2000.0,,,,,,,,stop_signal_with_directed_forgetting,,,,,,0.0-3.0-50.0,-1.0,none,,,-1,2000.0,"<div class = bigbox><div class = topLeft><div class = cue-text><img class = center src=""/static/experiments/stop_signal_with_directed_forgetting/images/L.png""></img></div></div><div class = topMiddle><div class = cue-text></div></div><div class = topRight><div class = cue-text><img class = center src=""/static/experiments/stop_signal_with_directed_forgetting/images/S.png""></img></div></div><div class = bottomLeft><div class = cue-text><img class = center src=""/static/experiments/stop_signal_with_directed_forgetting/images/C.png""></img></div></div><div class = bottomMiddle><div class = cue-text></div></div><div class = bottomRight><div class = cue-text><img class = center src=""/static/experiments/stop_signal_with_directed_forgetting/images/N.png""></img></div></div></div>",,,,144113308,0.0,,stim,138,poldrack-single-stim,
139,,,,,,1000.0,,,,,,,,stop_signal_with_directed_forgetting,,,,,,0.0-3.0-51.0,-1.0,[],,,-1,1000.0,"<div class = bigbox><div class = centerbox><div class = cue-text><img class = center src=""/static/experiments/stop_signal_with_directed_forgetting/images/TOP.png""></img></font></div></div></div>",,,,144114310,0.0,,cue,139,poldrack-single-stim,
140,,,,,,2000.0,,,,,,,,stop_signal_with_directed_forgetting,,,,,,0.0-3.0-52.0,-1.0,none,,,-1,2000.0,"<div class = centerbox><div class = fixation><span style=""color:white"">+</span></div></div>",,,,144116312,0.0,,fixation,140,poldrack-single-stim,
141,350.0,500.0,"<div class = bigbox><div class = starbox><img class = center src=""/static/experiments/stop_signal_with_directed_forgetting/images/stopSignal.png""></img></div></div>",go,,1000.0,"['C', 'N']",90.0,1.0,TOP,0.0,9.0,neg,stop_signal_with_directed_forgetting,,,,,,0.0-3.0-53.0,90.0,"[77, 90]",S,,621,1000.0,"<div class = bigbox><div class = centerbox><div class = cue-text><img class = center src=""/static/experiments/stop_signal_with_directed_forgetting/images/S.png""></img></font></div></div></div>",,go,,144117314,0.0,"['L', 'S']",test_trial,141,stop-signal,
142,,,,,,1000.0,,,,,,,,stop_signal_with_directed_forgetting,,,,,,0.0-3.0-54.0,-1.0,"[77, 90]",,,-1,1000.0,,,,,144118316,0.0,,ITI_fixation,142,poldrack-single-stim,
143,,,,,,500.0,,,,,,,,stop_signal_with_directed_forgetting,,,,,,0.0-3.0-55.0,-1.0,none,,,-1,500.0,"<div class = centerbox><div class = fixation><span style=""color:white"">+</span></div></div>",,,,144118818,0.0,,fixation,143,poldrack-single-stim,
144,,,,,,2000.0,,,,,,,,stop_signal_with_directed_forgetting,,,,,,0.0-3.0-56.0,-1.0,none,,,-1,2000.0,"<div class = bigbox><div class = topLeft><div class = cue-text><img class = center src=""/static/experiments/stop_signal_with_directed_forgetting/images/P.png""></img></div></div><div class = topMiddle><div class = cue-text></div></div><div class = topRight><div class = cue-text><img class = center src=""/static/experiments/stop_signal_with_directed_forgetting/images/Q.png""></img></div></div><div class = bottomLeft><div class = cue-text><img class = center src=""/static/experiments/stop_signal_with_directed_forgetting/images/W.png""></img></div></div><div class = bottomMiddle><div class = cue-text></div></div><div class = bottomRight><div class = cue-text><img class = center src=""/static/experiments/stop_signal_with_directed_forgetting/images/X.png""></img></div></div></div>",,,,144120820,0.0,,stim,144,poldrack-single-stim,
145,,,,,,1000.0,,,,,,,,stop_signal_with_directed_forgetting,,,,,,0.0-3.0-57.0,-1.0,[],,,-1,1000.0,"<div class = bigbox><div class = centerbox><div class = cue-text><img class = center src=""/static/experiments/stop_signal_with_directed_forgetting/images/TOP.png""></img></font></div></div></div>",,,,144121823,0.0,,cue,145,poldrack-single-stim,
146,,,,,,2000.0,,,,,,,,stop_signal_with_directed_forgetting,,,,,,0.0-3.0-58.0,-1.0,none,,,-1,2000.0,"<div class = centerbox><div class = fixation><span style=""color:white"">+</span></div></div>",,,,144123825,0.0,,fixation,146,poldrack-single-stim,
147,350.0,500.0,"<div class = bigbox><div class = starbox><img class = center src=""/static/experiments/stop_signal_with_directed_forgetting/images/stopSignal.png""></img></div></div>",go,,1000.0,"['W', 'X']",77.0,1.0,TOP,0.0,10.0,pos,stop_signal_with_directed_forgetting,,,,,,0.0-3.0-59.0,77.0,"[77, 90]",X,,764,1000.0,"<div class = bigbox><div class = centerbox><div class = cue-text><img class = center src=""/static/experiments/stop_signal_with_directed_forgetting/images/X.png""></img></font></div></div></div>",,go,,144124826,0.0,"['P', 'Q']",test_trial,147,stop-signal,
148,,,,,,1000.0,,,,,,,,stop_signal_with_directed_forgetting,,,,,,0.0-3.0-60.0,-1.0,"[77, 90]",,,-1,1000.0,,,,,144125829,0.0,,ITI_fixation,148,poldrack-single-stim,
149,,,,,,500.0,,,,,,,,stop_signal_with_directed_forgetting,,,,,,0.0-3.0-61.0,-1.0,none,,,-1,500.0,"<div class = centerbox><div class = fixation><span style=""color:white"">+</span></div></div>",,,,144126331,0.0,,fixation,149,poldrack-single-stim,
150,,,,,,2000.0,,,,,,,,stop_signal_with_directed_forgetting,,,,,,0.0-3.0-62.0,-1.0,none,,,-1,2000.0,"<div class = bigbox><div class = topLeft><div class = cue-text><img class = center src=""/static/experiments/stop_signal_with_directed_forgetting/images/I.png""></img></div></div><div class = topMiddle><div class = cue-text></div></div><div class = topRight><div class = cue-text><img class = center src=""/static/experiments/stop_signal_with_directed_forgetting/images/K.png""></img></div></div><div class = bottomLeft><div class = cue-text><img class = center src=""/static/experiments/stop_signal_with_directed_forgetting/images/Z.png""></img></div></div><div class = bottomMiddle><div class = cue-text></div></div><div class = bottomRight><div class = cue-text><img class = center src=""/static/experiments/stop_signal_with_directed_forgetting/images/Y.png""></img></div></div></div>",,,,144128333,0.0,,stim,150,poldrack-single-stim,
151,,,,,,1000.0,,,,,,,,stop_signal_with_directed_forgetting,,,,,,0.0-3.0-63.0,-1.0,[],,,-1,1000.0,"<div class = bigbox><div class = centerbox><div class = cue-text><img class = center src=""/static/experiments/stop_signal_with_directed_forgetting/images/BOT.png""></img></font></div></div></div>",,,,144129335,0.0,,cue,151,poldrack-single-stim,
152,,,,,,2000.0,,,,,,,,stop_signal_with_directed_forgetting,,,,,,0.0-3.0-64.0,-1.0,none,,,-1,2000.0,"<div class = centerbox><div class = fixation><span style=""color:white"">+</span></div></div>",,,,144131337,0.0,,fixation,152,poldrack-single-stim,
153,350.0,500.0,"<div class = bigbox><div class = starbox><img class = center src=""/static/experiments/stop_signal_with_directed_forgetting/images/stopSignal.png""></img></div></div>",go,,1000.0,"['Z', 'Y']",90.0,1.0,BOT,0.0,11.0,con,stop_signal_with_directed_forgetting,,,,,,0.0-3.0-65.0,90.0,"[77, 90]",N,,768,1000.0,"<div class = bigbox><div class = centerbox><div class = cue-text><img class = center src=""/static/experiments/stop_signal_with_directed_forgetting/images/N.png""></img></font></div></div></div>",,go,,144132339,0.0,"['I', 'K']",test_trial,153,stop-signal,
154,,,,,,1000.0,,,,,,,,stop_signal_with_directed_forgetting,,,,,,0.0-3.0-66.0,-1.0,"[77, 90]",,,-1,1000.0,,,,,144133341,0.0,,ITI_fixation,154,poldrack-single-stim,
155,,,,,,500.0,,,,,,,,stop_signal_with_directed_forgetting,,,,,,0.0-3.0-67.0,-1.0,none,,,-1,500.0,"<div class = centerbox><div class = fixation><span style=""color:white"">+</span></div></div>",,,,144133843,0.0,,fixation,155,poldrack-single-stim,
156,,,,,,2000.0,,,,,,,,stop_signal_with_directed_forgetting,,,,,,0.0-3.0-68.0,-1.0,none,,,-1,2000.0,"<div class = bigbox><div class = topLeft><div class = cue-text><img class = center src=""/static/experiments/stop_signal_with_directed_forgetting/images/H.png""></img></div></div><div class = topMiddle><div class = cue-text></div></div><div class = topRight><div class = cue-text><img class = center src=""/static/experiments/stop_signal_with_directed_forgetting/images/D.png""></img></div></div><div class = bottomLeft><div class = cue-text><img class = center src=""/static/experiments/stop_signal_with_directed_forgetting/images/M.png""></img></div></div><div class = bottomMiddle><div class = cue-text></div></div><div class = bottomRight><div class = cue-text><img class = center src=""/static/experiments/stop_signal_with_directed_forgetting/images/L.png""></img></div></div></div>",,,,144135845,0.0,,stim,156,poldrack-single-stim,
157,,,,,,1000.0,,,,,,,,stop_signal_with_directed_forgetting,,,,,,0.0-3.0-69.0,-1.0,[],,,-1,1000.0,"<div class = bigbox><div class = centerbox><div class = cue-text><img class = center src=""/static/experiments/stop_signal_with_directed_forgetting/images/TOP.png""></img></font></div></div></div>",,,,144136847,0.0,,cue,157,poldrack-single-stim,
158,,,,,,2000.0,,,,,,,,stop_signal_with_directed_forgetting,,,,,,0.0-3.0-70.0,-1.0,none,,,-1,2000.0,"<div class = centerbox><div class = fixation><span style=""color:white"">+</span></div></div>",,,,144138849,0.0,,fixation,158,poldrack-single-stim,
159,350.0,500.0,"<div class = bigbox><div class = starbox><img class = center src=""/static/experiments/stop_signal_with_directed_forgetting/images/stopSignal.png""></img></div></div>",go,,1000.0,"['M', 'L']",77.0,1.0,TOP,0.0,12.0,pos,stop_signal_with_directed_forgetting,,,,,,0.0-3.0-71.0,77.0,"[77, 90]",M,,797,1000.0,"<div class = bigbox><div class = centerbox><div class = cue-text><img class = center src=""/static/experiments/stop_signal_with_directed_forgetting/images/M.png""></img></font></div></div></div>",,go,,144139851,0.0,"['H', 'D']",test_trial,159,stop-signal,
160,,,,,,1000.0,,,,,,,,stop_signal_with_directed_forgetting,,,,,,0.0-3.0-72.0,-1.0,"[77, 90]",,,-1,1000.0,,,,,144140853,0.0,,ITI_fixation,160,poldrack-single-stim,
161,,,,,,500.0,,,,,,,,stop_signal_with_directed_forgetting,,,,,,0.0-3.0-73.0,-1.0,none,,,-1,500.0,"<div class = centerbox><div class = fixation><span style=""color:white"">+</span></div></div>",,,,144141355,0.0,,fixation,161,poldrack-single-stim,
162,,,,,,2000.0,,,,,,,,stop_signal_with_directed_forgetting,,,,,,0.0-3.0-74.0,-1.0,none,,,-1,2000.0,"<div class = bigbox><div class = topLeft><div class = cue-text><img class = center src=""/static/experiments/stop_signal_with_directed_forgetting/images/G.png""></img></div></div><div class = topMiddle><div class = cue-text></div></div><div class = topRight><div class = cue-text><img class = center src=""/static/experiments/stop_signal_with_directed_forgetting/images/B.png""></img></div></div><div class = bottomLeft><div class = cue-text><img class = center src=""/static/experiments/stop_signal_with_directed_forgetting/images/O.png""></img></div></div><div class = bottomMiddle><div class = cue-text></div></div><div class = bottomRight><div class = cue-text><img class = center src=""/static/experiments/stop_signal_with_directed_forgetting/images/F.png""></img></div></div></div>",,,,144143357,0.0,,stim,162,poldrack-single-stim,
163,,,,,,1000.0,,,,,,,,stop_signal_with_directed_forgetting,,,,,,0.0-3.0-75.0,-1.0,[],,,-1,1000.0,"<div class = bigbox><div class = centerbox><div class = cue-text><img class = center src=""/static/experiments/stop_signal_with_directed_forgetting/images/TOP.png""></img></font></div></div></div>",,,,144144359,0.0,,cue,163,poldrack-single-stim,
164,,,,,,2000.0,,,,,,,,stop_signal_with_directed_forgetting,,,,,,0.0-3.0-76.0,-1.0,none,,,-1,2000.0,"<div class = centerbox><div class = fixation><span style=""color:white"">+</span></div></div>",,,,144146361,0.0,,fixation,164,poldrack-single-stim,
165,350.0,500.0,"<div class = bigbox><div class = starbox><img class = center src=""/static/experiments/stop_signal_with_directed_forgetting/images/stopSignal.png""></img></div></div>",go,,1000.0,"['O', 'F']",90.0,1.0,TOP,0.0,13.0,neg,stop_signal_with_directed_forgetting,,,,,,0.0-3.0-77.0,90.0,"[77, 90]",G,,865,1000.0,"<div class = bigbox><div class = centerbox><div class = cue-text><img class = center src=""/static/experiments/stop_signal_with_directed_forgetting/images/G.png""></img></font></div></div></div>",,go,,144147363,0.0,"['G', 'B']",test_trial,165,stop-signal,
166,,,,,,1000.0,,,,,,,,stop_signal_with_directed_forgetting,,,,,,0.0-3.0-78.0,-1.0,"[77, 90]",,,-1,1000.0,,,,,144148365,0.0,,ITI_fixation,166,poldrack-single-stim,
167,,,,,,500.0,,,,,,,,stop_signal_with_directed_forgetting,,,,,,0.0-3.0-79.0,-1.0,none,,,-1,500.0,"<div class = centerbox><div class = fixation><span style=""color:white"">+</span></div></div>",,,,144148867,0.0,,fixation,167,poldrack-single-stim,
168,,,,,,2000.0,,,,,,,,stop_signal_with_directed_forgetting,,,,,,0.0-3.0-80.0,-1.0,none,,,-1,2000.0,"<div class = bigbox><div class = topLeft><div class = cue-text><img class = center src=""/static/experiments/stop_signal_with_directed_forgetting/images/U.png""></img></div></div><div class = topMiddle><div class = cue-text></div></div><div class = topRight><div class = cue-text><img class = center src=""/static/experiments/stop_signal_with_directed_forgetting/images/I.png""></img></div></div><div class = bottomLeft><div class = cue-text><img class = center src=""/static/experiments/stop_signal_with_directed_forgetting/images/X.png""></img></div></div><div class = bottomMiddle><div class = cue-text></div></div><div class = bottomRight><div class = cue-text><img class = center src=""/static/experiments/stop_signal_with_directed_forgetting/images/A.png""></img></div></div></div>",,,,144150869,0.0,,stim,168,poldrack-single-stim,
169,,,,,,1000.0,,,,,,,,stop_signal_with_directed_forgetting,,,,,,0.0-3.0-81.0,-1.0,[],,,-1,1000.0,"<div class = bigbox><div class = centerbox><div class = cue-text><img class = center src=""/static/experiments/stop_signal_with_directed_forgetting/images/TOP.png""></img></font></div></div></div>",,,,144151871,0.0,,cue,169,poldrack-single-stim,
170,,,,,,2000.0,,,,,,,,stop_signal_with_directed_forgetting,,,,,,0.0-3.0-82.0,-1.0,none,,,-1,2000.0,"<div class = centerbox><div class = fixation><span style=""color:white"">+</span></div></div>",,,,144153873,0.0,,fixation,170,poldrack-single-stim,
171,350.0,500.0,"<div class = bigbox><div class = starbox><img class = center src=""/static/experiments/stop_signal_with_directed_forgetting/images/stopSignal.png""></img></div></div>",go,,1000.0,"['X', 'A']",90.0,1.0,TOP,0.0,14.0,con,stop_signal_with_directed_forgetting,,,,,,0.0-3.0-83.0,90.0,"[77, 90]",V,,774,1000.0,"<div class = bigbox><div class = centerbox><div class = cue-text><img class = center src=""/static/experiments/stop_signal_with_directed_forgetting/images/V.png""></img></font></div></div></div>",,go,,144154875,0.0,"['U', 'I']",test_trial,171,stop-signal,
172,,,,,,1000.0,,,,,,,,stop_signal_with_directed_forgetting,,,,,,0.0-3.0-84.0,-1.0,"[77, 90]",,,-1,1000.0,,,,,144155877,0.0,,ITI_fixation,172,poldrack-single-stim,
173,,,,,,500.0,,,,,,,,stop_signal_with_directed_forgetting,,,,,,0.0-3.0-85.0,-1.0,none,,,-1,500.0,"<div class = centerbox><div class = fixation><span style=""color:white"">+</span></div></div>",,,,144156379,0.0,,fixation,173,poldrack-single-stim,
174,,,,,,2000.0,,,,,,,,stop_signal_with_directed_forgetting,,,,,,0.0-3.0-86.0,-1.0,none,,,-1,2000.0,"<div class = bigbox><div class = topLeft><div class = cue-text><img class = center src=""/static/experiments/stop_signal_with_directed_forgetting/images/N.png""></img></div></div><div class = topMiddle><div class = cue-text></div></div><div class = topRight><div class = cue-text><img class = center src=""/static/experiments/stop_signal_with_directed_forgetting/images/Z.png""></img></div></div><div class = bottomLeft><div class = cue-text><img class = center src=""/static/experiments/stop_signal_with_directed_forgetting/images/S.png""></img></div></div><div class = bottomMiddle><div class = cue-text></div></div><div class = bottomRight><div class = cue-text><img class = center src=""/static/experiments/stop_signal_with_directed_forgetting/images/K.png""></img></div></div></div>",,,,144158382,0.0,,stim,174,poldrack-single-stim,
175,,,,,,1000.0,,,,,,,,stop_signal_with_directed_forgetting,,,,,,0.0-3.0-87.0,-1.0,[],,,-1,1000.0,"<div class = bigbox><div class = centerbox><div class = cue-text><img class = center src=""/static/experiments/stop_signal_with_directed_forgetting/images/BOT.png""></img></font></div></div></div>",,,,144159385,0.0,,cue,175,poldrack-single-stim,
176,,,,,,2000.0,,,,,,,,stop_signal_with_directed_forgetting,,,,,,0.0-3.0-88.0,-1.0,none,,,-1,2000.0,"<div class = centerbox><div class = fixation><span style=""color:white"">+</span></div></div>",,,,144161388,0.0,,fixation,176,poldrack-single-stim,
177,350.0,500.0,"<div class = bigbox><div class = starbox><img class = center src=""/static/experiments/stop_signal_with_directed_forgetting/images/stopSignal.png""></img></div></div>",stop,,1000.0,"['S', 'K']",-1.0,1.0,BOT,0.0,15.0,con,stop_signal_with_directed_forgetting,,,,,,0.0-3.0-89.0,-1.0,"[77, 90]",D,,-1,1000.0,"<div class = bigbox><div class = centerbox><div class = cue-text><img class = center src=""/static/experiments/stop_signal_with_directed_forgetting/images/D.png""></img></font></div></div></div>",1.0,stop,,144162390,0.0,"['N', 'Z']",test_trial,177,stop-signal,
178,,,,,,1000.0,,,,,,,,stop_signal_with_directed_forgetting,,,,,,0.0-3.0-90.0,-1.0,"[77, 90]",,,-1,1000.0,,,,,144163392,0.0,,ITI_fixation,178,poldrack-single-stim,
179,,,,,,500.0,,,,,,,,stop_signal_with_directed_forgetting,,,,,,0.0-3.0-91.0,-1.0,none,,,-1,500.0,"<div class = centerbox><div class = fixation><span style=""color:white"">+</span></div></div>",,,,144163894,0.0,,fixation,179,poldrack-single-stim,
180,,,,,,2000.0,,,,,,,,stop_signal_with_directed_forgetting,,,,,,0.0-3.0-92.0,-1.0,none,,,-1,2000.0,"<div class = bigbox><div class = topLeft><div class = cue-text><img class = center src=""/static/experiments/stop_signal_with_directed_forgetting/images/R.png""></img></div></div><div class = topMiddle><div class = cue-text></div></div><div class = topRight><div class = cue-text><img class = center src=""/static/experiments/stop_signal_with_directed_forgetting/images/D.png""></img></div></div><div class = bottomLeft><div class = cue-text><img class = center src=""/static/experiments/stop_signal_with_directed_forgetting/images/Y.png""></img></div></div><div class = bottomMiddle><div class = cue-text></div></div><div class = bottomRight><div class = cue-text><img class = center src=""/static/experiments/stop_signal_with_directed_forgetting/images/V.png""></img></div></div></div>",,,,144165896,0.0,,stim,180,poldrack-single-stim,
181,,,,,,1000.0,,,,,,,,stop_signal_with_directed_forgetting,,,,,,0.0-3.0-93.0,-1.0,[],,,-1,1000.0,"<div class = bigbox><div class = centerbox><div class = cue-text><img class = center src=""/static/experiments/stop_signal_with_directed_forgetting/images/BOT.png""></img></font></div></div></div>",,,,144166898,0.0,,cue,181,poldrack-single-stim,
182,,,,,,2000.0,,,,,,,,stop_signal_with_directed_forgetting,,,,,,0.0-3.0-94.0,-1.0,none,,,-1,2000.0,"<div class = centerbox><div class = fixation><span style=""color:white"">+</span></div></div>",,,,144168900,0.0,,fixation,182,poldrack-single-stim,
183,400.0,500.0,"<div class = bigbox><div class = starbox><img class = center src=""/static/experiments/stop_signal_with_directed_forgetting/images/stopSignal.png""></img></div></div>",stop,,1000.0,"['Y', 'V']",-1.0,1.0,BOT,0.0,16.0,pos,stop_signal_with_directed_forgetting,,,,,,0.0-3.0-95.0,-1.0,"[77, 90]",D,,-1,1000.0,"<div class = bigbox><div class = centerbox><div class = cue-text><img class = center src=""/static/experiments/stop_signal_with_directed_forgetting/images/D.png""></img></font></div></div></div>",1.0,stop,,144169902,0.0,"['R', 'D']",test_trial,183,stop-signal,
184,,,,,,1000.0,,,,,,,,stop_signal_with_directed_forgetting,,,,,,0.0-3.0-96.0,-1.0,"[77, 90]",,,-1,1000.0,,,,,144170904,0.0,,ITI_fixation,184,poldrack-single-stim,
185,,,,,,500.0,,,,,,,,stop_signal_with_directed_forgetting,,,,,,0.0-3.0-97.0,-1.0,none,,,-1,500.0,"<div class = centerbox><div class = fixation><span style=""color:white"">+</span></div></div>",,,,144171406,0.0,,fixation,185,poldrack-single-stim,
186,,,,,,2000.0,,,,,,,,stop_signal_with_directed_forgetting,,,,,,0.0-3.0-98.0,-1.0,none,,,-1,2000.0,"<div class = bigbox><div class = topLeft><div class = cue-text><img class = center src=""/static/experiments/stop_signal_with_directed_forgetting/images/T.png""></img></div></div><div class = topMiddle><div class = cue-text></div></div><div class = topRight><div class = cue-text><img class = center src=""/static/experiments/stop_signal_with_directed_forgetting/images/A.png""></img></div></div><div class = bottomLeft><div class = cue-text><img class = center src=""/static/experiments/stop_signal_with_directed_forgetting/images/F.png""></img></div></div><div class = bottomMiddle><div class = cue-text></div></div><div class = bottomRight><div class = cue-text><img class = center src=""/static/experiments/stop_signal_with_directed_forgetting/images/G.png""></img></div></div></div>",,,,144173409,0.0,,stim,186,poldrack-single-stim,
187,,,,,,1000.0,,,,,,,,stop_signal_with_directed_forgetting,,,,,,0.0-3.0-99.0,-1.0,[],,,-1,1000.0,"<div class = bigbox><div class = centerbox><div class = cue-text><img class = center src=""/static/experiments/stop_signal_with_directed_forgetting/images/TOP.png""></img></font></div></div></div>",,,,144174410,0.0,,cue,187,poldrack-single-stim,
188,,,,,,2000.0,,,,,,,,stop_signal_with_directed_forgetting,,,,,,0.0-3.0-100.0,-1.0,none,,,-1,2000.0,"<div class = centerbox><div class = fixation><span style=""color:white"">+</span></div></div>",,,,144176413,0.0,,fixation,188,poldrack-single-stim,
189,450.0,500.0,"<div class = bigbox><div class = starbox><img class = center src=""/static/experiments/stop_signal_with_directed_forgetting/images/stopSignal.png""></img></div></div>",stop,,1000.0,"['F', 'G']",-1.0,0.0,TOP,0.0,17.0,con,stop_signal_with_directed_forgetting,,,,,,0.0-3.0-101.0,90.0,"[77, 90]",Z,,577,1000.0,"<div class = bigbox><div class = centerbox><div class = cue-text><img class = center src=""/static/experiments/stop_signal_with_directed_forgetting/images/Z.png""></img></font></div></div></div>",0.0,stop,,144177415,0.0,"['T', 'A']",test_trial,189,stop-signal,
190,,,,,,1000.0,,,,,,,,stop_signal_with_directed_forgetting,,,,,,0.0-3.0-102.0,-1.0,"[77, 90]",,,-1,1000.0,,,,,144178417,0.0,,ITI_fixation,190,poldrack-single-stim,
191,,,,,,500.0,,,,,,,,stop_signal_with_directed_forgetting,,,,,,0.0-3.0-103.0,-1.0,none,,,-1,500.0,"<div class = centerbox><div class = fixation><span style=""color:white"">+</span></div></div>",,,,144178919,0.0,,fixation,191,poldrack-single-stim,
192,,,,,,2000.0,,,,,,,,stop_signal_with_directed_forgetting,,,,,,0.0-3.0-104.0,-1.0,none,,,-1,2000.0,"<div class = bigbox><div class = topLeft><div class = cue-text><img class = center src=""/static/experiments/stop_signal_with_directed_forgetting/images/J.png""></img></div></div><div class = topMiddle><div class = cue-text></div></div><div class = topRight><div class = cue-text><img class = center src=""/static/experiments/stop_signal_with_directed_forgetting/images/U.png""></img></div></div><div class = bottomLeft><div class = cue-text><img class = center src=""/static/experiments/stop_signal_with_directed_forgetting/images/K.png""></img></div></div><div class = bottomMiddle><div class = cue-text></div></div><div class = bottomRight><div class = cue-text><img class = center src=""/static/experiments/stop_signal_with_directed_forgetting/images/W.png""></img></div></div></div>",,,,144180921,0.0,,stim,192,poldrack-single-stim,
193,,,,,,1000.0,,,,,,,,stop_signal_with_directed_forgetting,,,,,,0.0-3.0-105.0,-1.0,[],,,-1,1000.0,"<div class = bigbox><div class = centerbox><div class = cue-text><img class = center src=""/static/experiments/stop_signal_with_directed_forgetting/images/TOP.png""></img></font></div></div></div>",,,,144181923,0.0,,cue,193,poldrack-single-stim,
194,,,,,,2000.0,,,,,,,,stop_signal_with_directed_forgetting,,,,,,0.0-3.0-106.0,-1.0,none,,,-1,2000.0,"<div class = centerbox><div class = fixation><span style=""color:white"">+</span></div></div>",,,,144183925,0.0,,fixation,194,poldrack-single-stim,
195,400.0,500.0,"<div class = bigbox><div class = starbox><img class = center src=""/static/experiments/stop_signal_with_directed_forgetting/images/stopSignal.png""></img></div></div>",stop,,1000.0,"['K', 'W']",-1.0,1.0,TOP,0.0,18.0,neg,stop_signal_with_directed_forgetting,,,,,,0.0-3.0-107.0,-1.0,"[77, 90]",U,,-1,1000.0,"<div class = bigbox><div class = centerbox><div class = cue-text><img class = center src=""/static/experiments/stop_signal_with_directed_forgetting/images/U.png""></img></font></div></div></div>",1.0,stop,,144184927,0.0,"['J', 'U']",test_trial,195,stop-signal,
196,,,,,,1000.0,,,,,,,,stop_signal_with_directed_forgetting,,,,,,0.0-3.0-108.0,-1.0,"[77, 90]",,,-1,1000.0,,,,,144185929,0.0,,ITI_fixation,196,poldrack-single-stim,
197,,,,,,500.0,,,,,,,,stop_signal_with_directed_forgetting,,,,,,0.0-3.0-109.0,-1.0,none,,,-1,500.0,"<div class = centerbox><div class = fixation><span style=""color:white"">+</span></div></div>",,,,144186431,0.0,,fixation,197,poldrack-single-stim,
198,,,,,,2000.0,,,,,,,,stop_signal_with_directed_forgetting,,,,,,0.0-3.0-110.0,-1.0,none,,,-1,2000.0,"<div class = bigbox><div class = topLeft><div class = cue-text><img class = center src=""/static/experiments/stop_signal_with_directed_forgetting/images/S.png""></img></div></div><div class = topMiddle><div class = cue-text></div></div><div class = topRight><div class = cue-text><img class = center src=""/static/experiments/stop_signal_with_directed_forgetting/images/H.png""></img></div></div><div class = bottomLeft><div class = cue-text><img class = center src=""/static/experiments/stop_signal_with_directed_forgetting/images/E.png""></img></div></div><div class = bottomMiddle><div class = cue-text></div></div><div class = bottomRight><div class = cue-text><img class = center src=""/static/experiments/stop_signal_with_directed_forgetting/images/L.png""></img></div></div></div>",,,,144188433,0.0,,stim,198,poldrack-single-stim,
199,,,,,,1000.0,,,,,,,,stop_signal_with_directed_forgetting,,,,,,0.0-3.0-111.0,-1.0,[],,,-1,1000.0,"<div class = bigbox><div class = centerbox><div class = cue-text><img class = center src=""/static/experiments/stop_signal_with_directed_forgetting/images/BOT.png""></img></font></div></div></div>",,,,144189435,0.0,,cue,199,poldrack-single-stim,
200,,,,,,2000.0,,,,,,,,stop_signal_with_directed_forgetting,,,,,,0.0-3.0-112.0,-1.0,none,,,-1,2000.0,"<div class = centerbox><div class = fixation><span style=""color:white"">+</span></div></div>",,,,144191437,0.0,,fixation,200,poldrack-single-stim,
201,450.0,500.0,"<div class = bigbox><div class = starbox><img class = center src=""/static/experiments/stop_signal_with_directed_forgetting/images/stopSignal.png""></img></div></div>",go,,1000.0,"['E', 'L']",77.0,1.0,BOT,0.0,19.0,pos,stop_signal_with_directed_forgetting,,,,,,0.0-3.0-113.0,77.0,"[77, 90]",H,,696,1000.0,"<div class = bigbox><div class = centerbox><div class = cue-text><img class = center src=""/static/experiments/stop_signal_with_directed_forgetting/images/H.png""></img></font></div></div></div>",,go,,144192439,0.0,"['S', 'H']",test_trial,201,stop-signal,
202,,,,,,1000.0,,,,,,,,stop_signal_with_directed_forgetting,,,,,,0.0-3.0-114.0,-1.0,"[77, 90]",,,-1,1000.0,,,,,144193441,0.0,,ITI_fixation,202,poldrack-single-stim,
203,,,,,,500.0,,,,,,,,stop_signal_with_directed_forgetting,,,,,,0.0-3.0-115.0,-1.0,none,,,-1,500.0,"<div class = centerbox><div class = fixation><span style=""color:white"">+</span></div></div>",,,,144193943,0.0,,fixation,203,poldrack-single-stim,
204,,,,,,2000.0,,,,,,,,stop_signal_with_directed_forgetting,,,,,,0.0-3.0-116.0,-1.0,none,,,-1,2000.0,"<div class = bigbox><div class = topLeft><div class = cue-text><img class = center src=""/static/experiments/stop_signal_with_directed_forgetting/images/R.png""></img></div></div><div class = topMiddle><div class = cue-text></div></div><div class = topRight><div class = cue-text><img class = center src=""/static/experiments/stop_signal_with_directed_forgetting/images/X.png""></img></div></div><div class = bottomLeft><div class = cue-text><img class = center src=""/static/experiments/stop_signal_with_directed_forgetting/images/G.png""></img></div></div><div class = bottomMiddle><div class = cue-text></div></div><div class = bottomRight><div class = cue-text><img class = center src=""/static/experiments/stop_signal_with_directed_forgetting/images/I.png""></img></div></div></div>",,,,144195945,0.0,,stim,204,poldrack-single-stim,
205,,,,,,1000.0,,,,,,,,stop_signal_with_directed_forgetting,,,,,,0.0-3.0-117.0,-1.0,[],,,-1,1000.0,"<div class = bigbox><div class = centerbox><div class = cue-text><img class = center src=""/static/experiments/stop_signal_with_directed_forgetting/images/TOP.png""></img></font></div></div></div>",,,,144196947,0.0,,cue,205,poldrack-single-stim,
206,,,,,,2000.0,,,,,,,,stop_signal_with_directed_forgetting,,,,,,0.0-3.0-118.0,-1.0,none,,,-1,2000.0,"<div class = centerbox><div class = fixation><span style=""color:white"">+</span></div></div>",,,,144198949,0.0,,fixation,206,poldrack-single-stim,
207,450.0,500.0,"<div class = bigbox><div class = starbox><img class = center src=""/static/experiments/stop_signal_with_directed_forgetting/images/stopSignal.png""></img></div></div>",stop,,1000.0,"['G', 'I']",-1.0,1.0,TOP,0.0,20.0,neg,stop_signal_with_directed_forgetting,,,,,,0.0-3.0-119.0,-1.0,"[77, 90]",R,,-1,1000.0,"<div class = bigbox><div class = centerbox><div class = cue-text><img class = center src=""/static/experiments/stop_signal_with_directed_forgetting/images/R.png""></img></font></div></div></div>",1.0,stop,,144199951,0.0,"['R', 'X']",test_trial,207,stop-signal,
208,,,,,,1000.0,,,,,,,,stop_signal_with_directed_forgetting,,,,,,0.0-3.0-120.0,-1.0,"[77, 90]",,,-1,1000.0,,,,,144200953,0.0,,ITI_fixation,208,poldrack-single-stim,
209,,,,,,500.0,,,,,,,,stop_signal_with_directed_forgetting,,,,,,0.0-3.0-121.0,-1.0,none,,,-1,500.0,"<div class = centerbox><div class = fixation><span style=""color:white"">+</span></div></div>",,,,144201455,0.0,,fixation,209,poldrack-single-stim,
210,,,,,,2000.0,,,,,,,,stop_signal_with_directed_forgetting,,,,,,0.0-3.0-122.0,-1.0,none,,,-1,2000.0,"<div class = bigbox><div class = topLeft><div class = cue-text><img class = center src=""/static/experiments/stop_signal_with_directed_forgetting/images/P.png""></img></div></div><div class = topMiddle><div class = cue-text></div></div><div class = topRight><div class = cue-text><img class = center src=""/static/experiments/stop_signal_with_directed_forgetting/images/A.png""></img></div></div><div class = bottomLeft><div class = cue-text><img class = center src=""/static/experiments/stop_signal_with_directed_forgetting/images/C.png""></img></div></div><div class = bottomMiddle><div class = cue-text></div></div><div class = bottomRight><div class = cue-text><img class = center src=""/static/experiments/stop_signal_with_directed_forgetting/images/Y.png""></img></div></div></div>",,,,144203458,0.0,,stim,210,poldrack-single-stim,
211,,,,,,1000.0,,,,,,,,stop_signal_with_directed_forgetting,,,,,,0.0-3.0-123.0,-1.0,[],,,-1,1000.0,"<div class = bigbox><div class = centerbox><div class = cue-text><img class = center src=""/static/experiments/stop_signal_with_directed_forgetting/images/TOP.png""></img></font></div></div></div>",,,,144204461,0.0,,cue,211,poldrack-single-stim,
212,,,,,,2000.0,,,,,,,,stop_signal_with_directed_forgetting,,,,,,0.0-3.0-124.0,-1.0,none,,,-1,2000.0,"<div class = centerbox><div class = fixation><span style=""color:white"">+</span></div></div>",,,,144206463,0.0,,fixation,212,poldrack-single-stim,
213,500.0,500.0,"<div class = bigbox><div class = starbox><img class = center src=""/static/experiments/stop_signal_with_directed_forgetting/images/stopSignal.png""></img></div></div>",go,,1000.0,"['C', 'Y']",90.0,1.0,TOP,0.0,21.0,neg,stop_signal_with_directed_forgetting,,,,,,0.0-3.0-125.0,90.0,"[77, 90]",P,,770,1000.0,"<div class = bigbox><div class = centerbox><div class = cue-text><img class = center src=""/static/experiments/stop_signal_with_directed_forgetting/images/P.png""></img></font></div></div></div>",,go,,144207465,0.0,"['P', 'A']",test_trial,213,stop-signal,
214,,,,,,1000.0,,,,,,,,stop_signal_with_directed_forgetting,,,,,,0.0-3.0-126.0,-1.0,"[77, 90]",,,-1,1000.0,,,,,144208467,0.0,,ITI_fixation,214,poldrack-single-stim,
215,,,,,,500.0,,,,,,,,stop_signal_with_directed_forgetting,,,,,,0.0-3.0-127.0,-1.0,none,,,-1,500.0,"<div class = centerbox><div class = fixation><span style=""color:white"">+</span></div></div>",,,,144208969,0.0,,fixation,215,poldrack-single-stim,
216,,,,,,2000.0,,,,,,,,stop_signal_with_directed_forgetting,,,,,,0.0-3.0-128.0,-1.0,none,,,-1,2000.0,"<div class = bigbox><div class = topLeft><div class = cue-text><img class = center src=""/static/experiments/stop_signal_with_directed_forgetting/images/U.png""></img></div></div><div class = topMiddle><div class = cue-text></div></div><div class = topRight><div class = cue-text><img class = center src=""/static/experiments/stop_signal_with_directed_forgetting/images/S.png""></img></div></div><div class = bottomLeft><div class = cue-text><img class = center src=""/static/experiments/stop_signal_with_directed_forgetting/images/Q.png""></img></div></div><div class = bottomMiddle><div class = cue-text></div></div><div class = bottomRight><div class = cue-text><img class = center src=""/static/experiments/stop_signal_with_directed_forgetting/images/V.png""></img></div></div></div>",,,,144210971,0.0,,stim,216,poldrack-single-stim,
217,,,,,,1000.0,,,,,,,,stop_signal_with_directed_forgetting,,,,,,0.0-3.0-129.0,-1.0,[],,,-1,1000.0,"<div class = bigbox><div class = centerbox><div class = cue-text><img class = center src=""/static/experiments/stop_signal_with_directed_forgetting/images/BOT.png""></img></font></div></div></div>",,,,144211973,0.0,,cue,217,poldrack-single-stim,
218,,,,,,2000.0,,,,,,,,stop_signal_with_directed_forgetting,,,,,,0.0-3.0-130.0,-1.0,none,,,-1,2000.0,"<div class = centerbox><div class = fixation><span style=""color:white"">+</span></div></div>",,,,144213975,0.0,,fixation,218,poldrack-single-stim,
219,500.0,500.0,"<div class = bigbox><div class = starbox><img class = center src=""/static/experiments/stop_signal_with_directed_forgetting/images/stopSignal.png""></img></div></div>",stop,,1000.0,"['Q', 'V']",-1.0,0.0,BOT,0.0,22.0,pos,stop_signal_with_directed_forgetting,,,,,,0.0-3.0-131.0,77.0,"[77, 90]",U,,685,1000.0,"<div class = bigbox><div class = centerbox><div class = cue-text><img class = center src=""/static/experiments/stop_signal_with_directed_forgetting/images/U.png""></img></font></div></div></div>",0.0,stop,,144214977,0.0,"['U', 'S']",test_trial,219,stop-signal,
220,,,,,,1000.0,,,,,,,,stop_signal_with_directed_forgetting,,,,,,0.0-3.0-132.0,-1.0,"[77, 90]",,,-1,1000.0,,,,,144215979,0.0,,ITI_fixation,220,poldrack-single-stim,
221,,,,,,500.0,,,,,,,,stop_signal_with_directed_forgetting,,,,,,0.0-3.0-133.0,-1.0,none,,,-1,500.0,"<div class = centerbox><div class = fixation><span style=""color:white"">+</span></div></div>",,,,144216481,0.0,,fixation,221,poldrack-single-stim,
222,,,,,,2000.0,,,,,,,,stop_signal_with_directed_forgetting,,,,,,0.0-3.0-134.0,-1.0,none,,,-1,2000.0,"<div class = bigbox><div class = topLeft><div class = cue-text><img class = center src=""/static/experiments/stop_signal_with_directed_forgetting/images/T.png""></img></div></div><div class = topMiddle><div class = cue-text></div></div><div class = topRight><div class = cue-text><img class = center src=""/static/experiments/stop_signal_with_directed_forgetting/images/H.png""></img></div></div><div class = bottomLeft><div class = cue-text><img class = center src=""/static/experiments/stop_signal_with_directed_forgetting/images/X.png""></img></div></div><div class = bottomMiddle><div class = cue-text></div></div><div class = bottomRight><div class = cue-text><img class = center src=""/static/experiments/stop_signal_with_directed_forgetting/images/E.png""></img></div></div></div>",,,,144218483,0.0,,stim,222,poldrack-single-stim,
223,,,,,,1000.0,,,,,,,,stop_signal_with_directed_forgetting,,,,,,0.0-3.0-135.0,-1.0,[],,,-1,1000.0,"<div class = bigbox><div class = centerbox><div class = cue-text><img class = center src=""/static/experiments/stop_signal_with_directed_forgetting/images/TOP.png""></img></font></div></div></div>",,,,144219485,0.0,,cue,223,poldrack-single-stim,
