,SSD_1,SSD_2,SSD_3,SS_delay,SS_duration,SS_stimulus,SS_trial_type,att_check_percent,block_duration,correct,correct_response,correct_trial,current_block,current_trial,delay,exp_id,final_accuracy,final_avg_rt,final_credit_var,final_missed_percent,final_responses_ok,internal_node_id,key_press,n_back_condition,possible_responses,probe,responses,rt,stim_duration,stimulus,stop_acc,stop_signal_condition,text,time_elapsed,timing_post_trial,trial_id,trial_index,trial_type,view_history
0,,,,,,,,,4435.0,,,,,,,stop_signal_with_n_back,,,,,,0.0-0.0-0.0,13.0,,[13],,,4435,4435.0,"<div class = bigbox><div class = picture_box><p class = block-text><font color=""white"">Welcome to the experiment. This experiment will take about 10 minutes. Press <i>enter</i> to begin.</font></p></div></div>",,,,4438,0.0,practice-no-stop-feedback,0,poldrack-single-stim,
1,,,,,,,,,,,,,,,,stop_signal_with_n_back,,,,,,0.0-0.0-1.0,,,,,,23669,,,,,,28109,,instruction,1,poldrack-instructions,"[{""page_index"":0,""viewing_time"":12004},{""page_index"":1,""viewing_time"":7728},{""page_index"":2,""viewing_time"":3936}]"
2,350.0,350.0,350.0,350.0,500.0,<div class = bigbox><div class = starbox><img class = center src='/static/experiments/stop_signal_with_n_back/images/stopSignal.png'></img></div></div>,go,,2000.0,,90.0,1.0,0.0,1.0,1.0,stop_signal_with_n_back,,,,,,0.0-0.0-2.0,90.0,N/A,"[77, 90]",B,,1106,1000.0,<div class = bigbox><div class = centerbox><div class = gng_number><div class = cue-text><img class = center src='/static/experiments/stop_signal_with_n_back/images/uppercase_B.png'></img></div></div></div></div>,,go,,31120,0.0,practice_trial,2,stop-signal,
3,,,,,,,,,500.0,,,,,,,stop_signal_with_n_back,,,,,,0.0-0.0-3.0,-1.0,,none,,,-1,500.0,"<div class = fb_box><div class = center-text><font size = 20>Correct!</font></div></div><div class = prompt_box><p class = center-block-text style = ""font-size:16px; line-height:80%%;"">Match the current letter to the letter that appeared 1 trial ago</p><p class = center-block-text style = ""font-size:16px; line-height:80%%;"">If they match, press the M Key</p><p class = center-block-text style = ""font-size:16px; line-height:80%%;"">If they mismatch, press the Z Key</p><p class = center-block-text style = ""font-size:16px; line-height:80%%;"">Do not respond if you see a star!</p></div>",,,,31636,0.0,practice-stop-feedback,3,poldrack-single-stim,
4,350.0,350.0,350.0,350.0,500.0,<div class = bigbox><div class = starbox><img class = center src='/static/experiments/stop_signal_with_n_back/images/stopSignal.png'></img></div></div>,stop,,2000.0,,90.0,1.0,0.0,2.0,1.0,stop_signal_with_n_back,,,,,,0.0-0.0-4.0,90.0,mismatch,"[77, 90]",v,,1318,1000.0,<div class = bigbox><div class = centerbox><div class = gng_number><div class = cue-text><img class = center src='/static/experiments/stop_signal_with_n_back/images/lowercase_V.png'></img></div></div></div></div>,0.0,stop,,33642,0.0,practice_trial,4,stop-signal,
5,,,,,,,,,500.0,,,,,,,stop_signal_with_n_back,,,,,,0.0-0.0-5.0,-1.0,,none,,,-1,500.0,"<div class = fb_box><div class = center-text><font size = 20>There was a star.</font></div></div><div class = prompt_box><p class = center-block-text style = ""font-size:16px; line-height:80%%;"">Match the current letter to the letter that appeared 1 trial ago</p><p class = center-block-text style = ""font-size:16px; line-height:80%%;"">If they match, press the M Key</p><p class = center-block-text style = ""font-size:16px; line-height:80%%;"">If they mismatch, press the Z Key</p><p class = center-block-text style = ""font-size:16px; line-height:80%%;"">Do not respond if you see a star!</p></div>",,,,34149,0.0,practice-stop-feedback,5,poldrack-single-stim,
6,300.0,350.0,350.0,300.0,500.0,<div class = bigbox><div class = starbox><img class = center src='/static/experiments/stop_signal_with_n_back/images/stopSignal.png'></img></div></div>,go,,2000.0,,77.0,1.0,0.0,3.0,1.0,stop_signal_with_n_back,,,,,,0.0-0.0-6.0,77.0,match,"[77, 90]",V,,867,1000.0,<div class = bigbox><div class = centerbox><div class = gng_number><div class = cue-text><img class = center src='/static/experiments/stop_signal_with_n_back/images/uppercase_V.png'></img></div></div></div></div>,,go,,36156,0.0,practice_trial,6,stop-signal,
7,,,,,,,,,500.0,,,,,,,stop_signal_with_n_back,,,,,,0.0-0.0-7.0,-1.0,,none,,,-1,500.0,"<div class = fb_box><div class = center-text><font size = 20>Correct!</font></div></div><div class = prompt_box><p class = center-block-text style = ""font-size:16px; line-height:80%%;"">Match the current letter to the letter that appeared 1 trial ago</p><p class = center-block-text style = ""font-size:16px; line-height:80%%;"">If they match, press the M Key</p><p class = center-block-text style = ""font-size:16px; line-height:80%%;"">If they mismatch, press the Z Key</p><p class = center-block-text style = ""font-size:16px; line-height:80%%;"">Do not respond if you see a star!</p></div>",,,,36663,0.0,practice-stop-feedback,7,poldrack-single-stim,
8,300.0,350.0,350.0,300.0,500.0,<div class = bigbox><div class = starbox><img class = center src='/static/experiments/stop_signal_with_n_back/images/stopSignal.png'></img></div></div>,go,,2000.0,,90.0,1.0,0.0,4.0,1.0,stop_signal_with_n_back,,,,,,0.0-0.0-8.0,90.0,mismatch,"[77, 90]",d,,850,1000.0,<div class = bigbox><div class = centerbox><div class = gng_number><div class = cue-text><img class = center src='/static/experiments/stop_signal_with_n_back/images/lowercase_D.png'></img></div></div></div></div>,,go,,38670,0.0,practice_trial,8,stop-signal,
9,,,,,,,,,500.0,,,,,,,stop_signal_with_n_back,,,,,,0.0-0.0-9.0,-1.0,,none,,,-1,500.0,"<div class = fb_box><div class = center-text><font size = 20>Correct!</font></div></div><div class = prompt_box><p class = center-block-text style = ""font-size:16px; line-height:80%%;"">Match the current letter to the letter that appeared 1 trial ago</p><p class = center-block-text style = ""font-size:16px; line-height:80%%;"">If they match, press the M Key</p><p class = center-block-text style = ""font-size:16px; line-height:80%%;"">If they mismatch, press the Z Key</p><p class = center-block-text style = ""font-size:16px; line-height:80%%;"">Do not respond if you see a star!</p></div>",,,,39177,0.0,practice-stop-feedback,9,poldrack-single-stim,
10,300.0,350.0,350.0,300.0,500.0,<div class = bigbox><div class = starbox><img class = center src='/static/experiments/stop_signal_with_n_back/images/stopSignal.png'></img></div></div>,stop,,2000.0,,-1.0,0.0,0.0,5.0,1.0,stop_signal_with_n_back,,,,,,0.0-0.0-10.0,90.0,mismatch,"[77, 90]",V,,909,1000.0,<div class = bigbox><div class = centerbox><div class = gng_number><div class = cue-text><img class = center src='/static/experiments/stop_signal_with_n_back/images/uppercase_V.png'></img></div></div></div></div>,0.0,stop,,41186,0.0,practice_trial,10,stop-signal,
11,,,,,,,,,500.0,,,,,,,stop_signal_with_n_back,,,,,,0.0-0.0-11.0,-1.0,,none,,,-1,500.0,"<div class = fb_box><div class = center-text><font size = 20>There was a star.</font></div></div><div class = prompt_box><p class = center-block-text style = ""font-size:16px; line-height:80%%;"">Match the current letter to the letter that appeared 1 trial ago</p><p class = center-block-text style = ""font-size:16px; line-height:80%%;"">If they match, press the M Key</p><p class = center-block-text style = ""font-size:16px; line-height:80%%;"">If they mismatch, press the Z Key</p><p class = center-block-text style = ""font-size:16px; line-height:80%%;"">Do not respond if you see a star!</p></div>",,,,41693,0.0,practice-stop-feedback,11,poldrack-single-stim,
12,250.0,350.0,350.0,250.0,500.0,<div class = bigbox><div class = starbox><img class = center src='/static/experiments/stop_signal_with_n_back/images/stopSignal.png'></img></div></div>,go,,2000.0,,77.0,1.0,0.0,6.0,1.0,stop_signal_with_n_back,,,,,,0.0-0.0-12.0,77.0,match,"[77, 90]",v,,1019,1000.0,<div class = bigbox><div class = centerbox><div class = gng_number><div class = cue-text><img class = center src='/static/experiments/stop_signal_with_n_back/images/lowercase_V.png'></img></div></div></div></div>,,go,,43701,0.0,practice_trial,12,stop-signal,
13,,,,,,,,,500.0,,,,,,,stop_signal_with_n_back,,,,,,0.0-0.0-13.0,-1.0,,none,,,-1,500.0,"<div class = fb_box><div class = center-text><font size = 20>Correct!</font></div></div><div class = prompt_box><p class = center-block-text style = ""font-size:16px; line-height:80%%;"">Match the current letter to the letter that appeared 1 trial ago</p><p class = center-block-text style = ""font-size:16px; line-height:80%%;"">If they match, press the M Key</p><p class = center-block-text style = ""font-size:16px; line-height:80%%;"">If they mismatch, press the Z Key</p><p class = center-block-text style = ""font-size:16px; line-height:80%%;"">Do not respond if you see a star!</p></div>",,,,44207,0.0,practice-stop-feedback,13,poldrack-single-stim,
14,250.0,350.0,350.0,250.0,500.0,<div class = bigbox><div class = starbox><img class = center src='/static/experiments/stop_signal_with_n_back/images/stopSignal.png'></img></div></div>,stop,,2000.0,,-1.0,1.0,0.0,7.0,1.0,stop_signal_with_n_back,,,,,,0.0-0.0-14.0,-1.0,match,"[77, 90]",v,,-1,1000.0,<div class = bigbox><div class = centerbox><div class = gng_number><div class = cue-text><img class = center src='/static/experiments/stop_signal_with_n_back/images/lowercase_V.png'></img></div></div></div></div>,1.0,stop,,46215,0.0,practice_trial,14,stop-signal,
15,,,,,,,,,500.0,,,,,,,stop_signal_with_n_back,,,,,,0.0-0.0-15.0,-1.0,,none,,,-1,500.0,"<div class = fb_box><div class = center-text><font size = 20>Correct!</font></div></div><div class = prompt_box><p class = center-block-text style = ""font-size:16px; line-height:80%%;"">Match the current letter to the letter that appeared 1 trial ago</p><p class = center-block-text style = ""font-size:16px; line-height:80%%;"">If they match, press the M Key</p><p class = center-block-text style = ""font-size:16px; line-height:80%%;"">If they mismatch, press the Z Key</p><p class = center-block-text style = ""font-size:16px; line-height:80%%;"">Do not respond if you see a star!</p></div>",,,,46723,0.0,practice-stop-feedback,15,poldrack-single-stim,
16,300.0,350.0,350.0,300.0,500.0,<div class = bigbox><div class = starbox><img class = center src='/static/experiments/stop_signal_with_n_back/images/stopSignal.png'></img></div></div>,go,,2000.0,,90.0,1.0,0.0,8.0,1.0,stop_signal_with_n_back,,,,,,0.0-0.0-16.0,90.0,mismatch,"[77, 90]",D,,717,1000.0,<div class = bigbox><div class = centerbox><div class = gng_number><div class = cue-text><img class = center src='/static/experiments/stop_signal_with_n_back/images/uppercase_D.png'></img></div></div></div></div>,,go,,48729,0.0,practice_trial,16,stop-signal,
17,,,,,,,,,500.0,,,,,,,stop_signal_with_n_back,,,,,,0.0-0.0-17.0,-1.0,,none,,,-1,500.0,"<div class = fb_box><div class = center-text><font size = 20>Correct!</font></div></div><div class = prompt_box><p class = center-block-text style = ""font-size:16px; line-height:80%%;"">Match the current letter to the letter that appeared 1 trial ago</p><p class = center-block-text style = ""font-size:16px; line-height:80%%;"">If they match, press the M Key</p><p class = center-block-text style = ""font-size:16px; line-height:80%%;"">If they mismatch, press the Z Key</p><p class = center-block-text style = ""font-size:16px; line-height:80%%;"">Do not respond if you see a star!</p></div>",,,,49235,0.0,practice-stop-feedback,17,poldrack-single-stim,
18,300.0,350.0,350.0,300.0,500.0,<div class = bigbox><div class = starbox><img class = center src='/static/experiments/stop_signal_with_n_back/images/stopSignal.png'></img></div></div>,go,,2000.0,,90.0,1.0,0.0,9.0,1.0,stop_signal_with_n_back,,,,,,0.0-0.0-18.0,90.0,mismatch,"[77, 90]",g,,710,1000.0,<div class = bigbox><div class = centerbox><div class = gng_number><div class = cue-text><img class = center src='/static/experiments/stop_signal_with_n_back/images/lowercase_G.png'></img></div></div></div></div>,,go,,51242,0.0,practice_trial,18,stop-signal,
19,,,,,,,,,500.0,,,,,,,stop_signal_with_n_back,,,,,,0.0-0.0-19.0,-1.0,,none,,,-1,500.0,"<div class = fb_box><div class = center-text><font size = 20>Correct!</font></div></div><div class = prompt_box><p class = center-block-text style = ""font-size:16px; line-height:80%%;"">Match the current letter to the letter that appeared 1 trial ago</p><p class = center-block-text style = ""font-size:16px; line-height:80%%;"">If they match, press the M Key</p><p class = center-block-text style = ""font-size:16px; line-height:80%%;"">If they mismatch, press the Z Key</p><p class = center-block-text style = ""font-size:16px; line-height:80%%;"">Do not respond if you see a star!</p></div>",,,,51746,0.0,practice-stop-feedback,19,poldrack-single-stim,
20,300.0,350.0,350.0,300.0,500.0,<div class = bigbox><div class = starbox><img class = center src='/static/experiments/stop_signal_with_n_back/images/stopSignal.png'></img></div></div>,stop,,2000.0,,-1.0,0.0,0.0,10.0,1.0,stop_signal_with_n_back,,,,,,0.0-0.0-20.0,77.0,match,"[77, 90]",G,,567,1000.0,<div class = bigbox><div class = centerbox><div class = gng_number><div class = cue-text><img class = center src='/static/experiments/stop_signal_with_n_back/images/uppercase_G.png'></img></div></div></div></div>,0.0,stop,,53750,0.0,practice_trial,20,stop-signal,
21,,,,,,,,,500.0,,,,,,,stop_signal_with_n_back,,,,,,0.0-0.0-21.0,-1.0,,none,,,-1,500.0,"<div class = fb_box><div class = center-text><font size = 20>There was a star.</font></div></div><div class = prompt_box><p class = center-block-text style = ""font-size:16px; line-height:80%%;"">Match the current letter to the letter that appeared 1 trial ago</p><p class = center-block-text style = ""font-size:16px; line-height:80%%;"">If they match, press the M Key</p><p class = center-block-text style = ""font-size:16px; line-height:80%%;"">If they mismatch, press the Z Key</p><p class = center-block-text style = ""font-size:16px; line-height:80%%;"">Do not respond if you see a star!</p></div>",,,,54255,0.0,practice-stop-feedback,21,poldrack-single-stim,
22,250.0,350.0,350.0,250.0,500.0,<div class = bigbox><div class = starbox><img class = center src='/static/experiments/stop_signal_with_n_back/images/stopSignal.png'></img></div></div>,stop,,2000.0,,-1.0,1.0,0.0,11.0,1.0,stop_signal_with_n_back,,,,,,0.0-0.0-22.0,-1.0,mismatch,"[77, 90]",T,,-1,1000.0,<div class = bigbox><div class = centerbox><div class = gng_number><div class = cue-text><img class = center src='/static/experiments/stop_signal_with_n_back/images/uppercase_T.png'></img></div></div></div></div>,1.0,stop,,56262,0.0,practice_trial,22,stop-signal,
23,,,,,,,,,500.0,,,,,,,stop_signal_with_n_back,,,,,,0.0-0.0-23.0,-1.0,,none,,,-1,500.0,"<div class = fb_box><div class = center-text><font size = 20>Correct!</font></div></div><div class = prompt_box><p class = center-block-text style = ""font-size:16px; line-height:80%%;"">Match the current letter to the letter that appeared 1 trial ago</p><p class = center-block-text style = ""font-size:16px; line-height:80%%;"">If they match, press the M Key</p><p class = center-block-text style = ""font-size:16px; line-height:80%%;"">If they mismatch, press the Z Key</p><p class = center-block-text style = ""font-size:16px; line-height:80%%;"">Do not respond if you see a star!</p></div>",,,,56769,0.0,practice-stop-feedback,23,poldrack-single-stim,
24,300.0,350.0,350.0,300.0,500.0,<div class = bigbox><div class = starbox><img class = center src='/static/experiments/stop_signal_with_n_back/images/stopSignal.png'></img></div></div>,go,,2000.0,,77.0,1.0,0.0,12.0,1.0,stop_signal_with_n_back,,,,,,0.0-0.0-24.0,77.0,match,"[77, 90]",T,,486,1000.0,<div class = bigbox><div class = centerbox><div class = gng_number><div class = cue-text><img class = center src='/static/experiments/stop_signal_with_n_back/images/uppercase_T.png'></img></div></div></div></div>,,go,,58776,0.0,practice_trial,24,stop-signal,
25,,,,,,,,,500.0,,,,,,,stop_signal_with_n_back,,,,,,0.0-0.0-25.0,-1.0,,none,,,-1,500.0,"<div class = fb_box><div class = center-text><font size = 20>Correct!</font></div></div><div class = prompt_box><p class = center-block-text style = ""font-size:16px; line-height:80%%;"">Match the current letter to the letter that appeared 1 trial ago</p><p class = center-block-text style = ""font-size:16px; line-height:80%%;"">If they match, press the M Key</p><p class = center-block-text style = ""font-size:16px; line-height:80%%;"">If they mismatch, press the Z Key</p><p class = center-block-text style = ""font-size:16px; line-height:80%%;"">Do not respond if you see a star!</p></div>",,,,59282,0.0,practice-stop-feedback,25,poldrack-single-stim,
26,300.0,350.0,350.0,300.0,500.0,<div class = bigbox><div class = starbox><img class = center src='/static/experiments/stop_signal_with_n_back/images/stopSignal.png'></img></div></div>,stop,,2000.0,,-1.0,0.0,0.0,13.0,1.0,stop_signal_with_n_back,,,,,,0.0-0.0-26.0,90.0,mismatch,"[77, 90]",D,,1030,1000.0,<div class = bigbox><div class = centerbox><div class = gng_number><div class = cue-text><img class = center src='/static/experiments/stop_signal_with_n_back/images/uppercase_D.png'></img></div></div></div></div>,0.0,stop,,61289,0.0,practice_trial,26,stop-signal,
27,,,,,,,,,500.0,,,,,,,stop_signal_with_n_back,,,,,,0.0-0.0-27.0,-1.0,,none,,,-1,500.0,"<div class = fb_box><div class = center-text><font size = 20>There was a star.</font></div></div><div class = prompt_box><p class = center-block-text style = ""font-size:16px; line-height:80%%;"">Match the current letter to the letter that appeared 1 trial ago</p><p class = center-block-text style = ""font-size:16px; line-height:80%%;"">If they match, press the M Key</p><p class = center-block-text style = ""font-size:16px; line-height:80%%;"">If they mismatch, press the Z Key</p><p class = center-block-text style = ""font-size:16px; line-height:80%%;"">Do not respond if you see a star!</p></div>",,,,61796,0.0,practice-stop-feedback,27,poldrack-single-stim,
28,250.0,350.0,350.0,250.0,500.0,<div class = bigbox><div class = starbox><img class = center src='/static/experiments/stop_signal_with_n_back/images/stopSignal.png'></img></div></div>,stop,,2000.0,,-1.0,1.0,0.0,14.0,1.0,stop_signal_with_n_back,,,,,,0.0-0.0-28.0,-1.0,mismatch,"[77, 90]",T,,-1,1000.0,<div class = bigbox><div class = centerbox><div class = gng_number><div class = cue-text><img class = center src='/static/experiments/stop_signal_with_n_back/images/uppercase_T.png'></img></div></div></div></div>,1.0,stop,,63800,0.0,practice_trial,28,stop-signal,
29,,,,,,,,,500.0,,,,,,,stop_signal_with_n_back,,,,,,0.0-0.0-29.0,-1.0,,none,,,-1,500.0,"<div class = fb_box><div class = center-text><font size = 20>Correct!</font></div></div><div class = prompt_box><p class = center-block-text style = ""font-size:16px; line-height:80%%;"">Match the current letter to the letter that appeared 1 trial ago</p><p class = center-block-text style = ""font-size:16px; line-height:80%%;"">If they match, press the M Key</p><p class = center-block-text style = ""font-size:16px; line-height:80%%;"">If they mismatch, press the Z Key</p><p class = center-block-text style = ""font-size:16px; line-height:80%%;"">Do not respond if you see a star!</p></div>",,,,64306,0.0,practice-stop-feedback,29,poldrack-single-stim,
30,300.0,350.0,350.0,300.0,500.0,<div class = bigbox><div class = starbox><img class = center src='/static/experiments/stop_signal_with_n_back/images/stopSignal.png'></img></div></div>,go,,2000.0,,90.0,1.0,0.0,15.0,1.0,stop_signal_with_n_back,,,,,,0.0-0.0-30.0,90.0,mismatch,"[77, 90]",v,,653,1000.0,<div class = bigbox><div class = centerbox><div class = gng_number><div class = cue-text><img class = center src='/static/experiments/stop_signal_with_n_back/images/lowercase_V.png'></img></div></div></div></div>,,go,,66312,0.0,practice_trial,30,stop-signal,
31,,,,,,,,,500.0,,,,,,,stop_signal_with_n_back,,,,,,0.0-0.0-31.0,-1.0,,none,,,-1,500.0,"<div class = fb_box><div class = center-text><font size = 20>Correct!</font></div></div><div class = prompt_box><p class = center-block-text style = ""font-size:16px; line-height:80%%;"">Match the current letter to the letter that appeared 1 trial ago</p><p class = center-block-text style = ""font-size:16px; line-height:80%%;"">If they match, press the M Key</p><p class = center-block-text style = ""font-size:16px; line-height:80%%;"">If they mismatch, press the Z Key</p><p class = center-block-text style = ""font-size:16px; line-height:80%%;"">Do not respond if you see a star!</p></div>",,,,66819,0.0,practice-stop-feedback,31,poldrack-single-stim,
32,300.0,350.0,350.0,300.0,500.0,<div class = bigbox><div class = starbox><img class = center src='/static/experiments/stop_signal_with_n_back/images/stopSignal.png'></img></div></div>,go,,2000.0,,77.0,1.0,0.0,16.0,1.0,stop_signal_with_n_back,,,,,,0.0-0.0-32.0,77.0,match,"[77, 90]",v,,732,1000.0,<div class = bigbox><div class = centerbox><div class = gng_number><div class = cue-text><img class = center src='/static/experiments/stop_signal_with_n_back/images/lowercase_V.png'></img></div></div></div></div>,,go,,68825,0.0,practice_trial,32,stop-signal,
33,,,,,,,,,500.0,,,,,,,stop_signal_with_n_back,,,,,,0.0-0.0-33.0,-1.0,,none,,,-1,500.0,"<div class = fb_box><div class = center-text><font size = 20>Correct!</font></div></div><div class = prompt_box><p class = center-block-text style = ""font-size:16px; line-height:80%%;"">Match the current letter to the letter that appeared 1 trial ago</p><p class = center-block-text style = ""font-size:16px; line-height:80%%;"">If they match, press the M Key</p><p class = center-block-text style = ""font-size:16px; line-height:80%%;"">If they mismatch, press the Z Key</p><p class = center-block-text style = ""font-size:16px; line-height:80%%;"">Do not respond if you see a star!</p></div>",,,,69332,0.0,practice-stop-feedback,33,poldrack-single-stim,
34,300.0,350.0,350.0,300.0,500.0,<div class = bigbox><div class = starbox><img class = center src='/static/experiments/stop_signal_with_n_back/images/stopSignal.png'></img></div></div>,stop,,2000.0,,-1.0,1.0,0.0,17.0,1.0,stop_signal_with_n_back,,,,,,0.0-0.0-34.0,-1.0,mismatch,"[77, 90]",G,,-1,1000.0,<div class = bigbox><div class = centerbox><div class = gng_number><div class = cue-text><img class = center src='/static/experiments/stop_signal_with_n_back/images/uppercase_G.png'></img></div></div></div></div>,1.0,stop,,71343,0.0,practice_trial,34,stop-signal,
35,,,,,,,,,500.0,,,,,,,stop_signal_with_n_back,,,,,,0.0-0.0-35.0,-1.0,,none,,,-1,500.0,"<div class = fb_box><div class = center-text><font size = 20>Correct!</font></div></div><div class = prompt_box><p class = center-block-text style = ""font-size:16px; line-height:80%%;"">Match the current letter to the letter that appeared 1 trial ago</p><p class = center-block-text style = ""font-size:16px; line-height:80%%;"">If they match, press the M Key</p><p class = center-block-text style = ""font-size:16px; line-height:80%%;"">If they mismatch, press the Z Key</p><p class = center-block-text style = ""font-size:16px; line-height:80%%;"">Do not respond if you see a star!</p></div>",,,,71849,0.0,practice-stop-feedback,35,poldrack-single-stim,
36,350.0,350.0,350.0,350.0,500.0,<div class = bigbox><div class = starbox><img class = center src='/static/experiments/stop_signal_with_n_back/images/stopSignal.png'></img></div></div>,go,,2000.0,,90.0,0.0,0.0,18.0,1.0,stop_signal_with_n_back,,,,,,0.0-0.0-36.0,77.0,mismatch,"[77, 90]",v,,938,1000.0,<div class = bigbox><div class = centerbox><div class = gng_number><div class = cue-text><img class = center src='/static/experiments/stop_signal_with_n_back/images/lowercase_V.png'></img></div></div></div></div>,,go,,73853,0.0,practice_trial,36,stop-signal,
37,,,,,,,,,500.0,,,,,,,stop_signal_with_n_back,,,,,,0.0-0.0-37.0,-1.0,,none,,,-1,500.0,"<div class = fb_box><div class = center-text><font size = 20>Incorrect</font></div></div><div class = prompt_box><p class = center-block-text style = ""font-size:16px; line-height:80%%;"">Match the current letter to the letter that appeared 1 trial ago</p><p class = center-block-text style = ""font-size:16px; line-height:80%%;"">If they match, press the M Key</p><p class = center-block-text style = ""font-size:16px; line-height:80%%;"">If they mismatch, press the Z Key</p><p class = center-block-text style = ""font-size:16px; line-height:80%%;"">Do not respond if you see a star!</p></div>",,,,74360,0.0,practice-stop-feedback,37,poldrack-single-stim,
38,350.0,350.0,350.0,350.0,500.0,<div class = bigbox><div class = starbox><img class = center src='/static/experiments/stop_signal_with_n_back/images/stopSignal.png'></img></div></div>,go,,2000.0,,90.0,1.0,0.0,19.0,1.0,stop_signal_with_n_back,,,,,,0.0-0.0-38.0,90.0,mismatch,"[77, 90]",d,,839,1000.0,<div class = bigbox><div class = centerbox><div class = gng_number><div class = cue-text><img class = center src='/static/experiments/stop_signal_with_n_back/images/lowercase_D.png'></img></div></div></div></div>,,go,,76370,0.0,practice_trial,38,stop-signal,
39,,,,,,,,,500.0,,,,,,,stop_signal_with_n_back,,,,,,0.0-0.0-39.0,-1.0,,none,,,-1,500.0,"<div class = fb_box><div class = center-text><font size = 20>Correct!</font></div></div><div class = prompt_box><p class = center-block-text style = ""font-size:16px; line-height:80%%;"">Match the current letter to the letter that appeared 1 trial ago</p><p class = center-block-text style = ""font-size:16px; line-height:80%%;"">If they match, press the M Key</p><p class = center-block-text style = ""font-size:16px; line-height:80%%;"">If they mismatch, press the Z Key</p><p class = center-block-text style = ""font-size:16px; line-height:80%%;"">Do not respond if you see a star!</p></div>",,,,76877,0.0,practice-stop-feedback,39,poldrack-single-stim,
40,350.0,350.0,350.0,350.0,500.0,<div class = bigbox><div class = starbox><img class = center src='/static/experiments/stop_signal_with_n_back/images/stopSignal.png'></img></div></div>,go,,2000.0,,90.0,1.0,0.0,20.0,1.0,stop_signal_with_n_back,,,,,,0.0-0.0-40.0,90.0,mismatch,"[77, 90]",t,,1259,1000.0,<div class = bigbox><div class = centerbox><div class = gng_number><div class = cue-text><img class = center src='/static/experiments/stop_signal_with_n_back/images/lowercase_T.png'></img></div></div></div></div>,,go,,78884,0.0,practice_trial,40,stop-signal,
41,,,,,,,,,500.0,,,,,,,stop_signal_with_n_back,,,,,,0.0-0.0-41.0,-1.0,,none,,,-1,500.0,"<div class = fb_box><div class = center-text><font size = 20>Correct!</font></div></div><div class = prompt_box><p class = center-block-text style = ""font-size:16px; line-height:80%%;"">Match the current letter to the letter that appeared 1 trial ago</p><p class = center-block-text style = ""font-size:16px; line-height:80%%;"">If they match, press the M Key</p><p class = center-block-text style = ""font-size:16px; line-height:80%%;"">If they mismatch, press the Z Key</p><p class = center-block-text style = ""font-size:16px; line-height:80%%;"">Do not respond if you see a star!</p></div>",,,,79389,0.0,practice-stop-feedback,41,poldrack-single-stim,
42,350.0,350.0,350.0,350.0,500.0,<div class = bigbox><div class = starbox><img class = center src='/static/experiments/stop_signal_with_n_back/images/stopSignal.png'></img></div></div>,stop,,2000.0,,-1.0,1.0,0.0,21.0,1.0,stop_signal_with_n_back,,,,,,0.0-0.0-42.0,-1.0,mismatch,"[77, 90]",G,,-1,1000.0,<div class = bigbox><div class = centerbox><div class = gng_number><div class = cue-text><img class = center src='/static/experiments/stop_signal_with_n_back/images/uppercase_G.png'></img></div></div></div></div>,1.0,stop,,81392,0.0,practice_trial,42,stop-signal,
43,,,,,,,,,500.0,,,,,,,stop_signal_with_n_back,,,,,,0.0-0.0-43.0,-1.0,,none,,,-1,500.0,"<div class = fb_box><div class = center-text><font size = 20>Correct!</font></div></div><div class = prompt_box><p class = center-block-text style = ""font-size:16px; line-height:80%%;"">Match the current letter to the letter that appeared 1 trial ago</p><p class = center-block-text style = ""font-size:16px; line-height:80%%;"">If they match, press the M Key</p><p class = center-block-text style = ""font-size:16px; line-height:80%%;"">If they mismatch, press the Z Key</p><p class = center-block-text style = ""font-size:16px; line-height:80%%;"">Do not respond if you see a star!</p></div>",,,,81894,0.0,practice-stop-feedback,43,poldrack-single-stim,
44,400.0,350.0,350.0,400.0,500.0,<div class = bigbox><div class = starbox><img class = center src='/static/experiments/stop_signal_with_n_back/images/stopSignal.png'></img></div></div>,stop,,2000.0,,-1.0,0.0,0.0,22.0,1.0,stop_signal_with_n_back,,,,,,0.0-0.0-44.0,90.0,mismatch,"[77, 90]",T,,596,1000.0,<div class = bigbox><div class = centerbox><div class = gng_number><div class = cue-text><img class = center src='/static/experiments/stop_signal_with_n_back/images/uppercase_T.png'></img></div></div></div></div>,0.0,stop,,83896,0.0,practice_trial,44,stop-signal,
45,,,,,,,,,500.0,,,,,,,stop_signal_with_n_back,,,,,,0.0-0.0-45.0,-1.0,,none,,,-1,500.0,"<div class = fb_box><div class = center-text><font size = 20>There was a star.</font></div></div><div class = prompt_box><p class = center-block-text style = ""font-size:16px; line-height:80%%;"">Match the current letter to the letter that appeared 1 trial ago</p><p class = center-block-text style = ""font-size:16px; line-height:80%%;"">If they match, press the M Key</p><p class = center-block-text style = ""font-size:16px; line-height:80%%;"">If they mismatch, press the Z Key</p><p class = center-block-text style = ""font-size:16px; line-height:80%%;"">Do not respond if you see a star!</p></div>",,,,84404,0.0,practice-stop-feedback,45,poldrack-single-stim,
46,350.0,350.0,350.0,350.0,500.0,<div class = bigbox><div class = starbox><img class = center src='/static/experiments/stop_signal_with_n_back/images/stopSignal.png'></img></div></div>,go,,2000.0,,90.0,1.0,0.0,23.0,1.0,stop_signal_with_n_back,,,,,,0.0-0.0-46.0,90.0,mismatch,"[77, 90]",B,,1069,1000.0,<div class = bigbox><div class = centerbox><div class = gng_number><div class = cue-text><img class = center src='/static/experiments/stop_signal_with_n_back/images/uppercase_B.png'></img></div></div></div></div>,,go,,86411,0.0,practice_trial,46,stop-signal,
47,,,,,,,,,500.0,,,,,,,stop_signal_with_n_back,,,,,,0.0-0.0-47.0,-1.0,,none,,,-1,500.0,"<div class = fb_box><div class = center-text><font size = 20>Correct!</font></div></div><div class = prompt_box><p class = center-block-text style = ""font-size:16px; line-height:80%%;"">Match the current letter to the letter that appeared 1 trial ago</p><p class = center-block-text style = ""font-size:16px; line-height:80%%;"">If they match, press the M Key</p><p class = center-block-text style = ""font-size:16px; line-height:80%%;"">If they mismatch, press the Z Key</p><p class = center-block-text style = ""font-size:16px; line-height:80%%;"">Do not respond if you see a star!</p></div>",,,,86920,0.0,practice-stop-feedback,47,poldrack-single-stim,
48,350.0,350.0,350.0,350.0,500.0,<div class = bigbox><div class = starbox><img class = center src='/static/experiments/stop_signal_with_n_back/images/stopSignal.png'></img></div></div>,go,,2000.0,,90.0,1.0,0.0,24.0,1.0,stop_signal_with_n_back,,,,,,0.0-0.0-48.0,90.0,mismatch,"[77, 90]",v,,1039,1000.0,<div class = bigbox><div class = centerbox><div class = gng_number><div class = cue-text><img class = center src='/static/experiments/stop_signal_with_n_back/images/lowercase_V.png'></img></div></div></div></div>,,go,,88927,0.0,practice_trial,48,stop-signal,
49,,,,,,,,,500.0,,,,,,,stop_signal_with_n_back,,,,,,0.0-0.0-49.0,-1.0,,none,,,-1,500.0,"<div class = fb_box><div class = center-text><font size = 20>Correct!</font></div></div><div class = prompt_box><p class = center-block-text style = ""font-size:16px; line-height:80%%;"">Match the current letter to the letter that appeared 1 trial ago</p><p class = center-block-text style = ""font-size:16px; line-height:80%%;"">If they match, press the M Key</p><p class = center-block-text style = ""font-size:16px; line-height:80%%;"">If they mismatch, press the Z Key</p><p class = center-block-text style = ""font-size:16px; line-height:80%%;"">Do not respond if you see a star!</p></div>",,,,89437,0.0,practice-stop-feedback,49,poldrack-single-stim,
50,350.0,350.0,350.0,350.0,500.0,<div class = bigbox><div class = starbox><img class = center src='/static/experiments/stop_signal_with_n_back/images/stopSignal.png'></img></div></div>,go,,2000.0,,90.0,1.0,0.0,25.0,1.0,stop_signal_with_n_back,,,,,,0.0-0.0-50.0,90.0,mismatch,"[77, 90]",B,,1197,1000.0,<div class = bigbox><div class = centerbox><div class = gng_number><div class = cue-text><img class = center src='/static/experiments/stop_signal_with_n_back/images/uppercase_B.png'></img></div></div></div></div>,,go,,91443,0.0,practice_trial,50,stop-signal,
51,,,,,,,,,500.0,,,,,,,stop_signal_with_n_back,,,,,,0.0-0.0-51.0,-1.0,,none,,,-1,500.0,"<div class = fb_box><div class = center-text><font size = 20>Correct!</font></div></div><div class = prompt_box><p class = center-block-text style = ""font-size:16px; line-height:80%%;"">Match the current letter to the letter that appeared 1 trial ago</p><p class = center-block-text style = ""font-size:16px; line-height:80%%;"">If they match, press the M Key</p><p class = center-block-text style = ""font-size:16px; line-height:80%%;"">If they mismatch, press the Z Key</p><p class = center-block-text style = ""font-size:16px; line-height:80%%;"">Do not respond if you see a star!</p></div>",,,,91949,0.0,practice-stop-feedback,51,poldrack-single-stim,
52,350.0,350.0,350.0,350.0,500.0,<div class = bigbox><div class = starbox><img class = center src='/static/experiments/stop_signal_with_n_back/images/stopSignal.png'></img></div></div>,go,,2000.0,,90.0,1.0,0.0,26.0,1.0,stop_signal_with_n_back,,,,,,0.0-0.0-52.0,90.0,mismatch,"[77, 90]",G,,689,1000.0,<div class = bigbox><div class = centerbox><div class = gng_number><div class = cue-text><img class = center src='/static/experiments/stop_signal_with_n_back/images/uppercase_G.png'></img></div></div></div></div>,,go,,93958,0.0,practice_trial,52,stop-signal,
53,,,,,,,,,500.0,,,,,,,stop_signal_with_n_back,,,,,,0.0-0.0-53.0,-1.0,,none,,,-1,500.0,"<div class = fb_box><div class = center-text><font size = 20>Correct!</font></div></div><div class = prompt_box><p class = center-block-text style = ""font-size:16px; line-height:80%%;"">Match the current letter to the letter that appeared 1 trial ago</p><p class = center-block-text style = ""font-size:16px; line-height:80%%;"">If they match, press the M Key</p><p class = center-block-text style = ""font-size:16px; line-height:80%%;"">If they mismatch, press the Z Key</p><p class = center-block-text style = ""font-size:16px; line-height:80%%;"">Do not respond if you see a star!</p></div>",,,,94465,0.0,practice-stop-feedback,53,poldrack-single-stim,
54,350.0,350.0,350.0,350.0,500.0,<div class = bigbox><div class = starbox><img class = center src='/static/experiments/stop_signal_with_n_back/images/stopSignal.png'></img></div></div>,go,,2000.0,,90.0,1.0,0.0,27.0,1.0,stop_signal_with_n_back,,,,,,0.0-0.0-54.0,90.0,mismatch,"[77, 90]",b,,849,1000.0,<div class = bigbox><div class = centerbox><div class = gng_number><div class = cue-text><img class = center src='/static/experiments/stop_signal_with_n_back/images/lowercase_B.png'></img></div></div></div></div>,,go,,96471,0.0,practice_trial,54,stop-signal,
55,,,,,,,,,500.0,,,,,,,stop_signal_with_n_back,,,,,,0.0-0.0-55.0,-1.0,,none,,,-1,500.0,"<div class = fb_box><div class = center-text><font size = 20>Correct!</font></div></div><div class = prompt_box><p class = center-block-text style = ""font-size:16px; line-height:80%%;"">Match the current letter to the letter that appeared 1 trial ago</p><p class = center-block-text style = ""font-size:16px; line-height:80%%;"">If they match, press the M Key</p><p class = center-block-text style = ""font-size:16px; line-height:80%%;"">If they mismatch, press the Z Key</p><p class = center-block-text style = ""font-size:16px; line-height:80%%;"">Do not respond if you see a star!</p></div>",,,,96978,0.0,practice-stop-feedback,55,poldrack-single-stim,
56,350.0,350.0,350.0,350.0,500.0,<div class = bigbox><div class = starbox><img class = center src='/static/experiments/stop_signal_with_n_back/images/stopSignal.png'></img></div></div>,stop,,2000.0,,-1.0,0.0,0.0,28.0,1.0,stop_signal_with_n_back,,,,,,0.0-0.0-56.0,90.0,mismatch,"[77, 90]",G,,1919,1000.0,<div class = bigbox><div class = centerbox><div class = gng_number><div class = cue-text><img class = center src='/static/experiments/stop_signal_with_n_back/images/uppercase_G.png'></img></div></div></div></div>,0.0,stop,,98984,0.0,practice_trial,56,stop-signal,
57,,,,,,,,,500.0,,,,,,,stop_signal_with_n_back,,,,,,0.0-0.0-57.0,-1.0,,none,,,-1,500.0,"<div class = fb_box><div class = center-text><font size = 20>There was a star.</font></div></div><div class = prompt_box><p class = center-block-text style = ""font-size:16px; line-height:80%%;"">Match the current letter to the letter that appeared 1 trial ago</p><p class = center-block-text style = ""font-size:16px; line-height:80%%;"">If they match, press the M Key</p><p class = center-block-text style = ""font-size:16px; line-height:80%%;"">If they mismatch, press the Z Key</p><p class = center-block-text style = ""font-size:16px; line-height:80%%;"">Do not respond if you see a star!</p></div>",,,,99491,0.0,practice-stop-feedback,57,poldrack-single-stim,
58,300.0,350.0,350.0,300.0,500.0,<div class = bigbox><div class = starbox><img class = center src='/static/experiments/stop_signal_with_n_back/images/stopSignal.png'></img></div></div>,go,,2000.0,,90.0,1.0,0.0,29.0,1.0,stop_signal_with_n_back,,,,,,0.0-0.0-58.0,90.0,mismatch,"[77, 90]",b,,1781,1000.0,<div class = bigbox><div class = centerbox><div class = gng_number><div class = cue-text><img class = center src='/static/experiments/stop_signal_with_n_back/images/lowercase_B.png'></img></div></div></div></div>,,go,,101496,0.0,practice_trial,58,stop-signal,
59,,,,,,,,,500.0,,,,,,,stop_signal_with_n_back,,,,,,0.0-0.0-59.0,-1.0,,none,,,-1,500.0,"<div class = fb_box><div class = center-text><font size = 20>Correct!</font></div></div><div class = prompt_box><p class = center-block-text style = ""font-size:16px; line-height:80%%;"">Match the current letter to the letter that appeared 1 trial ago</p><p class = center-block-text style = ""font-size:16px; line-height:80%%;"">If they match, press the M Key</p><p class = center-block-text style = ""font-size:16px; line-height:80%%;"">If they mismatch, press the Z Key</p><p class = center-block-text style = ""font-size:16px; line-height:80%%;"">Do not respond if you see a star!</p></div>",,,,102009,0.0,practice-stop-feedback,59,poldrack-single-stim,
60,300.0,350.0,350.0,300.0,500.0,<div class = bigbox><div class = starbox><img class = center src='/static/experiments/stop_signal_with_n_back/images/stopSignal.png'></img></div></div>,go,,2000.0,,90.0,1.0,0.0,30.0,1.0,stop_signal_with_n_back,,,,,,0.0-0.0-60.0,90.0,mismatch,"[77, 90]",T,,895,1000.0,<div class = bigbox><div class = centerbox><div class = gng_number><div class = cue-text><img class = center src='/static/experiments/stop_signal_with_n_back/images/uppercase_T.png'></img></div></div></div></div>,,go,,104024,0.0,practice_trial,60,stop-signal,
61,,,,,,,,,500.0,,,,,,,stop_signal_with_n_back,,,,,,0.0-0.0-61.0,-1.0,,none,,,-1,500.0,"<div class = fb_box><div class = center-text><font size = 20>Correct!</font></div></div><div class = prompt_box><p class = center-block-text style = ""font-size:16px; line-height:80%%;"">Match the current letter to the letter that appeared 1 trial ago</p><p class = center-block-text style = ""font-size:16px; line-height:80%%;"">If they match, press the M Key</p><p class = center-block-text style = ""font-size:16px; line-height:80%%;"">If they mismatch, press the Z Key</p><p class = center-block-text style = ""font-size:16px; line-height:80%%;"">Do not respond if you see a star!</p></div>",,,,104528,0.0,practice-stop-feedback,61,poldrack-single-stim,
62,300.0,350.0,350.0,300.0,500.0,<div class = bigbox><div class = starbox><img class = center src='/static/experiments/stop_signal_with_n_back/images/stopSignal.png'></img></div></div>,stop,,2000.0,,-1.0,1.0,0.0,31.0,1.0,stop_signal_with_n_back,,,,,,0.0-0.0-62.0,-1.0,mismatch,"[77, 90]",b,,-1,1000.0,<div class = bigbox><div class = centerbox><div class = gng_number><div class = cue-text><img class = center src='/static/experiments/stop_signal_with_n_back/images/lowercase_B.png'></img></div></div></div></div>,1.0,stop,,106534,0.0,practice_trial,62,stop-signal,
63,,,,,,,,,500.0,,,,,,,stop_signal_with_n_back,,,,,,0.0-0.0-63.0,-1.0,,none,,,-1,500.0,"<div class = fb_box><div class = center-text><font size = 20>Correct!</font></div></div><div class = prompt_box><p class = center-block-text style = ""font-size:16px; line-height:80%%;"">Match the current letter to the letter that appeared 1 trial ago</p><p class = center-block-text style = ""font-size:16px; line-height:80%%;"">If they match, press the M Key</p><p class = center-block-text style = ""font-size:16px; line-height:80%%;"">If they mismatch, press the Z Key</p><p class = center-block-text style = ""font-size:16px; line-height:80%%;"">Do not respond if you see a star!</p></div>",,,,107036,0.0,practice-stop-feedback,63,poldrack-single-stim,
64,350.0,350.0,350.0,350.0,500.0,<div class = bigbox><div class = starbox><img class = center src='/static/experiments/stop_signal_with_n_back/images/stopSignal.png'></img></div></div>,go,,2000.0,,90.0,1.0,0.0,32.0,1.0,stop_signal_with_n_back,,,,,,0.0-0.0-64.0,90.0,mismatch,"[77, 90]",v,,962,1000.0,<div class = bigbox><div class = centerbox><div class = gng_number><div class = cue-text><img class = center src='/static/experiments/stop_signal_with_n_back/images/lowercase_V.png'></img></div></div></div></div>,,go,,109042,0.0,practice_trial,64,stop-signal,
65,,,,,,,,,500.0,,,,,,,stop_signal_with_n_back,,,,,,0.0-0.0-65.0,-1.0,,none,,,-1,500.0,"<div class = fb_box><div class = center-text><font size = 20>Correct!</font></div></div><div class = prompt_box><p class = center-block-text style = ""font-size:16px; line-height:80%%;"">Match the current letter to the letter that appeared 1 trial ago</p><p class = center-block-text style = ""font-size:16px; line-height:80%%;"">If they match, press the M Key</p><p class = center-block-text style = ""font-size:16px; line-height:80%%;"">If they mismatch, press the Z Key</p><p class = center-block-text style = ""font-size:16px; line-height:80%%;"">Do not respond if you see a star!</p></div>",,,,109549,0.0,practice-stop-feedback,65,poldrack-single-stim,
66,350.0,350.0,350.0,350.0,500.0,<div class = bigbox><div class = starbox><img class = center src='/static/experiments/stop_signal_with_n_back/images/stopSignal.png'></img></div></div>,go,,2000.0,,90.0,1.0,0.0,33.0,1.0,stop_signal_with_n_back,,,,,,0.0-0.0-66.0,90.0,mismatch,"[77, 90]",T,,756,1000.0,<div class = bigbox><div class = centerbox><div class = gng_number><div class = cue-text><img class = center src='/static/experiments/stop_signal_with_n_back/images/uppercase_T.png'></img></div></div></div></div>,,go,,111554,0.0,practice_trial,66,stop-signal,
67,,,,,,,,,500.0,,,,,,,stop_signal_with_n_back,,,,,,0.0-0.0-67.0,-1.0,,none,,,-1,500.0,"<div class = fb_box><div class = center-text><font size = 20>Correct!</font></div></div><div class = prompt_box><p class = center-block-text style = ""font-size:16px; line-height:80%%;"">Match the current letter to the letter that appeared 1 trial ago</p><p class = center-block-text style = ""font-size:16px; line-height:80%%;"">If they match, press the M Key</p><p class = center-block-text style = ""font-size:16px; line-height:80%%;"">If they mismatch, press the Z Key</p><p class = center-block-text style = ""font-size:16px; line-height:80%%;"">Do not respond if you see a star!</p></div>",,,,112056,0.0,practice-stop-feedback,67,poldrack-single-stim,
68,350.0,350.0,350.0,350.0,500.0,<div class = bigbox><div class = starbox><img class = center src='/static/experiments/stop_signal_with_n_back/images/stopSignal.png'></img></div></div>,go,,2000.0,,77.0,1.0,0.0,34.0,1.0,stop_signal_with_n_back,,,,,,0.0-0.0-68.0,77.0,match,"[77, 90]",T,,609,1000.0,<div class = bigbox><div class = centerbox><div class = gng_number><div class = cue-text><img class = center src='/static/experiments/stop_signal_with_n_back/images/uppercase_T.png'></img></div></div></div></div>,,go,,114059,0.0,practice_trial,68,stop-signal,
69,,,,,,,,,500.0,,,,,,,stop_signal_with_n_back,,,,,,0.0-0.0-69.0,-1.0,,none,,,-1,500.0,"<div class = fb_box><div class = center-text><font size = 20>Correct!</font></div></div><div class = prompt_box><p class = center-block-text style = ""font-size:16px; line-height:80%%;"">Match the current letter to the letter that appeared 1 trial ago</p><p class = center-block-text style = ""font-size:16px; line-height:80%%;"">If they match, press the M Key</p><p class = center-block-text style = ""font-size:16px; line-height:80%%;"">If they mismatch, press the Z Key</p><p class = center-block-text style = ""font-size:16px; line-height:80%%;"">Do not respond if you see a star!</p></div>",,,,114565,0.0,practice-stop-feedback,69,poldrack-single-stim,
70,350.0,350.0,350.0,350.0,500.0,<div class = bigbox><div class = starbox><img class = center src='/static/experiments/stop_signal_with_n_back/images/stopSignal.png'></img></div></div>,stop,,2000.0,,-1.0,0.0,0.0,35.0,1.0,stop_signal_with_n_back,,,,,,0.0-0.0-70.0,90.0,mismatch,"[77, 90]",B,,421,1000.0,<div class = bigbox><div class = centerbox><div class = gng_number><div class = cue-text><img class = center src='/static/experiments/stop_signal_with_n_back/images/uppercase_B.png'></img></div></div></div></div>,0.0,stop,,116571,0.0,practice_trial,70,stop-signal,
71,,,,,,,,,500.0,,,,,,,stop_signal_with_n_back,,,,,,0.0-0.0-71.0,-1.0,,none,,,-1,500.0,"<div class = fb_box><div class = center-text><font size = 20>There was a star.</font></div></div><div class = prompt_box><p class = center-block-text style = ""font-size:16px; line-height:80%%;"">Match the current letter to the letter that appeared 1 trial ago</p><p class = center-block-text style = ""font-size:16px; line-height:80%%;"">If they match, press the M Key</p><p class = center-block-text style = ""font-size:16px; line-height:80%%;"">If they mismatch, press the Z Key</p><p class = center-block-text style = ""font-size:16px; line-height:80%%;"">Do not respond if you see a star!</p></div>",,,,117075,0.0,practice-stop-feedback,71,poldrack-single-stim,
72,300.0,350.0,350.0,300.0,500.0,<div class = bigbox><div class = starbox><img class = center src='/static/experiments/stop_signal_with_n_back/images/stopSignal.png'></img></div></div>,stop,,2000.0,,-1.0,0.0,0.0,36.0,1.0,stop_signal_with_n_back,,,,,,0.0-0.0-72.0,90.0,mismatch,"[77, 90]",d,,551,1000.0,<div class = bigbox><div class = centerbox><div class = gng_number><div class = cue-text><img class = center src='/static/experiments/stop_signal_with_n_back/images/lowercase_D.png'></img></div></div></div></div>,0.0,stop,,119081,0.0,practice_trial,72,stop-signal,
73,,,,,,,,,500.0,,,,,,,stop_signal_with_n_back,,,,,,0.0-0.0-73.0,-1.0,,none,,,-1,500.0,"<div class = fb_box><div class = center-text><font size = 20>There was a star.</font></div></div><div class = prompt_box><p class = center-block-text style = ""font-size:16px; line-height:80%%;"">Match the current letter to the letter that appeared 1 trial ago</p><p class = center-block-text style = ""font-size:16px; line-height:80%%;"">If they match, press the M Key</p><p class = center-block-text style = ""font-size:16px; line-height:80%%;"">If they mismatch, press the Z Key</p><p class = center-block-text style = ""font-size:16px; line-height:80%%;"">Do not respond if you see a star!</p></div>",,,,119587,0.0,practice-stop-feedback,73,poldrack-single-stim,
74,250.0,350.0,350.0,250.0,500.0,<div class = bigbox><div class = starbox><img class = center src='/static/experiments/stop_signal_with_n_back/images/stopSignal.png'></img></div></div>,go,,2000.0,,77.0,0.0,0.0,37.0,1.0,stop_signal_with_n_back,,,,,,0.0-0.0-74.0,90.0,match,"[77, 90]",d,,902,1000.0,<div class = bigbox><div class = centerbox><div class = gng_number><div class = cue-text><img class = center src='/static/experiments/stop_signal_with_n_back/images/lowercase_D.png'></img></div></div></div></div>,,go,,121593,0.0,practice_trial,74,stop-signal,
75,,,,,,,,,500.0,,,,,,,stop_signal_with_n_back,,,,,,0.0-0.0-75.0,-1.0,,none,,,-1,500.0,"<div class = fb_box><div class = center-text><font size = 20>Incorrect</font></div></div><div class = prompt_box><p class = center-block-text style = ""font-size:16px; line-height:80%%;"">Match the current letter to the letter that appeared 1 trial ago</p><p class = center-block-text style = ""font-size:16px; line-height:80%%;"">If they match, press the M Key</p><p class = center-block-text style = ""font-size:16px; line-height:80%%;"">If they mismatch, press the Z Key</p><p class = center-block-text style = ""font-size:16px; line-height:80%%;"">Do not respond if you see a star!</p></div>",,,,122099,0.0,practice-stop-feedback,75,poldrack-single-stim,
76,250.0,350.0,350.0,250.0,500.0,<div class = bigbox><div class = starbox><img class = center src='/static/experiments/stop_signal_with_n_back/images/stopSignal.png'></img></div></div>,go,,2000.0,,90.0,1.0,0.0,38.0,1.0,stop_signal_with_n_back,,,,,,0.0-0.0-76.0,90.0,mismatch,"[77, 90]",v,,910,1000.0,<div class = bigbox><div class = centerbox><div class = gng_number><div class = cue-text><img class = center src='/static/experiments/stop_signal_with_n_back/images/lowercase_V.png'></img></div></div></div></div>,,go,,124106,0.0,practice_trial,76,stop-signal,
77,,,,,,,,,500.0,,,,,,,stop_signal_with_n_back,,,,,,0.0-0.0-77.0,-1.0,,none,,,-1,500.0,"<div class = fb_box><div class = center-text><font size = 20>Correct!</font></div></div><div class = prompt_box><p class = center-block-text style = ""font-size:16px; line-height:80%%;"">Match the current letter to the letter that appeared 1 trial ago</p><p class = center-block-text style = ""font-size:16px; line-height:80%%;"">If they match, press the M Key</p><p class = center-block-text style = ""font-size:16px; line-height:80%%;"">If they mismatch, press the Z Key</p><p class = center-block-text style = ""font-size:16px; line-height:80%%;"">Do not respond if you see a star!</p></div>",,,,124613,0.0,practice-stop-feedback,77,poldrack-single-stim,
78,250.0,350.0,350.0,250.0,500.0,<div class = bigbox><div class = starbox><img class = center src='/static/experiments/stop_signal_with_n_back/images/stopSignal.png'></img></div></div>,go,,2000.0,,90.0,1.0,0.0,39.0,1.0,stop_signal_with_n_back,,,,,,0.0-0.0-78.0,90.0,mismatch,"[77, 90]",g,,725,1000.0,<div class = bigbox><div class = centerbox><div class = gng_number><div class = cue-text><img class = center src='/static/experiments/stop_signal_with_n_back/images/lowercase_G.png'></img></div></div></div></div>,,go,,126617,0.0,practice_trial,78,stop-signal,
79,,,,,,,,,500.0,,,,,,,stop_signal_with_n_back,,,,,,0.0-0.0-79.0,-1.0,,none,,,-1,500.0,"<div class = fb_box><div class = center-text><font size = 20>Correct!</font></div></div><div class = prompt_box><p class = center-block-text style = ""font-size:16px; line-height:80%%;"">Match the current letter to the letter that appeared 1 trial ago</p><p class = center-block-text style = ""font-size:16px; line-height:80%%;"">If they match, press the M Key</p><p class = center-block-text style = ""font-size:16px; line-height:80%%;"">If they mismatch, press the Z Key</p><p class = center-block-text style = ""font-size:16px; line-height:80%%;"">Do not respond if you see a star!</p></div>",,,,127122,0.0,practice-stop-feedback,79,poldrack-single-stim,
80,250.0,350.0,350.0,250.0,500.0,<div class = bigbox><div class = starbox><img class = center src='/static/experiments/stop_signal_with_n_back/images/stopSignal.png'></img></div></div>,stop,,2000.0,,-1.0,1.0,0.0,40.0,1.0,stop_signal_with_n_back,,,,,,0.0-0.0-80.0,-1.0,mismatch,"[77, 90]",B,,-1,1000.0,<div class = bigbox><div class = centerbox><div class = gng_number><div class = cue-text><img class = center src='/static/experiments/stop_signal_with_n_back/images/uppercase_B.png'></img></div></div></div></div>,1.0,stop,,129128,0.0,practice_trial,80,stop-signal,
81,,,,,,,,,500.0,,,,,,,stop_signal_with_n_back,,,,,,0.0-0.0-81.0,-1.0,,none,,,-1,500.0,"<div class = fb_box><div class = center-text><font size = 20>Correct!</font></div></div><div class = prompt_box><p class = center-block-text style = ""font-size:16px; line-height:80%%;"">Match the current letter to the letter that appeared 1 trial ago</p><p class = center-block-text style = ""font-size:16px; line-height:80%%;"">If they match, press the M Key</p><p class = center-block-text style = ""font-size:16px; line-height:80%%;"">If they mismatch, press the Z Key</p><p class = center-block-text style = ""font-size:16px; line-height:80%%;"">Do not respond if you see a star!</p></div>",,,,129634,0.0,practice-stop-feedback,81,poldrack-single-stim,
82,300.0,350.0,350.0,300.0,500.0,<div class = bigbox><div class = starbox><img class = center src='/static/experiments/stop_signal_with_n_back/images/stopSignal.png'></img></div></div>,go,,2000.0,,90.0,1.0,0.0,41.0,1.0,stop_signal_with_n_back,,,,,,0.0-0.0-82.0,90.0,mismatch,"[77, 90]",D,,946,1000.0,<div class = bigbox><div class = centerbox><div class = gng_number><div class = cue-text><img class = center src='/static/experiments/stop_signal_with_n_back/images/uppercase_D.png'></img></div></div></div></div>,,go,,131637,0.0,practice_trial,82,stop-signal,
83,,,,,,,,,500.0,,,,,,,stop_signal_with_n_back,,,,,,0.0-0.0-83.0,-1.0,,none,,,-1,500.0,"<div class = fb_box><div class = center-text><font size = 20>Correct!</font></div></div><div class = prompt_box><p class = center-block-text style = ""font-size:16px; line-height:80%%;"">Match the current letter to the letter that appeared 1 trial ago</p><p class = center-block-text style = ""font-size:16px; line-height:80%%;"">If they match, press the M Key</p><p class = center-block-text style = ""font-size:16px; line-height:80%%;"">If they mismatch, press the Z Key</p><p class = center-block-text style = ""font-size:16px; line-height:80%%;"">Do not respond if you see a star!</p></div>",,,,132142,0.0,practice-stop-feedback,83,poldrack-single-stim,
84,300.0,350.0,350.0,300.0,500.0,<div class = bigbox><div class = starbox><img class = center src='/static/experiments/stop_signal_with_n_back/images/stopSignal.png'></img></div></div>,stop,,2000.0,,-1.0,1.0,0.0,42.0,1.0,stop_signal_with_n_back,,,,,,0.0-0.0-84.0,-1.0,match,"[77, 90]",d,,-1,1000.0,<div class = bigbox><div class = centerbox><div class = gng_number><div class = cue-text><img class = center src='/static/experiments/stop_signal_with_n_back/images/lowercase_D.png'></img></div></div></div></div>,1.0,stop,,134149,0.0,practice_trial,84,stop-signal,
85,,,,,,,,,500.0,,,,,,,stop_signal_with_n_back,,,,,,0.0-0.0-85.0,-1.0,,none,,,-1,500.0,"<div class = fb_box><div class = center-text><font size = 20>Correct!</font></div></div><div class = prompt_box><p class = center-block-text style = ""font-size:16px; line-height:80%%;"">Match the current letter to the letter that appeared 1 trial ago</p><p class = center-block-text style = ""font-size:16px; line-height:80%%;"">If they match, press the M Key</p><p class = center-block-text style = ""font-size:16px; line-height:80%%;"">If they mismatch, press the Z Key</p><p class = center-block-text style = ""font-size:16px; line-height:80%%;"">Do not respond if you see a star!</p></div>",,,,134655,0.0,practice-stop-feedback,85,poldrack-single-stim,
86,350.0,350.0,350.0,350.0,500.0,<div class = bigbox><div class = starbox><img class = center src='/static/experiments/stop_signal_with_n_back/images/stopSignal.png'></img></div></div>,go,,2000.0,,77.0,1.0,0.0,43.0,1.0,stop_signal_with_n_back,,,,,,0.0-0.0-86.0,77.0,match,"[77, 90]",d,,713,1000.0,<div class = bigbox><div class = centerbox><div class = gng_number><div class = cue-text><img class = center src='/static/experiments/stop_signal_with_n_back/images/lowercase_D.png'></img></div></div></div></div>,,go,,136662,0.0,practice_trial,86,stop-signal,
87,,,,,,,,,500.0,,,,,,,stop_signal_with_n_back,,,,,,0.0-0.0-87.0,-1.0,,none,,,-1,500.0,"<div class = fb_box><div class = center-text><font size = 20>Correct!</font></div></div><div class = prompt_box><p class = center-block-text style = ""font-size:16px; line-height:80%%;"">Match the current letter to the letter that appeared 1 trial ago</p><p class = center-block-text style = ""font-size:16px; line-height:80%%;"">If they match, press the M Key</p><p class = center-block-text style = ""font-size:16px; line-height:80%%;"">If they mismatch, press the Z Key</p><p class = center-block-text style = ""font-size:16px; line-height:80%%;"">Do not respond if you see a star!</p></div>",,,,137169,0.0,practice-stop-feedback,87,poldrack-single-stim,
88,350.0,350.0,350.0,350.0,500.0,<div class = bigbox><div class = starbox><img class = center src='/static/experiments/stop_signal_with_n_back/images/stopSignal.png'></img></div></div>,go,,2000.0,,90.0,0.0,0.0,44.0,1.0,stop_signal_with_n_back,,,,,,0.0-0.0-88.0,-1.0,mismatch,"[77, 90]",g,,-1,1000.0,<div class = bigbox><div class = centerbox><div class = gng_number><div class = cue-text><img class = center src='/static/experiments/stop_signal_with_n_back/images/lowercase_G.png'></img></div></div></div></div>,,go,,139178,0.0,practice_trial,88,stop-signal,
89,,,,,,,,,500.0,,,,,,,stop_signal_with_n_back,,,,,,0.0-0.0-89.0,-1.0,,none,,,-1,500.0,"<div class = fb_box><div class = center-text><font size = 20>Respond Faster!</font></div></div><div class = prompt_box><p class = center-block-text style = ""font-size:16px; line-height:80%%;"">Match the current letter to the letter that appeared 1 trial ago</p><p class = center-block-text style = ""font-size:16px; line-height:80%%;"">If they match, press the M Key</p><p class = center-block-text style = ""font-size:16px; line-height:80%%;"">If they mismatch, press the Z Key</p><p class = center-block-text style = ""font-size:16px; line-height:80%%;"">Do not respond if you see a star!</p></div>",,,,139684,0.0,practice-stop-feedback,89,poldrack-single-stim,
90,350.0,350.0,350.0,350.0,500.0,<div class = bigbox><div class = starbox><img class = center src='/static/experiments/stop_signal_with_n_back/images/stopSignal.png'></img></div></div>,go,,2000.0,,90.0,1.0,0.0,45.0,1.0,stop_signal_with_n_back,,,,,,0.0-0.0-90.0,90.0,mismatch,"[77, 90]",B,,644,1000.0,<div class = bigbox><div class = centerbox><div class = gng_number><div class = cue-text><img class = center src='/static/experiments/stop_signal_with_n_back/images/uppercase_B.png'></img></div></div></div></div>,,go,,141690,0.0,practice_trial,90,stop-signal,
91,,,,,,,,,500.0,,,,,,,stop_signal_with_n_back,,,,,,0.0-0.0-91.0,-1.0,,none,,,-1,500.0,"<div class = fb_box><div class = center-text><font size = 20>Correct!</font></div></div><div class = prompt_box><p class = center-block-text style = ""font-size:16px; line-height:80%%;"">Match the current letter to the letter that appeared 1 trial ago</p><p class = center-block-text style = ""font-size:16px; line-height:80%%;"">If they match, press the M Key</p><p class = center-block-text style = ""font-size:16px; line-height:80%%;"">If they mismatch, press the Z Key</p><p class = center-block-text style = ""font-size:16px; line-height:80%%;"">Do not respond if you see a star!</p></div>",,,,142193,0.0,practice-stop-feedback,91,poldrack-single-stim,
92,350.0,350.0,350.0,350.0,500.0,<div class = bigbox><div class = starbox><img class = center src='/static/experiments/stop_signal_with_n_back/images/stopSignal.png'></img></div></div>,go,,2000.0,,90.0,1.0,0.0,46.0,1.0,stop_signal_with_n_back,,,,,,0.0-0.0-92.0,90.0,mismatch,"[77, 90]",v,,560,1000.0,<div class = bigbox><div class = centerbox><div class = gng_number><div class = cue-text><img class = center src='/static/experiments/stop_signal_with_n_back/images/lowercase_V.png'></img></div></div></div></div>,,go,,144197,0.0,practice_trial,92,stop-signal,
93,,,,,,,,,500.0,,,,,,,stop_signal_with_n_back,,,,,,0.0-0.0-93.0,-1.0,,none,,,-1,500.0,"<div class = fb_box><div class = center-text><font size = 20>Correct!</font></div></div><div class = prompt_box><p class = center-block-text style = ""font-size:16px; line-height:80%%;"">Match the current letter to the letter that appeared 1 trial ago</p><p class = center-block-text style = ""font-size:16px; line-height:80%%;"">If they match, press the M Key</p><p class = center-block-text style = ""font-size:16px; line-height:80%%;"">If they mismatch, press the Z Key</p><p class = center-block-text style = ""font-size:16px; line-height:80%%;"">Do not respond if you see a star!</p></div>",,,,144708,0.0,practice-stop-feedback,93,poldrack-single-stim,
94,350.0,350.0,350.0,350.0,500.0,<div class = bigbox><div class = starbox><img class = center src='/static/experiments/stop_signal_with_n_back/images/stopSignal.png'></img></div></div>,go,,2000.0,,90.0,1.0,0.0,47.0,1.0,stop_signal_with_n_back,,,,,,0.0-0.0-94.0,90.0,mismatch,"[77, 90]",d,,890,1000.0,<div class = bigbox><div class = centerbox><div class = gng_number><div class = cue-text><img class = center src='/static/experiments/stop_signal_with_n_back/images/lowercase_D.png'></img></div></div></div></div>,,go,,146716,0.0,practice_trial,94,stop-signal,
95,,,,,,,,,500.0,,,,,,,stop_signal_with_n_back,,,,,,0.0-0.0-95.0,-1.0,,none,,,-1,500.0,"<div class = fb_box><div class = center-text><font size = 20>Correct!</font></div></div><div class = prompt_box><p class = center-block-text style = ""font-size:16px; line-height:80%%;"">Match the current letter to the letter that appeared 1 trial ago</p><p class = center-block-text style = ""font-size:16px; line-height:80%%;"">If they match, press the M Key</p><p class = center-block-text style = ""font-size:16px; line-height:80%%;"">If they mismatch, press the Z Key</p><p class = center-block-text style = ""font-size:16px; line-height:80%%;"">Do not respond if you see a star!</p></div>",,,,147221,0.0,practice-stop-feedback,95,poldrack-single-stim,
96,350.0,350.0,350.0,350.0,500.0,<div class = bigbox><div class = starbox><img class = center src='/static/experiments/stop_signal_with_n_back/images/stopSignal.png'></img></div></div>,go,,2000.0,,90.0,1.0,0.0,48.0,1.0,stop_signal_with_n_back,,,,,,0.0-0.0-96.0,90.0,mismatch,"[77, 90]",g,,595,1000.0,<div class = bigbox><div class = centerbox><div class = gng_number><div class = cue-text><img class = center src='/static/experiments/stop_signal_with_n_back/images/lowercase_G.png'></img></div></div></div></div>,,go,,149228,0.0,practice_trial,96,stop-signal,
97,,,,,,,,,500.0,,,,,,,stop_signal_with_n_back,,,,,,0.0-0.0-97.0,-1.0,,none,,,-1,500.0,"<div class = fb_box><div class = center-text><font size = 20>Correct!</font></div></div><div class = prompt_box><p class = center-block-text style = ""font-size:16px; line-height:80%%;"">Match the current letter to the letter that appeared 1 trial ago</p><p class = center-block-text style = ""font-size:16px; line-height:80%%;"">If they match, press the M Key</p><p class = center-block-text style = ""font-size:16px; line-height:80%%;"">If they mismatch, press the Z Key</p><p class = center-block-text style = ""font-size:16px; line-height:80%%;"">Do not respond if you see a star!</p></div>",,,,149735,0.0,practice-stop-feedback,97,poldrack-single-stim,
98,,,,,,,,,2276.0,,,,,,,stop_signal_with_n_back,,,,,,0.0-1.0,13.0,,[13],,,2276,2276.0,"<div class = bigbox><div class = picture_box><p class = block-text><font color=""white""><br>Please take this time to read your feedback and to take a short break! Press enter to continue.</p><p class = block-text>Done with this practice. Press Enter to continue.</font></p></div></div>",,,,152027,0.0,practice-no-stop-feedback,98,poldrack-single-stim,
99,,,,,,,,,5247.0,,,,,,,stop_signal_with_n_back,,,,,,0.0-2.0,13.0,,,,,5247,,,,,"<div class = centerbox><p class = block-text>We will now begin the test portion.</p><p class = block-text>You will be asked to match the current letter to the letter that appeared either 1, 2, 3 trials ago depending on the delay given to you for that block.</p><p class = block-text>Press the M Key if they match, or the Z Key if they mismatch.</p><p class = block-text>Your delay (the number of trials ago to which you must match the current letter) will change from block to block.</p><p class = block-text>Do not respond if you see a star! You should remember the letter on that trial, however.</p><p class = block-text>Capitalization does not matter, so ""T"" matches with ""t"".</p> <p class = block-text>You will no longer receive the rule prompt, so remember the instructions before you continue. Press Enter to begin.</p></div>",157275,1000.0,instruction,99,poldrack-text,
100,,,,,,,,,3275.0,,,,,,,stop_signal_with_n_back,,,,,,0.0-3.0-0.0,13.0,,[13],,,3275,3275.0,"<div class = bigbox><div class = picture_box><p class = block-text><font color=""white"">Your delay for this block is 3. Please match the current letter to the letter that appeared 3 trial(s) ago. Press enter to begin.</font></p></div></div>",,,,161554,0.0,practice-no-stop-feedback,100,poldrack-single-stim,
101,,,,,,,,,3808.0,True,40.0,,,,,stop_signal_with_n_back,,,,,,0.0-3.0-1.0-0.0,40.0,,[],,,3808,3808.0,<p>Press the arrow key that indicates the direction of the floor when standing.</p>,,,,165365,200.0,attention_check,101,attention-check,
102,350.0,350.0,350.0,350.0,500.0,<div class = bigbox><div class = starbox><img class = center src='/static/experiments/stop_signal_with_n_back/images/stopSignal.png'></img></div></div>,go,,2000.0,,90.0,1.0,0.0,1.0,3.0,stop_signal_with_n_back,,,,,,0.0-3.0-2.0,90.0,N/A,"[77, 90]",v,,1290,1000.0,<div class = bigbox><div class = centerbox><div class = gng_number><div class = cue-text><img class = center src='/static/experiments/stop_signal_with_n_back/images/lowercase_V.png'></img></div></div></div></div>,,go,,167571,0.0,test_trial,102,stop-signal,
103,350.0,350.0,350.0,350.0,500.0,<div class = bigbox><div class = starbox><img class = center src='/static/experiments/stop_signal_with_n_back/images/stopSignal.png'></img></div></div>,stop,,2000.0,,90.0,1.0,0.0,2.0,3.0,stop_signal_with_n_back,,,,,,0.0-3.0-3.0,90.0,N/A,"[77, 90]",V,,574,1000.0,<div class = bigbox><div class = centerbox><div class = gng_number><div class = cue-text><img class = center src='/static/experiments/stop_signal_with_n_back/images/uppercase_V.png'></img></div></div></div></div>,0.0,stop,,169574,0.0,test_trial,103,stop-signal,
104,350.0,350.0,300.0,300.0,500.0,<div class = bigbox><div class = starbox><img class = center src='/static/experiments/stop_signal_with_n_back/images/stopSignal.png'></img></div></div>,stop,,2000.0,,90.0,1.0,0.0,3.0,3.0,stop_signal_with_n_back,,,,,,0.0-3.0-4.0,90.0,N/A,"[77, 90]",T,,763,1000.0,<div class = bigbox><div class = centerbox><div class = gng_number><div class = cue-text><img class = center src='/static/experiments/stop_signal_with_n_back/images/uppercase_T.png'></img></div></div></div></div>,0.0,stop,,171579,0.0,test_trial,104,stop-signal,
105,350.0,350.0,250.0,250.0,500.0,<div class = bigbox><div class = starbox><img class = center src='/static/experiments/stop_signal_with_n_back/images/stopSignal.png'></img></div></div>,stop,,2000.0,,-1.0,0.0,0.0,4.0,3.0,stop_signal_with_n_back,,,,,,0.0-3.0-5.0,90.0,mismatch,"[77, 90]",B,,477,1000.0,<div class = bigbox><div class = centerbox><div class = gng_number><div class = cue-text><img class = center src='/static/experiments/stop_signal_with_n_back/images/uppercase_B.png'></img></div></div></div></div>,0.0,stop,,173582,0.0,test_trial,105,stop-signal,
106,350.0,350.0,200.0,200.0,500.0,<div class = bigbox><div class = starbox><img class = center src='/static/experiments/stop_signal_with_n_back/images/stopSignal.png'></img></div></div>,go,,2000.0,,77.0,1.0,0.0,5.0,3.0,stop_signal_with_n_back,,,,,,0.0-3.0-6.0,77.0,match,"[77, 90]",v,,531,1000.0,<div class = bigbox><div class = centerbox><div class = gng_number><div class = cue-text><img class = center src='/static/experiments/stop_signal_with_n_back/images/lowercase_V.png'></img></div></div></div></div>,,go,,175586,0.0,test_trial,106,stop-signal,
107,350.0,350.0,200.0,200.0,500.0,<div class = bigbox><div class = starbox><img class = center src='/static/experiments/stop_signal_with_n_back/images/stopSignal.png'></img></div></div>,go,,2000.0,,90.0,0.0,0.0,6.0,3.0,stop_signal_with_n_back,,,,,,0.0-3.0-7.0,77.0,mismatch,"[77, 90]",V,,613,1000.0,<div class = bigbox><div class = centerbox><div class = gng_number><div class = cue-text><img class = center src='/static/experiments/stop_signal_with_n_back/images/uppercase_V.png'></img></div></div></div></div>,,go,,177592,0.0,test_trial,107,stop-signal,
108,350.0,350.0,200.0,200.0,500.0,<div class = bigbox><div class = starbox><img class = center src='/static/experiments/stop_signal_with_n_back/images/stopSignal.png'></img></div></div>,go,,2000.0,,77.0,0.0,0.0,7.0,3.0,stop_signal_with_n_back,,,,,,0.0-3.0-8.0,90.0,match,"[77, 90]",B,,1006,1000.0,<div class = bigbox><div class = centerbox><div class = gng_number><div class = cue-text><img class = center src='/static/experiments/stop_signal_with_n_back/images/uppercase_B.png'></img></div></div></div></div>,,go,,179600,0.0,test_trial,108,stop-signal,
109,350.0,350.0,200.0,200.0,500.0,<div class = bigbox><div class = starbox><img class = center src='/static/experiments/stop_signal_with_n_back/images/stopSignal.png'></img></div></div>,go,,2000.0,,90.0,1.0,0.0,8.0,3.0,stop_signal_with_n_back,,,,,,0.0-3.0-9.0,90.0,mismatch,"[77, 90]",D,,800,1000.0,<div class = bigbox><div class = centerbox><div class = gng_number><div class = cue-text><img class = center src='/static/experiments/stop_signal_with_n_back/images/uppercase_D.png'></img></div></div></div></div>,,go,,181605,0.0,test_trial,109,stop-signal,
110,350.0,350.0,200.0,200.0,500.0,<div class = bigbox><div class = starbox><img class = center src='/static/experiments/stop_signal_with_n_back/images/stopSignal.png'></img></div></div>,go,,2000.0,,90.0,0.0,0.0,9.0,3.0,stop_signal_with_n_back,,,,,,0.0-3.0-10.0,77.0,mismatch,"[77, 90]",D,,596,1000.0,<div class = bigbox><div class = centerbox><div class = gng_number><div class = cue-text><img class = center src='/static/experiments/stop_signal_with_n_back/images/uppercase_D.png'></img></div></div></div></div>,,go,,183608,0.0,test_trial,110,stop-signal,
111,350.0,350.0,200.0,200.0,500.0,<div class = bigbox><div class = starbox><img class = center src='/static/experiments/stop_signal_with_n_back/images/stopSignal.png'></img></div></div>,stop,,2000.0,,-1.0,1.0,0.0,10.0,3.0,stop_signal_with_n_back,,,,,,0.0-3.0-11.0,-1.0,mismatch,"[77, 90]",V,,-1,1000.0,<div class = bigbox><div class = centerbox><div class = gng_number><div class = cue-text><img class = center src='/static/experiments/stop_signal_with_n_back/images/uppercase_V.png'></img></div></div></div></div>,1.0,stop,,185613,0.0,test_trial,111,stop-signal,
112,350.0,350.0,250.0,250.0,500.0,<div class = bigbox><div class = starbox><img class = center src='/static/experiments/stop_signal_with_n_back/images/stopSignal.png'></img></div></div>,go,,2000.0,,90.0,1.0,0.0,11.0,3.0,stop_signal_with_n_back,,,,,,0.0-3.0-12.0,90.0,mismatch,"[77, 90]",G,,597,1000.0,<div class = bigbox><div class = centerbox><div class = gng_number><div class = cue-text><img class = center src='/static/experiments/stop_signal_with_n_back/images/uppercase_G.png'></img></div></div></div></div>,,go,,187618,0.0,test_trial,112,stop-signal,
113,350.0,350.0,250.0,250.0,500.0,<div class = bigbox><div class = starbox><img class = center src='/static/experiments/stop_signal_with_n_back/images/stopSignal.png'></img></div></div>,go,,2000.0,,90.0,1.0,0.0,12.0,3.0,stop_signal_with_n_back,,,,,,0.0-3.0-13.0,90.0,mismatch,"[77, 90]",V,,805,1000.0,<div class = bigbox><div class = centerbox><div class = gng_number><div class = cue-text><img class = center src='/static/experiments/stop_signal_with_n_back/images/uppercase_V.png'></img></div></div></div></div>,,go,,189625,0.0,test_trial,113,stop-signal,
114,350.0,350.0,250.0,250.0,500.0,<div class = bigbox><div class = starbox><img class = center src='/static/experiments/stop_signal_with_n_back/images/stopSignal.png'></img></div></div>,go,,2000.0,,90.0,1.0,0.0,13.0,3.0,stop_signal_with_n_back,,,,,,0.0-3.0-14.0,90.0,mismatch,"[77, 90]",G,,967,1000.0,<div class = bigbox><div class = centerbox><div class = gng_number><div class = cue-text><img class = center src='/static/experiments/stop_signal_with_n_back/images/uppercase_G.png'></img></div></div></div></div>,,go,,191633,0.0,test_trial,114,stop-signal,
115,350.0,350.0,250.0,250.0,500.0,<div class = bigbox><div class = starbox><img class = center src='/static/experiments/stop_signal_with_n_back/images/stopSignal.png'></img></div></div>,go,,2000.0,,90.0,0.0,0.0,14.0,3.0,stop_signal_with_n_back,,,,,,0.0-3.0-15.0,77.0,mismatch,"[77, 90]",v,,992,1000.0,<div class = bigbox><div class = centerbox><div class = gng_number><div class = cue-text><img class = center src='/static/experiments/stop_signal_with_n_back/images/lowercase_V.png'></img></div></div></div></div>,,go,,193638,0.0,test_trial,115,stop-signal,
116,350.0,350.0,250.0,250.0,500.0,<div class = bigbox><div class = starbox><img class = center src='/static/experiments/stop_signal_with_n_back/images/stopSignal.png'></img></div></div>,stop,,2000.0,,-1.0,0.0,0.0,15.0,3.0,stop_signal_with_n_back,,,,,,0.0-3.0-16.0,90.0,mismatch,"[77, 90]",B,,1553,1000.0,<div class = bigbox><div class = centerbox><div class = gng_number><div class = cue-text><img class = center src='/static/experiments/stop_signal_with_n_back/images/uppercase_B.png'></img></div></div></div></div>,0.0,stop,,195645,0.0,test_trial,116,stop-signal,
117,350.0,350.0,200.0,200.0,500.0,<div class = bigbox><div class = starbox><img class = center src='/static/experiments/stop_signal_with_n_back/images/stopSignal.png'></img></div></div>,go,,2000.0,,77.0,0.0,0.0,16.0,3.0,stop_signal_with_n_back,,,,,,0.0-3.0-17.0,90.0,match,"[77, 90]",g,,978,1000.0,<div class = bigbox><div class = centerbox><div class = gng_number><div class = cue-text><img class = center src='/static/experiments/stop_signal_with_n_back/images/lowercase_G.png'></img></div></div></div></div>,,go,,197652,0.0,test_trial,117,stop-signal,
118,350.0,350.0,200.0,200.0,500.0,<div class = bigbox><div class = starbox><img class = center src='/static/experiments/stop_signal_with_n_back/images/stopSignal.png'></img></div></div>,go,,2000.0,,77.0,0.0,0.0,17.0,3.0,stop_signal_with_n_back,,,,,,0.0-3.0-18.0,90.0,match,"[77, 90]",v,,923,1000.0,<div class = bigbox><div class = centerbox><div class = gng_number><div class = cue-text><img class = center src='/static/experiments/stop_signal_with_n_back/images/lowercase_V.png'></img></div></div></div></div>,,go,,199658,0.0,test_trial,118,stop-signal,
119,350.0,350.0,200.0,200.0,500.0,<div class = bigbox><div class = starbox><img class = center src='/static/experiments/stop_signal_with_n_back/images/stopSignal.png'></img></div></div>,go,,2000.0,,90.0,1.0,0.0,18.0,3.0,stop_signal_with_n_back,,,,,,0.0-3.0-19.0,90.0,mismatch,"[77, 90]",d,,663,1000.0,<div class = bigbox><div class = centerbox><div class = gng_number><div class = cue-text><img class = center src='/static/experiments/stop_signal_with_n_back/images/lowercase_D.png'></img></div></div></div></div>,,go,,201662,0.0,test_trial,119,stop-signal,
120,350.0,350.0,200.0,200.0,500.0,<div class = bigbox><div class = starbox><img class = center src='/static/experiments/stop_signal_with_n_back/images/stopSignal.png'></img></div></div>,go,,2000.0,,90.0,1.0,0.0,19.0,3.0,stop_signal_with_n_back,,,,,,0.0-3.0-20.0,90.0,mismatch,"[77, 90]",v,,1091,1000.0,<div class = bigbox><div class = centerbox><div class = gng_number><div class = cue-text><img class = center src='/static/experiments/stop_signal_with_n_back/images/lowercase_V.png'></img></div></div></div></div>,,go,,203665,0.0,test_trial,120,stop-signal,
121,350.0,350.0,200.0,200.0,500.0,<div class = bigbox><div class = starbox><img class = center src='/static/experiments/stop_signal_with_n_back/images/stopSignal.png'></img></div></div>,stop,,2000.0,,-1.0,1.0,0.0,20.0,3.0,stop_signal_with_n_back,,,,,,0.0-3.0-21.0,-1.0,match,"[77, 90]",v,,-1,1000.0,<div class = bigbox><div class = centerbox><div class = gng_number><div class = cue-text><img class = center src='/static/experiments/stop_signal_with_n_back/images/lowercase_V.png'></img></div></div></div></div>,1.0,stop,,205671,0.0,test_trial,121,stop-signal,
122,350.0,350.0,250.0,250.0,500.0,<div class = bigbox><div class = starbox><img class = center src='/static/experiments/stop_signal_with_n_back/images/stopSignal.png'></img></div></div>,stop,,2000.0,,-1.0,0.0,0.0,21.0,3.0,stop_signal_with_n_back,,,,,,0.0-3.0-22.0,90.0,mismatch,"[77, 90]",B,,801,1000.0,<div class = bigbox><div class = centerbox><div class = gng_number><div class = cue-text><img class = center src='/static/experiments/stop_signal_with_n_back/images/uppercase_B.png'></img></div></div></div></div>,0.0,stop,,207677,0.0,test_trial,122,stop-signal,
123,350.0,350.0,200.0,200.0,500.0,<div class = bigbox><div class = starbox><img class = center src='/static/experiments/stop_signal_with_n_back/images/stopSignal.png'></img></div></div>,go,,2000.0,,90.0,1.0,0.0,22.0,3.0,stop_signal_with_n_back,,,,,,0.0-3.0-23.0,90.0,mismatch,"[77, 90]",T,,886,1000.0,<div class = bigbox><div class = centerbox><div class = gng_number><div class = cue-text><img class = center src='/static/experiments/stop_signal_with_n_back/images/uppercase_T.png'></img></div></div></div></div>,,go,,209680,0.0,test_trial,123,stop-signal,
124,350.0,350.0,200.0,200.0,500.0,<div class = bigbox><div class = starbox><img class = center src='/static/experiments/stop_signal_with_n_back/images/stopSignal.png'></img></div></div>,go,,2000.0,,90.0,0.0,0.0,23.0,3.0,stop_signal_with_n_back,,,,,,0.0-3.0-24.0,77.0,mismatch,"[77, 90]",G,,751,1000.0,<div class = bigbox><div class = centerbox><div class = gng_number><div class = cue-text><img class = center src='/static/experiments/stop_signal_with_n_back/images/uppercase_G.png'></img></div></div></div></div>,,go,,211687,0.0,test_trial,124,stop-signal,
125,350.0,350.0,200.0,200.0,500.0,<div class = bigbox><div class = starbox><img class = center src='/static/experiments/stop_signal_with_n_back/images/stopSignal.png'></img></div></div>,go,,2000.0,,77.0,1.0,0.0,24.0,3.0,stop_signal_with_n_back,,,,,,0.0-3.0-25.0,77.0,match,"[77, 90]",B,,936,1000.0,<div class = bigbox><div class = centerbox><div class = gng_number><div class = cue-text><img class = center src='/static/experiments/stop_signal_with_n_back/images/uppercase_B.png'></img></div></div></div></div>,,go,,213694,0.0,test_trial,125,stop-signal,
126,350.0,350.0,200.0,200.0,500.0,<div class = bigbox><div class = starbox><img class = center src='/static/experiments/stop_signal_with_n_back/images/stopSignal.png'></img></div></div>,go,,2000.0,,90.0,0.0,0.0,25.0,3.0,stop_signal_with_n_back,,,,,,0.0-3.0-26.0,77.0,mismatch,"[77, 90]",v,,602,1000.0,<div class = bigbox><div class = centerbox><div class = gng_number><div class = cue-text><img class = center src='/static/experiments/stop_signal_with_n_back/images/lowercase_V.png'></img></div></div></div></div>,,go,,215700,0.0,test_trial,126,stop-signal,
127,350.0,350.0,200.0,200.0,500.0,<div class = bigbox><div class = starbox><img class = center src='/static/experiments/stop_signal_with_n_back/images/stopSignal.png'></img></div></div>,go,,2000.0,,90.0,1.0,0.0,26.0,3.0,stop_signal_with_n_back,,,,,,0.0-3.0-27.0,90.0,mismatch,"[77, 90]",D,,732,1000.0,<div class = bigbox><div class = centerbox><div class = gng_number><div class = cue-text><img class = center src='/static/experiments/stop_signal_with_n_back/images/uppercase_D.png'></img></div></div></div></div>,,go,,217707,0.0,test_trial,127,stop-signal,
128,350.0,350.0,200.0,200.0,500.0,<div class = bigbox><div class = starbox><img class = center src='/static/experiments/stop_signal_with_n_back/images/stopSignal.png'></img></div></div>,go,,2000.0,,90.0,1.0,0.0,27.0,3.0,stop_signal_with_n_back,,,,,,0.0-3.0-28.0,90.0,mismatch,"[77, 90]",g,,821,1000.0,<div class = bigbox><div class = centerbox><div class = gng_number><div class = cue-text><img class = center src='/static/experiments/stop_signal_with_n_back/images/lowercase_G.png'></img></div></div></div></div>,,go,,219711,0.0,test_trial,128,stop-signal,
129,350.0,350.0,200.0,200.0,500.0,<div class = bigbox><div class = starbox><img class = center src='/static/experiments/stop_signal_with_n_back/images/stopSignal.png'></img></div></div>,go,,2000.0,,90.0,0.0,0.0,28.0,3.0,stop_signal_with_n_back,,,,,,0.0-3.0-29.0,77.0,mismatch,"[77, 90]",b,,1008,1000.0,<div class = bigbox><div class = centerbox><div class = gng_number><div class = cue-text><img class = center src='/static/experiments/stop_signal_with_n_back/images/lowercase_B.png'></img></div></div></div></div>,,go,,221718,0.0,test_trial,129,stop-signal,
130,350.0,350.0,200.0,200.0,500.0,<div class = bigbox><div class = starbox><img class = center src='/static/experiments/stop_signal_with_n_back/images/stopSignal.png'></img></div></div>,go,,2000.0,,90.0,1.0,0.0,29.0,3.0,stop_signal_with_n_back,,,,,,0.0-3.0-30.0,90.0,mismatch,"[77, 90]",g,,674,1000.0,<div class = bigbox><div class = centerbox><div class = gng_number><div class = cue-text><img class = center src='/static/experiments/stop_signal_with_n_back/images/lowercase_G.png'></img></div></div></div></div>,,go,,223723,0.0,test_trial,130,stop-signal,
131,350.0,350.0,200.0,200.0,500.0,<div class = bigbox><div class = starbox><img class = center src='/static/experiments/stop_signal_with_n_back/images/stopSignal.png'></img></div></div>,stop,,2000.0,,-1.0,1.0,0.0,30.0,3.0,stop_signal_with_n_back,,,,,,0.0-3.0-31.0,-1.0,mismatch,"[77, 90]",B,,-1,1000.0,<div class = bigbox><div class = centerbox><div class = gng_number><div class = cue-text><img class = center src='/static/experiments/stop_signal_with_n_back/images/uppercase_B.png'></img></div></div></div></div>,1.0,stop,,225731,0.0,test_trial,131,stop-signal,
132,350.0,350.0,250.0,250.0,500.0,<div class = bigbox><div class = starbox><img class = center src='/static/experiments/stop_signal_with_n_back/images/stopSignal.png'></img></div></div>,stop,,2000.0,,-1.0,1.0,0.0,31.0,3.0,stop_signal_with_n_back,,,,,,0.0-3.0-32.0,-1.0,mismatch,"[77, 90]",d,,-1,1000.0,<div class = bigbox><div class = centerbox><div class = gng_number><div class = cue-text><img class = center src='/static/experiments/stop_signal_with_n_back/images/lowercase_D.png'></img></div></div></div></div>,1.0,stop,,227738,0.0,test_trial,132,stop-signal,
133,350.0,350.0,300.0,300.0,500.0,<div class = bigbox><div class = starbox><img class = center src='/static/experiments/stop_signal_with_n_back/images/stopSignal.png'></img></div></div>,go,,2000.0,,90.0,1.0,0.0,32.0,3.0,stop_signal_with_n_back,,,,,,0.0-3.0-33.0,90.0,mismatch,"[77, 90]",V,,534,1000.0,<div class = bigbox><div class = centerbox><div class = gng_number><div class = cue-text><img class = center src='/static/experiments/stop_signal_with_n_back/images/uppercase_V.png'></img></div></div></div></div>,,go,,229745,0.0,test_trial,133,stop-signal,
134,350.0,350.0,300.0,300.0,500.0,<div class = bigbox><div class = starbox><img class = center src='/static/experiments/stop_signal_with_n_back/images/stopSignal.png'></img></div></div>,go,,2000.0,,90.0,1.0,0.0,33.0,3.0,stop_signal_with_n_back,,,,,,0.0-3.0-34.0,90.0,mismatch,"[77, 90]",v,,703,1000.0,<div class = bigbox><div class = centerbox><div class = gng_number><div class = cue-text><img class = center src='/static/experiments/stop_signal_with_n_back/images/lowercase_V.png'></img></div></div></div></div>,,go,,231752,0.0,test_trial,134,stop-signal,
135,350.0,350.0,300.0,300.0,500.0,<div class = bigbox><div class = starbox><img class = center src='/static/experiments/stop_signal_with_n_back/images/stopSignal.png'></img></div></div>,go,,2000.0,,77.0,1.0,0.0,34.0,3.0,stop_signal_with_n_back,,,,,,0.0-3.0-35.0,77.0,match,"[77, 90]",D,,1258,1000.0,<div class = bigbox><div class = centerbox><div class = gng_number><div class = cue-text><img class = center src='/static/experiments/stop_signal_with_n_back/images/uppercase_D.png'></img></div></div></div></div>,,go,,233755,0.0,test_trial,135,stop-signal,
136,350.0,350.0,300.0,300.0,500.0,<div class = bigbox><div class = starbox><img class = center src='/static/experiments/stop_signal_with_n_back/images/stopSignal.png'></img></div></div>,stop,,2000.0,,-1.0,0.0,0.0,35.0,3.0,stop_signal_with_n_back,,,,,,0.0-3.0-36.0,90.0,mismatch,"[77, 90]",G,,525,1000.0,<div class = bigbox><div class = centerbox><div class = gng_number><div class = cue-text><img class = center src='/static/experiments/stop_signal_with_n_back/images/uppercase_G.png'></img></div></div></div></div>,0.0,stop,,235761,0.0,test_trial,136,stop-signal,
137,350.0,350.0,250.0,250.0,500.0,<div class = bigbox><div class = starbox><img class = center src='/static/experiments/stop_signal_with_n_back/images/stopSignal.png'></img></div></div>,stop,,2000.0,,-1.0,0.0,0.0,36.0,3.0,stop_signal_with_n_back,,,,,,0.0-3.0-37.0,77.0,mismatch,"[77, 90]",B,,470,1000.0,<div class = bigbox><div class = centerbox><div class = gng_number><div class = cue-text><img class = center src='/static/experiments/stop_signal_with_n_back/images/uppercase_B.png'></img></div></div></div></div>,0.0,stop,,237767,0.0,test_trial,137,stop-signal,
138,350.0,350.0,200.0,200.0,500.0,<div class = bigbox><div class = starbox><img class = center src='/static/experiments/stop_signal_with_n_back/images/stopSignal.png'></img></div></div>,go,,2000.0,,90.0,1.0,0.0,37.0,3.0,stop_signal_with_n_back,,,,,,0.0-3.0-38.0,90.0,mismatch,"[77, 90]",t,,753,1000.0,<div class = bigbox><div class = centerbox><div class = gng_number><div class = cue-text><img class = center src='/static/experiments/stop_signal_with_n_back/images/lowercase_T.png'></img></div></div></div></div>,,go,,239773,0.0,test_trial,138,stop-signal,
139,350.0,350.0,200.0,200.0,500.0,<div class = bigbox><div class = starbox><img class = center src='/static/experiments/stop_signal_with_n_back/images/stopSignal.png'></img></div></div>,stop,,2000.0,,-1.0,1.0,0.0,38.0,3.0,stop_signal_with_n_back,,,,,,0.0-3.0-39.0,-1.0,match,"[77, 90]",g,,-1,1000.0,<div class = bigbox><div class = centerbox><div class = gng_number><div class = cue-text><img class = center src='/static/experiments/stop_signal_with_n_back/images/lowercase_G.png'></img></div></div></div></div>,1.0,stop,,241780,0.0,test_trial,139,stop-signal,
140,350.0,350.0,250.0,250.0,500.0,<div class = bigbox><div class = starbox><img class = center src='/static/experiments/stop_signal_with_n_back/images/stopSignal.png'></img></div></div>,stop,,2000.0,,-1.0,1.0,0.0,39.0,3.0,stop_signal_with_n_back,,,,,,0.0-3.0-40.0,-1.0,mismatch,"[77, 90]",V,,-1,1000.0,<div class = bigbox><div class = centerbox><div class = gng_number><div class = cue-text><img class = center src='/static/experiments/stop_signal_with_n_back/images/uppercase_V.png'></img></div></div></div></div>,1.0,stop,,243786,0.0,test_trial,140,stop-signal,
141,350.0,350.0,300.0,300.0,500.0,<div class = bigbox><div class = starbox><img class = center src='/static/experiments/stop_signal_with_n_back/images/stopSignal.png'></img></div></div>,go,,2000.0,,90.0,1.0,0.0,40.0,3.0,stop_signal_with_n_back,,,,,,0.0-3.0-41.0,90.0,mismatch,"[77, 90]",G,,598,1000.0,<div class = bigbox><div class = centerbox><div class = gng_number><div class = cue-text><img class = center src='/static/experiments/stop_signal_with_n_back/images/uppercase_G.png'></img></div></div></div></div>,,go,,245793,0.0,test_trial,141,stop-signal,
142,350.0,350.0,300.0,300.0,500.0,<div class = bigbox><div class = starbox><img class = center src='/static/experiments/stop_signal_with_n_back/images/stopSignal.png'></img></div></div>,go,,2000.0,,90.0,1.0,0.0,41.0,3.0,stop_signal_with_n_back,,,,,,0.0-3.0-42.0,90.0,mismatch,"[77, 90]",D,,675,1000.0,<div class = bigbox><div class = centerbox><div class = gng_number><div class = cue-text><img class = center src='/static/experiments/stop_signal_with_n_back/images/uppercase_D.png'></img></div></div></div></div>,,go,,247803,0.0,test_trial,142,stop-signal,
143,350.0,350.0,300.0,300.0,500.0,<div class = bigbox><div class = starbox><img class = center src='/static/experiments/stop_signal_with_n_back/images/stopSignal.png'></img></div></div>,stop,,2000.0,,-1.0,1.0,0.0,42.0,3.0,stop_signal_with_n_back,,,,,,0.0-3.0-43.0,-1.0,mismatch,"[77, 90]",t,,-1,1000.0,<div class = bigbox><div class = centerbox><div class = gng_number><div class = cue-text><img class = center src='/static/experiments/stop_signal_with_n_back/images/lowercase_T.png'></img></div></div></div></div>,1.0,stop,,249809,0.0,test_trial,143,stop-signal,
144,350.0,350.0,350.0,350.0,500.0,<div class = bigbox><div class = starbox><img class = center src='/static/experiments/stop_signal_with_n_back/images/stopSignal.png'></img></div></div>,go,,2000.0,,90.0,1.0,0.0,43.0,3.0,stop_signal_with_n_back,,,,,,0.0-3.0-44.0,90.0,mismatch,"[77, 90]",b,,697,1000.0,<div class = bigbox><div class = centerbox><div class = gng_number><div class = cue-text><img class = center src='/static/experiments/stop_signal_with_n_back/images/lowercase_B.png'></img></div></div></div></div>,,go,,251816,0.0,test_trial,144,stop-signal,
145,350.0,350.0,350.0,350.0,500.0,<div class = bigbox><div class = starbox><img class = center src='/static/experiments/stop_signal_with_n_back/images/stopSignal.png'></img></div></div>,stop,,2000.0,,-1.0,1.0,0.0,44.0,3.0,stop_signal_with_n_back,,,,,,0.0-3.0-45.0,-1.0,mismatch,"[77, 90]",V,,-1,1000.0,<div class = bigbox><div class = centerbox><div class = gng_number><div class = cue-text><img class = center src='/static/experiments/stop_signal_with_n_back/images/uppercase_V.png'></img></div></div></div></div>,1.0,stop,,253822,0.0,test_trial,145,stop-signal,
146,350.0,350.0,400.0,400.0,500.0,<div class = bigbox><div class = starbox><img class = center src='/static/experiments/stop_signal_with_n_back/images/stopSignal.png'></img></div></div>,stop,,2000.0,,-1.0,0.0,0.0,45.0,3.0,stop_signal_with_n_back,,,,,,0.0-3.0-46.0,77.0,mismatch,"[77, 90]",g,,498,1000.0,<div class = bigbox><div class = centerbox><div class = gng_number><div class = cue-text><img class = center src='/static/experiments/stop_signal_with_n_back/images/lowercase_G.png'></img></div></div></div></div>,0.0,stop,,255828,0.0,test_trial,146,stop-signal,
147,350.0,350.0,350.0,350.0,500.0,<div class = bigbox><div class = starbox><img class = center src='/static/experiments/stop_signal_with_n_back/images/stopSignal.png'></img></div></div>,go,,2000.0,,90.0,1.0,0.0,46.0,3.0,stop_signal_with_n_back,,,,,,0.0-3.0-47.0,90.0,mismatch,"[77, 90]",v,,909,1000.0,<div class = bigbox><div class = centerbox><div class = gng_number><div class = cue-text><img class = center src='/static/experiments/stop_signal_with_n_back/images/lowercase_V.png'></img></div></div></div></div>,,go,,257835,0.0,test_trial,147,stop-signal,
148,350.0,350.0,350.0,350.0,500.0,<div class = bigbox><div class = starbox><img class = center src='/static/experiments/stop_signal_with_n_back/images/stopSignal.png'></img></div></div>,go,,2000.0,,90.0,0.0,0.0,47.0,3.0,stop_signal_with_n_back,,,,,,0.0-3.0-48.0,-1.0,mismatch,"[77, 90]",T,,-1,1000.0,<div class = bigbox><div class = centerbox><div class = gng_number><div class = cue-text><img class = center src='/static/experiments/stop_signal_with_n_back/images/uppercase_T.png'></img></div></div></div></div>,,go,,259839,0.0,test_trial,148,stop-signal,
149,350.0,350.0,350.0,350.0,500.0,<div class = bigbox><div class = starbox><img class = center src='/static/experiments/stop_signal_with_n_back/images/stopSignal.png'></img></div></div>,stop,,2000.0,,-1.0,1.0,0.0,48.0,3.0,stop_signal_with_n_back,,,,,,0.0-3.0-49.0,-1.0,match,"[77, 90]",g,,-1,1000.0,<div class = bigbox><div class = centerbox><div class = gng_number><div class = cue-text><img class = center src='/static/experiments/stop_signal_with_n_back/images/lowercase_G.png'></img></div></div></div></div>,1.0,stop,,261845,0.0,test_trial,149,stop-signal,
150,,,,,,,,,7408.0,,,,,,,stop_signal_with_n_back,,,,,,0.0-3.1-0.1,13.0,,[13],,,7408,7408.0,"<div class = bigbox><div class = picture_box><p class = block-text><font color=""white""><br>Please take this time to read your feedback and to take a short break! Press enter to continue.</p><p class = block-text>You have completed: 1 out of 6 blocks of trials.</p><p class = block-text>Your accuracy is too low.  Remember: <br><ul style = ""text-align:left;""><li>Match the current letter to the letter that appeared some number of trials ago</li><li>If they match, press the M Key</li><li>If they mismatch, press the Z Key</li><li>Do not respond if you see a star!</li></ul></p><p class = block-text><i>For the next round of trials, your delay is 1</i>.  Press Enter to continue.</font></p></div></div>",,,,269258,0.0,practice-no-stop-feedback,150,poldrack-single-stim,
151,,,,,,,,,5721.0,True,77.0,,,,,stop_signal_with_n_back,,,,,,0.0-3.1-1.1-0.1,77.0,,[],,,5721,5721.0,"<p>If (4 + 12) / 4 is greater than 3 press the ""M"" key. Otherwise press the ""Z"" key.</p>",,,,274981,200.0,attention_check,151,attention-check,
152,350.0,350.0,400.0,350.0,500.0,<div class = bigbox><div class = starbox><img class = center src='/static/experiments/stop_signal_with_n_back/images/stopSignal.png'></img></div></div>,stop,,2000.0,,90.0,0.0,1.0,1.0,1.0,stop_signal_with_n_back,,,,,,0.0-3.1-2.1,-1.0,N/A,"[77, 90]",B,,-1,1000.0,<div class = bigbox><div class = centerbox><div class = gng_number><div class = cue-text><img class = center src='/static/experiments/stop_signal_with_n_back/images/uppercase_B.png'></img></div></div></div></div>,1.0,stop,,277188,0.0,test_trial,152,stop-signal,
153,400.0,350.0,400.0,400.0,500.0,<div class = bigbox><div class = starbox><img class = center src='/static/experiments/stop_signal_with_n_back/images/stopSignal.png'></img></div></div>,go,,2000.0,,90.0,1.0,1.0,2.0,1.0,stop_signal_with_n_back,,,,,,0.0-3.1-3.1,90.0,mismatch,"[77, 90]",g,,754,1000.0,<div class = bigbox><div class = centerbox><div class = gng_number><div class = cue-text><img class = center src='/static/experiments/stop_signal_with_n_back/images/lowercase_G.png'></img></div></div></div></div>,,go,,279195,0.0,test_trial,153,stop-signal,
154,400.0,350.0,400.0,400.0,500.0,<div class = bigbox><div class = starbox><img class = center src='/static/experiments/stop_signal_with_n_back/images/stopSignal.png'></img></div></div>,go,,2000.0,,90.0,1.0,1.0,3.0,1.0,stop_signal_with_n_back,,,,,,0.0-3.1-4.1,90.0,mismatch,"[77, 90]",t,,747,1000.0,<div class = bigbox><div class = centerbox><div class = gng_number><div class = cue-text><img class = center src='/static/experiments/stop_signal_with_n_back/images/lowercase_T.png'></img></div></div></div></div>,,go,,281201,0.0,test_trial,154,stop-signal,
155,400.0,350.0,400.0,400.0,500.0,<div class = bigbox><div class = starbox><img class = center src='/static/experiments/stop_signal_with_n_back/images/stopSignal.png'></img></div></div>,stop,,2000.0,,-1.0,0.0,1.0,4.0,1.0,stop_signal_with_n_back,,,,,,0.0-3.1-5.1,90.0,mismatch,"[77, 90]",d,,534,1000.0,<div class = bigbox><div class = centerbox><div class = gng_number><div class = cue-text><img class = center src='/static/experiments/stop_signal_with_n_back/images/lowercase_D.png'></img></div></div></div></div>,0.0,stop,,283208,0.0,test_trial,155,stop-signal,
156,350.0,350.0,400.0,350.0,500.0,<div class = bigbox><div class = starbox><img class = center src='/static/experiments/stop_signal_with_n_back/images/stopSignal.png'></img></div></div>,stop,,2000.0,,-1.0,0.0,1.0,5.0,1.0,stop_signal_with_n_back,,,,,,0.0-3.1-6.1,90.0,mismatch,"[77, 90]",T,,508,1000.0,<div class = bigbox><div class = centerbox><div class = gng_number><div class = cue-text><img class = center src='/static/experiments/stop_signal_with_n_back/images/uppercase_T.png'></img></div></div></div></div>,0.0,stop,,285216,0.0,test_trial,156,stop-signal,
157,300.0,350.0,400.0,300.0,500.0,<div class = bigbox><div class = starbox><img class = center src='/static/experiments/stop_signal_with_n_back/images/stopSignal.png'></img></div></div>,go,,2000.0,,90.0,1.0,1.0,6.0,1.0,stop_signal_with_n_back,,,,,,0.0-3.1-7.1,90.0,mismatch,"[77, 90]",B,,806,1000.0,<div class = bigbox><div class = centerbox><div class = gng_number><div class = cue-text><img class = center src='/static/experiments/stop_signal_with_n_back/images/uppercase_B.png'></img></div></div></div></div>,,go,,287222,0.0,test_trial,157,stop-signal,
158,300.0,350.0,400.0,300.0,500.0,<div class = bigbox><div class = starbox><img class = center src='/static/experiments/stop_signal_with_n_back/images/stopSignal.png'></img></div></div>,go,,2000.0,,90.0,1.0,1.0,7.0,1.0,stop_signal_with_n_back,,,,,,0.0-3.1-8.1,90.0,mismatch,"[77, 90]",d,,913,1000.0,<div class = bigbox><div class = centerbox><div class = gng_number><div class = cue-text><img class = center src='/static/experiments/stop_signal_with_n_back/images/lowercase_D.png'></img></div></div></div></div>,,go,,289229,0.0,test_trial,158,stop-signal,
159,300.0,350.0,400.0,300.0,500.0,<div class = bigbox><div class = starbox><img class = center src='/static/experiments/stop_signal_with_n_back/images/stopSignal.png'></img></div></div>,go,,2000.0,,90.0,1.0,1.0,8.0,1.0,stop_signal_with_n_back,,,,,,0.0-3.1-9.1,90.0,mismatch,"[77, 90]",B,,489,1000.0,<div class = bigbox><div class = centerbox><div class = gng_number><div class = cue-text><img class = center src='/static/experiments/stop_signal_with_n_back/images/uppercase_B.png'></img></div></div></div></div>,,go,,291234,0.0,test_trial,159,stop-signal,
160,300.0,350.0,400.0,300.0,500.0,<div class = bigbox><div class = starbox><img class = center src='/static/experiments/stop_signal_with_n_back/images/stopSignal.png'></img></div></div>,stop,,2000.0,,-1.0,0.0,1.0,9.0,1.0,stop_signal_with_n_back,,,,,,0.0-3.1-10.1,77.0,match,"[77, 90]",B,,655,1000.0,<div class = bigbox><div class = centerbox><div class = gng_number><div class = cue-text><img class = center src='/static/experiments/stop_signal_with_n_back/images/uppercase_B.png'></img></div></div></div></div>,0.0,stop,,293238,0.0,test_trial,160,stop-signal,
161,250.0,350.0,400.0,250.0,500.0,<div class = bigbox><div class = starbox><img class = center src='/static/experiments/stop_signal_with_n_back/images/stopSignal.png'></img></div></div>,stop,,2000.0,,-1.0,0.0,1.0,10.0,1.0,stop_signal_with_n_back,,,,,,0.0-3.1-11.1,90.0,mismatch,"[77, 90]",T,,439,1000.0,<div class = bigbox><div class = centerbox><div class = gng_number><div class = cue-text><img class = center src='/static/experiments/stop_signal_with_n_back/images/uppercase_T.png'></img></div></div></div></div>,0.0,stop,,295244,0.0,test_trial,161,stop-signal,
162,200.0,350.0,400.0,200.0,500.0,<div class = bigbox><div class = starbox><img class = center src='/static/experiments/stop_signal_with_n_back/images/stopSignal.png'></img></div></div>,stop,,2000.0,,-1.0,1.0,1.0,11.0,1.0,stop_signal_with_n_back,,,,,,0.0-3.1-12.1,-1.0,mismatch,"[77, 90]",B,,-1,1000.0,<div class = bigbox><div class = centerbox><div class = gng_number><div class = cue-text><img class = center src='/static/experiments/stop_signal_with_n_back/images/uppercase_B.png'></img></div></div></div></div>,1.0,stop,,297252,0.0,test_trial,162,stop-signal,
