,SS_delay,SS_duration,SS_stimulus,SS_trial_type,att_check_percent,block_duration,bottom_stim,correct_response,correct_trial,cue,current_block,current_trial,directed_forgetting_condition,exp_id,final_accuracy,final_avg_rt,final_credit_var,final_missed_percent,final_responses_ok,internal_node_id,key_press,possible_responses,probe,responses,rt,stim_duration,stimulus,stop_acc,stop_signal_condition,text,time_elapsed,timing_post_trial,top_stim,trial_id,trial_index,trial_type,view_history
0,,,,,,2454.0,,,,,,,,stop_signal_with_directed_forgetting,,,,,,0.0-0.0-0.0,13.0,[13],,,2454,2454.0,<div class = bigbox><div class = picture_box><p class = block-text>Welcome to the experiment. This experiment will take about 30 minutes. Press <i>enter</i> to begin.</p></div></div>,,,,2458,0.0,,feedback_block,0,poldrack-single-stim,
1,,,,,,,,,,,,,,stop_signal_with_directed_forgetting,,,,,,0.0-0.0-1.0,,,,,30947,,,,,,33408,,,instruction,1,poldrack-instructions,"[{""page_index"":0,""viewing_time"":16132},{""page_index"":1,""viewing_time"":5367},{""page_index"":2,""viewing_time"":6496},{""page_index"":3,""viewing_time"":2951}]"
2,,,,,,500.0,,,,,,,,stop_signal_with_directed_forgetting,,,,,,0.0-0.0-2.0,-1.0,none,,,-1,500.0,"<div class = centerbox><div class = fixation><span style=""color:white"">+</span></div></div>",,,,34918,0.0,,practice_fixation,2,poldrack-single-stim,
3,,,,,,2000.0,,,,,,,,stop_signal_with_directed_forgetting,,,,,,0.0-0.0-3.0,-1.0,none,,,-1,2000.0,"<div class = bigbox><div class = topLeft><div class = cue-text><img class = center src=""/static/experiments/stop_signal_with_directed_forgetting/images/Y.png""></img></div></div><div class = topMiddle><div class = cue-text></div></div><div class = topRight><div class = cue-text><img class = center src=""/static/experiments/stop_signal_with_directed_forgetting/images/Q.png""></img></div></div><div class = bottomLeft><div class = cue-text><img class = center src=""/static/experiments/stop_signal_with_directed_forgetting/images/L.png""></img></div></div><div class = bottomMiddle><div class = cue-text></div></div><div class = bottomRight><div class = cue-text><img class = center src=""/static/experiments/stop_signal_with_directed_forgetting/images/E.png""></img></div></div></div>",,,,36928,0.0,,practice_stim,3,poldrack-single-stim,
4,,,,,,1000.0,,,,,,,,stop_signal_with_directed_forgetting,,,,,,0.0-0.0-4.0,-1.0,[],,,-1,1000.0,"<div class = bigbox><div class = centerbox><div class = cue-text><img class = center src=""/static/experiments/stop_signal_with_directed_forgetting/images/TOP.png""></img></font></div></div></div>",,,,37937,0.0,,practice_cue,4,poldrack-single-stim,
5,,,,,,2000.0,,,,,,,,stop_signal_with_directed_forgetting,,,,,,0.0-0.0-5.0,-1.0,none,,,-1,2000.0,"<div class = centerbox><div class = fixation><span style=""color:white"">+</span></div></div>",,,,39947,0.0,,practice_fixation,5,poldrack-single-stim,
6,350.0,500.0,"<div class = bigbox><div class = starbox><img class = center src=""/static/experiments/stop_signal_with_directed_forgetting/images/stopSignal.png""></img></div></div>",go,,1000.0,"['L', 'E']",90.0,1.0,TOP,0.0,1.0,neg,stop_signal_with_directed_forgetting,,,,,,0.0-0.0-6.0,90.0,"[77, 90]",Q,,505,1000.0,"<div class = bigbox><div class = centerbox><div class = cue-text><img class = center src=""/static/experiments/stop_signal_with_directed_forgetting/images/Q.png""></img></font></div></div></div>",,go,,40961,0.0,"['Y', 'Q']",practice_trial,6,stop-signal,
7,,,,,,1000.0,,,,,,,,stop_signal_with_directed_forgetting,,,,,,0.0-0.0-7.0,-1.0,"[77, 90]",,,-1,1000.0,,,,,41969,0.0,,practice_ITI_fixation,7,poldrack-single-stim,
8,,,,,,500.0,,,,,,,,stop_signal_with_directed_forgetting,,,,,,0.0-0.0-8.0,-1.0,none,,,-1,500.0,"<div class = fb_box><div class = center-text><font size = 20>Correct!</font></div></div><div class = prompt_box><p class = center-block-text style = ""font-size:16px; line-height:80%%;"">Please respond if the probe was in the memory set.</p><p class = center-block-text style = ""font-size:16px; line-height:80%%;"">In memory set: M Key</p><p class = center-block-text style = ""font-size:16px; line-height:80%%;"">Not in memory set: Z Key</p><p class = center-block-text style = ""font-size:16px; line-height:80%%;"">Do not respond if a star appears around the probe!</p></div>",,,,42477,0.0,,practice-stop-feedback,8,poldrack-single-stim,
9,,,,,,500.0,,,,,,,,stop_signal_with_directed_forgetting,,,,,,0.0-0.0-9.0,-1.0,none,,,-1,500.0,"<div class = centerbox><div class = fixation><span style=""color:white"">+</span></div></div>",,,,42985,0.0,,practice_fixation,9,poldrack-single-stim,
10,,,,,,2000.0,,,,,,,,stop_signal_with_directed_forgetting,,,,,,0.0-0.0-10.0,-1.0,none,,,-1,2000.0,"<div class = bigbox><div class = topLeft><div class = cue-text><img class = center src=""/static/experiments/stop_signal_with_directed_forgetting/images/Z.png""></img></div></div><div class = topMiddle><div class = cue-text></div></div><div class = topRight><div class = cue-text><img class = center src=""/static/experiments/stop_signal_with_directed_forgetting/images/B.png""></img></div></div><div class = bottomLeft><div class = cue-text><img class = center src=""/static/experiments/stop_signal_with_directed_forgetting/images/K.png""></img></div></div><div class = bottomMiddle><div class = cue-text></div></div><div class = bottomRight><div class = cue-text><img class = center src=""/static/experiments/stop_signal_with_directed_forgetting/images/O.png""></img></div></div></div>",,,,44995,0.0,,practice_stim,10,poldrack-single-stim,
11,,,,,,1000.0,,,,,,,,stop_signal_with_directed_forgetting,,,,,,0.0-0.0-11.0,-1.0,[],,,-1,1000.0,"<div class = bigbox><div class = centerbox><div class = cue-text><img class = center src=""/static/experiments/stop_signal_with_directed_forgetting/images/TOP.png""></img></font></div></div></div>",,,,46005,0.0,,practice_cue,11,poldrack-single-stim,
12,,,,,,2000.0,,,,,,,,stop_signal_with_directed_forgetting,,,,,,0.0-0.0-12.0,-1.0,none,,,-1,2000.0,"<div class = centerbox><div class = fixation><span style=""color:white"">+</span></div></div>",,,,48012,0.0,,practice_fixation,12,poldrack-single-stim,
13,350.0,500.0,"<div class = bigbox><div class = starbox><img class = center src=""/static/experiments/stop_signal_with_directed_forgetting/images/stopSignal.png""></img></div></div>",stop,,1000.0,"['K', 'O']",-1.0,0.0,TOP,0.0,2.0,pos,stop_signal_with_directed_forgetting,,,,,,0.0-0.0-13.0,77.0,"[77, 90]",K,,447,1000.0,"<div class = bigbox><div class = centerbox><div class = cue-text><img class = center src=""/static/experiments/stop_signal_with_directed_forgetting/images/K.png""></img></font></div></div></div>",0.0,stop,,49020,0.0,"['Z', 'B']",practice_trial,13,stop-signal,
14,,,,,,1000.0,,,,,,,,stop_signal_with_directed_forgetting,,,,,,0.0-0.0-14.0,-1.0,"[77, 90]",,,-1,1000.0,,,,,50025,0.0,,practice_ITI_fixation,14,poldrack-single-stim,
15,,,,,,500.0,,,,,,,,stop_signal_with_directed_forgetting,,,,,,0.0-0.0-15.0,-1.0,none,,,-1,500.0,"<div class = fb_box><div class = center-text><font size = 20>There was a star.</font></div></div><div class = prompt_box><p class = center-block-text style = ""font-size:16px; line-height:80%%;"">Please respond if the probe was in the memory set.</p><p class = center-block-text style = ""font-size:16px; line-height:80%%;"">In memory set: M Key</p><p class = center-block-text style = ""font-size:16px; line-height:80%%;"">Not in memory set: Z Key</p><p class = center-block-text style = ""font-size:16px; line-height:80%%;"">Do not respond if a star appears around the probe!</p></div>",,,,50531,0.0,,practice-stop-feedback,15,poldrack-single-stim,
16,,,,,,500.0,,,,,,,,stop_signal_with_directed_forgetting,,,,,,0.0-0.0-16.0,-1.0,none,,,-1,500.0,"<div class = centerbox><div class = fixation><span style=""color:white"">+</span></div></div>",,,,51038,0.0,,practice_fixation,16,poldrack-single-stim,
17,,,,,,2000.0,,,,,,,,stop_signal_with_directed_forgetting,,,,,,0.0-0.0-17.0,-1.0,none,,,-1,2000.0,"<div class = bigbox><div class = topLeft><div class = cue-text><img class = center src=""/static/experiments/stop_signal_with_directed_forgetting/images/W.png""></img></div></div><div class = topMiddle><div class = cue-text></div></div><div class = topRight><div class = cue-text><img class = center src=""/static/experiments/stop_signal_with_directed_forgetting/images/A.png""></img></div></div><div class = bottomLeft><div class = cue-text><img class = center src=""/static/experiments/stop_signal_with_directed_forgetting/images/H.png""></img></div></div><div class = bottomMiddle><div class = cue-text></div></div><div class = bottomRight><div class = cue-text><img class = center src=""/static/experiments/stop_signal_with_directed_forgetting/images/M.png""></img></div></div></div>",,,,53045,0.0,,practice_stim,17,poldrack-single-stim,
18,,,,,,1000.0,,,,,,,,stop_signal_with_directed_forgetting,,,,,,0.0-0.0-18.0,-1.0,[],,,-1,1000.0,"<div class = bigbox><div class = centerbox><div class = cue-text><img class = center src=""/static/experiments/stop_signal_with_directed_forgetting/images/TOP.png""></img></font></div></div></div>",,,,54052,0.0,,practice_cue,18,poldrack-single-stim,
19,,,,,,2000.0,,,,,,,,stop_signal_with_directed_forgetting,,,,,,0.0-0.0-19.0,-1.0,none,,,-1,2000.0,"<div class = centerbox><div class = fixation><span style=""color:white"">+</span></div></div>",,,,56059,0.0,,practice_fixation,19,poldrack-single-stim,
20,300.0,500.0,"<div class = bigbox><div class = starbox><img class = center src=""/static/experiments/stop_signal_with_directed_forgetting/images/stopSignal.png""></img></div></div>",stop,,1000.0,"['H', 'M']",-1.0,0.0,TOP,0.0,3.0,neg,stop_signal_with_directed_forgetting,,,,,,0.0-0.0-20.0,90.0,"[77, 90]",A,,503,1000.0,"<div class = bigbox><div class = centerbox><div class = cue-text><img class = center src=""/static/experiments/stop_signal_with_directed_forgetting/images/A.png""></img></font></div></div></div>",0.0,stop,,57068,0.0,"['W', 'A']",practice_trial,20,stop-signal,
21,,,,,,1000.0,,,,,,,,stop_signal_with_directed_forgetting,,,,,,0.0-0.0-21.0,-1.0,"[77, 90]",,,-1,1000.0,,,,,58074,0.0,,practice_ITI_fixation,21,poldrack-single-stim,
22,,,,,,500.0,,,,,,,,stop_signal_with_directed_forgetting,,,,,,0.0-0.0-22.0,-1.0,none,,,-1,500.0,"<div class = fb_box><div class = center-text><font size = 20>There was a star.</font></div></div><div class = prompt_box><p class = center-block-text style = ""font-size:16px; line-height:80%%;"">Please respond if the probe was in the memory set.</p><p class = center-block-text style = ""font-size:16px; line-height:80%%;"">In memory set: M Key</p><p class = center-block-text style = ""font-size:16px; line-height:80%%;"">Not in memory set: Z Key</p><p class = center-block-text style = ""font-size:16px; line-height:80%%;"">Do not respond if a star appears around the probe!</p></div>",,,,58581,0.0,,practice-stop-feedback,22,poldrack-single-stim,
23,,,,,,500.0,,,,,,,,stop_signal_with_directed_forgetting,,,,,,0.0-0.0-23.0,-1.0,none,,,-1,500.0,"<div class = centerbox><div class = fixation><span style=""color:white"">+</span></div></div>",,,,59088,0.0,,practice_fixation,23,poldrack-single-stim,
24,,,,,,2000.0,,,,,,,,stop_signal_with_directed_forgetting,,,,,,0.0-0.0-24.0,-1.0,none,,,-1,2000.0,"<div class = bigbox><div class = topLeft><div class = cue-text><img class = center src=""/static/experiments/stop_signal_with_directed_forgetting/images/D.png""></img></div></div><div class = topMiddle><div class = cue-text></div></div><div class = topRight><div class = cue-text><img class = center src=""/static/experiments/stop_signal_with_directed_forgetting/images/I.png""></img></div></div><div class = bottomLeft><div class = cue-text><img class = center src=""/static/experiments/stop_signal_with_directed_forgetting/images/L.png""></img></div></div><div class = bottomMiddle><div class = cue-text></div></div><div class = bottomRight><div class = cue-text><img class = center src=""/static/experiments/stop_signal_with_directed_forgetting/images/P.png""></img></div></div></div>",,,,61097,0.0,,practice_stim,24,poldrack-single-stim,
25,,,,,,1000.0,,,,,,,,stop_signal_with_directed_forgetting,,,,,,0.0-0.0-25.0,-1.0,[],,,-1,1000.0,"<div class = bigbox><div class = centerbox><div class = cue-text><img class = center src=""/static/experiments/stop_signal_with_directed_forgetting/images/BOT.png""></img></font></div></div></div>",,,,62103,0.0,,practice_cue,25,poldrack-single-stim,
26,,,,,,2000.0,,,,,,,,stop_signal_with_directed_forgetting,,,,,,0.0-0.0-26.0,-1.0,none,,,-1,2000.0,"<div class = centerbox><div class = fixation><span style=""color:white"">+</span></div></div>",,,,64109,0.0,,practice_fixation,26,poldrack-single-stim,
27,250.0,500.0,"<div class = bigbox><div class = starbox><img class = center src=""/static/experiments/stop_signal_with_directed_forgetting/images/stopSignal.png""></img></div></div>",go,,1000.0,"['L', 'P']",90.0,1.0,BOT,0.0,4.0,con,stop_signal_with_directed_forgetting,,,,,,0.0-0.0-27.0,90.0,"[77, 90]",H,,868,1000.0,"<div class = bigbox><div class = centerbox><div class = cue-text><img class = center src=""/static/experiments/stop_signal_with_directed_forgetting/images/H.png""></img></font></div></div></div>",,go,,65116,0.0,"['D', 'I']",practice_trial,27,stop-signal,
28,,,,,,1000.0,,,,,,,,stop_signal_with_directed_forgetting,,,,,,0.0-0.0-28.0,-1.0,"[77, 90]",,,-1,1000.0,,,,,66120,0.0,,practice_ITI_fixation,28,poldrack-single-stim,
29,,,,,,500.0,,,,,,,,stop_signal_with_directed_forgetting,,,,,,0.0-0.0-29.0,-1.0,none,,,-1,500.0,"<div class = fb_box><div class = center-text><font size = 20>Correct!</font></div></div><div class = prompt_box><p class = center-block-text style = ""font-size:16px; line-height:80%%;"">Please respond if the probe was in the memory set.</p><p class = center-block-text style = ""font-size:16px; line-height:80%%;"">In memory set: M Key</p><p class = center-block-text style = ""font-size:16px; line-height:80%%;"">Not in memory set: Z Key</p><p class = center-block-text style = ""font-size:16px; line-height:80%%;"">Do not respond if a star appears around the probe!</p></div>",,,,66626,0.0,,practice-stop-feedback,29,poldrack-single-stim,
30,,,,,,500.0,,,,,,,,stop_signal_with_directed_forgetting,,,,,,0.0-0.0-30.0,-1.0,none,,,-1,500.0,"<div class = centerbox><div class = fixation><span style=""color:white"">+</span></div></div>",,,,67133,0.0,,practice_fixation,30,poldrack-single-stim,
31,,,,,,2000.0,,,,,,,,stop_signal_with_directed_forgetting,,,,,,0.0-0.0-31.0,-1.0,none,,,-1,2000.0,"<div class = bigbox><div class = topLeft><div class = cue-text><img class = center src=""/static/experiments/stop_signal_with_directed_forgetting/images/S.png""></img></div></div><div class = topMiddle><div class = cue-text></div></div><div class = topRight><div class = cue-text><img class = center src=""/static/experiments/stop_signal_with_directed_forgetting/images/K.png""></img></div></div><div class = bottomLeft><div class = cue-text><img class = center src=""/static/experiments/stop_signal_with_directed_forgetting/images/J.png""></img></div></div><div class = bottomMiddle><div class = cue-text></div></div><div class = bottomRight><div class = cue-text><img class = center src=""/static/experiments/stop_signal_with_directed_forgetting/images/B.png""></img></div></div></div>",,,,69142,0.0,,practice_stim,31,poldrack-single-stim,
32,,,,,,1000.0,,,,,,,,stop_signal_with_directed_forgetting,,,,,,0.0-0.0-32.0,-1.0,[],,,-1,1000.0,"<div class = bigbox><div class = centerbox><div class = cue-text><img class = center src=""/static/experiments/stop_signal_with_directed_forgetting/images/TOP.png""></img></font></div></div></div>",,,,70150,0.0,,practice_cue,32,poldrack-single-stim,
33,,,,,,2000.0,,,,,,,,stop_signal_with_directed_forgetting,,,,,,0.0-0.0-33.0,-1.0,none,,,-1,2000.0,"<div class = centerbox><div class = fixation><span style=""color:white"">+</span></div></div>",,,,72155,0.0,,practice_fixation,33,poldrack-single-stim,
34,250.0,500.0,"<div class = bigbox><div class = starbox><img class = center src=""/static/experiments/stop_signal_with_directed_forgetting/images/stopSignal.png""></img></div></div>",go,,1000.0,"['J', 'B']",90.0,1.0,TOP,0.0,5.0,neg,stop_signal_with_directed_forgetting,,,,,,0.0-0.0-34.0,90.0,"[77, 90]",S,,801,1000.0,"<div class = bigbox><div class = centerbox><div class = cue-text><img class = center src=""/static/experiments/stop_signal_with_directed_forgetting/images/S.png""></img></font></div></div></div>",,go,,73162,0.0,"['S', 'K']",practice_trial,34,stop-signal,
35,,,,,,1000.0,,,,,,,,stop_signal_with_directed_forgetting,,,,,,0.0-0.0-35.0,-1.0,"[77, 90]",,,-1,1000.0,,,,,74169,0.0,,practice_ITI_fixation,35,poldrack-single-stim,
36,,,,,,500.0,,,,,,,,stop_signal_with_directed_forgetting,,,,,,0.0-0.0-36.0,-1.0,none,,,-1,500.0,"<div class = fb_box><div class = center-text><font size = 20>Correct!</font></div></div><div class = prompt_box><p class = center-block-text style = ""font-size:16px; line-height:80%%;"">Please respond if the probe was in the memory set.</p><p class = center-block-text style = ""font-size:16px; line-height:80%%;"">In memory set: M Key</p><p class = center-block-text style = ""font-size:16px; line-height:80%%;"">Not in memory set: Z Key</p><p class = center-block-text style = ""font-size:16px; line-height:80%%;"">Do not respond if a star appears around the probe!</p></div>",,,,74675,0.0,,practice-stop-feedback,36,poldrack-single-stim,
37,,,,,,500.0,,,,,,,,stop_signal_with_directed_forgetting,,,,,,0.0-0.0-37.0,-1.0,none,,,-1,500.0,"<div class = centerbox><div class = fixation><span style=""color:white"">+</span></div></div>",,,,75182,0.0,,practice_fixation,37,poldrack-single-stim,
38,,,,,,2000.0,,,,,,,,stop_signal_with_directed_forgetting,,,,,,0.0-0.0-38.0,-1.0,none,,,-1,2000.0,"<div class = bigbox><div class = topLeft><div class = cue-text><img class = center src=""/static/experiments/stop_signal_with_directed_forgetting/images/T.png""></img></div></div><div class = topMiddle><div class = cue-text></div></div><div class = topRight><div class = cue-text><img class = center src=""/static/experiments/stop_signal_with_directed_forgetting/images/F.png""></img></div></div><div class = bottomLeft><div class = cue-text><img class = center src=""/static/experiments/stop_signal_with_directed_forgetting/images/M.png""></img></div></div><div class = bottomMiddle><div class = cue-text></div></div><div class = bottomRight><div class = cue-text><img class = center src=""/static/experiments/stop_signal_with_directed_forgetting/images/R.png""></img></div></div></div>",,,,77189,0.0,,practice_stim,38,poldrack-single-stim,
39,,,,,,1000.0,,,,,,,,stop_signal_with_directed_forgetting,,,,,,0.0-0.0-39.0,-1.0,[],,,-1,1000.0,"<div class = bigbox><div class = centerbox><div class = cue-text><img class = center src=""/static/experiments/stop_signal_with_directed_forgetting/images/TOP.png""></img></font></div></div></div>",,,,78194,0.0,,practice_cue,39,poldrack-single-stim,
40,,,,,,2000.0,,,,,,,,stop_signal_with_directed_forgetting,,,,,,0.0-0.0-40.0,-1.0,none,,,-1,2000.0,"<div class = centerbox><div class = fixation><span style=""color:white"">+</span></div></div>",,,,80199,0.0,,practice_fixation,40,poldrack-single-stim,
41,250.0,500.0,"<div class = bigbox><div class = starbox><img class = center src=""/static/experiments/stop_signal_with_directed_forgetting/images/stopSignal.png""></img></div></div>",stop,,1000.0,"['M', 'R']",-1.0,0.0,TOP,0.0,6.0,con,stop_signal_with_directed_forgetting,,,,,,0.0-0.0-41.0,90.0,"[77, 90]",C,,495,1000.0,"<div class = bigbox><div class = centerbox><div class = cue-text><img class = center src=""/static/experiments/stop_signal_with_directed_forgetting/images/C.png""></img></font></div></div></div>",0.0,stop,,81203,0.0,"['T', 'F']",practice_trial,41,stop-signal,
42,,,,,,1000.0,,,,,,,,stop_signal_with_directed_forgetting,,,,,,0.0-0.0-42.0,-1.0,"[77, 90]",,,-1,1000.0,,,,,82209,0.0,,practice_ITI_fixation,42,poldrack-single-stim,
43,,,,,,500.0,,,,,,,,stop_signal_with_directed_forgetting,,,,,,0.0-0.0-43.0,-1.0,none,,,-1,500.0,"<div class = fb_box><div class = center-text><font size = 20>There was a star.</font></div></div><div class = prompt_box><p class = center-block-text style = ""font-size:16px; line-height:80%%;"">Please respond if the probe was in the memory set.</p><p class = center-block-text style = ""font-size:16px; line-height:80%%;"">In memory set: M Key</p><p class = center-block-text style = ""font-size:16px; line-height:80%%;"">Not in memory set: Z Key</p><p class = center-block-text style = ""font-size:16px; line-height:80%%;"">Do not respond if a star appears around the probe!</p></div>",,,,82714,0.0,,practice-stop-feedback,43,poldrack-single-stim,
44,,,,,,500.0,,,,,,,,stop_signal_with_directed_forgetting,,,,,,0.0-0.0-44.0,-1.0,none,,,-1,500.0,"<div class = centerbox><div class = fixation><span style=""color:white"">+</span></div></div>",,,,83222,0.0,,practice_fixation,44,poldrack-single-stim,
45,,,,,,2000.0,,,,,,,,stop_signal_with_directed_forgetting,,,,,,0.0-0.0-45.0,-1.0,none,,,-1,2000.0,"<div class = bigbox><div class = topLeft><div class = cue-text><img class = center src=""/static/experiments/stop_signal_with_directed_forgetting/images/A.png""></img></div></div><div class = topMiddle><div class = cue-text></div></div><div class = topRight><div class = cue-text><img class = center src=""/static/experiments/stop_signal_with_directed_forgetting/images/O.png""></img></div></div><div class = bottomLeft><div class = cue-text><img class = center src=""/static/experiments/stop_signal_with_directed_forgetting/images/Z.png""></img></div></div><div class = bottomMiddle><div class = cue-text></div></div><div class = bottomRight><div class = cue-text><img class = center src=""/static/experiments/stop_signal_with_directed_forgetting/images/H.png""></img></div></div></div>",,,,85235,0.0,,practice_stim,45,poldrack-single-stim,
46,,,,,,1000.0,,,,,,,,stop_signal_with_directed_forgetting,,,,,,0.0-0.0-46.0,-1.0,[],,,-1,1000.0,"<div class = bigbox><div class = centerbox><div class = cue-text><img class = center src=""/static/experiments/stop_signal_with_directed_forgetting/images/TOP.png""></img></font></div></div></div>",,,,86243,0.0,,practice_cue,46,poldrack-single-stim,
47,,,,,,2000.0,,,,,,,,stop_signal_with_directed_forgetting,,,,,,0.0-0.0-47.0,-1.0,none,,,-1,2000.0,"<div class = centerbox><div class = fixation><span style=""color:white"">+</span></div></div>",,,,88248,0.0,,practice_fixation,47,poldrack-single-stim,
48,200.0,500.0,"<div class = bigbox><div class = starbox><img class = center src=""/static/experiments/stop_signal_with_directed_forgetting/images/stopSignal.png""></img></div></div>",go,,1000.0,"['Z', 'H']",77.0,1.0,TOP,0.0,7.0,pos,stop_signal_with_directed_forgetting,,,,,,0.0-0.0-48.0,77.0,"[77, 90]",H,,548,1000.0,"<div class = bigbox><div class = centerbox><div class = cue-text><img class = center src=""/static/experiments/stop_signal_with_directed_forgetting/images/H.png""></img></font></div></div></div>",,go,,89257,0.0,"['A', 'O']",practice_trial,48,stop-signal,
49,,,,,,1000.0,,,,,,,,stop_signal_with_directed_forgetting,,,,,,0.0-0.0-49.0,-1.0,"[77, 90]",,,-1,1000.0,,,,,90262,0.0,,practice_ITI_fixation,49,poldrack-single-stim,
50,,,,,,500.0,,,,,,,,stop_signal_with_directed_forgetting,,,,,,0.0-0.0-50.0,-1.0,none,,,-1,500.0,"<div class = fb_box><div class = center-text><font size = 20>Correct!</font></div></div><div class = prompt_box><p class = center-block-text style = ""font-size:16px; line-height:80%%;"">Please respond if the probe was in the memory set.</p><p class = center-block-text style = ""font-size:16px; line-height:80%%;"">In memory set: M Key</p><p class = center-block-text style = ""font-size:16px; line-height:80%%;"">Not in memory set: Z Key</p><p class = center-block-text style = ""font-size:16px; line-height:80%%;"">Do not respond if a star appears around the probe!</p></div>",,,,90767,0.0,,practice-stop-feedback,50,poldrack-single-stim,
51,,,,,,500.0,,,,,,,,stop_signal_with_directed_forgetting,,,,,,0.0-0.0-51.0,-1.0,none,,,-1,500.0,"<div class = centerbox><div class = fixation><span style=""color:white"">+</span></div></div>",,,,91275,0.0,,practice_fixation,51,poldrack-single-stim,
52,,,,,,2000.0,,,,,,,,stop_signal_with_directed_forgetting,,,,,,0.0-0.0-52.0,-1.0,none,,,-1,2000.0,"<div class = bigbox><div class = topLeft><div class = cue-text><img class = center src=""/static/experiments/stop_signal_with_directed_forgetting/images/Q.png""></img></div></div><div class = topMiddle><div class = cue-text></div></div><div class = topRight><div class = cue-text><img class = center src=""/static/experiments/stop_signal_with_directed_forgetting/images/S.png""></img></div></div><div class = bottomLeft><div class = cue-text><img class = center src=""/static/experiments/stop_signal_with_directed_forgetting/images/C.png""></img></div></div><div class = bottomMiddle><div class = cue-text></div></div><div class = bottomRight><div class = cue-text><img class = center src=""/static/experiments/stop_signal_with_directed_forgetting/images/K.png""></img></div></div></div>",,,,93285,0.0,,practice_stim,52,poldrack-single-stim,
53,,,,,,1000.0,,,,,,,,stop_signal_with_directed_forgetting,,,,,,0.0-0.0-53.0,-1.0,[],,,-1,1000.0,"<div class = bigbox><div class = centerbox><div class = cue-text><img class = center src=""/static/experiments/stop_signal_with_directed_forgetting/images/BOT.png""></img></font></div></div></div>",,,,94293,0.0,,practice_cue,53,poldrack-single-stim,
54,,,,,,2000.0,,,,,,,,stop_signal_with_directed_forgetting,,,,,,0.0-0.0-54.0,-1.0,none,,,-1,2000.0,"<div class = centerbox><div class = fixation><span style=""color:white"">+</span></div></div>",,,,96299,0.0,,practice_fixation,54,poldrack-single-stim,
55,200.0,500.0,"<div class = bigbox><div class = starbox><img class = center src=""/static/experiments/stop_signal_with_directed_forgetting/images/stopSignal.png""></img></div></div>",go,,1000.0,"['C', 'K']",77.0,1.0,BOT,0.0,8.0,pos,stop_signal_with_directed_forgetting,,,,,,0.0-0.0-55.0,77.0,"[77, 90]",S,,818,1000.0,"<div class = bigbox><div class = centerbox><div class = cue-text><img class = center src=""/static/experiments/stop_signal_with_directed_forgetting/images/S.png""></img></font></div></div></div>",,go,,97305,0.0,"['Q', 'S']",practice_trial,55,stop-signal,
56,,,,,,1000.0,,,,,,,,stop_signal_with_directed_forgetting,,,,,,0.0-0.0-56.0,-1.0,"[77, 90]",,,-1,1000.0,,,,,98314,0.0,,practice_ITI_fixation,56,poldrack-single-stim,
57,,,,,,500.0,,,,,,,,stop_signal_with_directed_forgetting,,,,,,0.0-0.0-57.0,-1.0,none,,,-1,500.0,"<div class = fb_box><div class = center-text><font size = 20>Correct!</font></div></div><div class = prompt_box><p class = center-block-text style = ""font-size:16px; line-height:80%%;"">Please respond if the probe was in the memory set.</p><p class = center-block-text style = ""font-size:16px; line-height:80%%;"">In memory set: M Key</p><p class = center-block-text style = ""font-size:16px; line-height:80%%;"">Not in memory set: Z Key</p><p class = center-block-text style = ""font-size:16px; line-height:80%%;"">Do not respond if a star appears around the probe!</p></div>",,,,98820,0.0,,practice-stop-feedback,57,poldrack-single-stim,
58,,,,,,500.0,,,,,,,,stop_signal_with_directed_forgetting,,,,,,0.0-0.0-58.0,-1.0,none,,,-1,500.0,"<div class = centerbox><div class = fixation><span style=""color:white"">+</span></div></div>",,,,99326,0.0,,practice_fixation,58,poldrack-single-stim,
59,,,,,,2000.0,,,,,,,,stop_signal_with_directed_forgetting,,,,,,0.0-0.0-59.0,-1.0,none,,,-1,2000.0,"<div class = bigbox><div class = topLeft><div class = cue-text><img class = center src=""/static/experiments/stop_signal_with_directed_forgetting/images/I.png""></img></div></div><div class = topMiddle><div class = cue-text></div></div><div class = topRight><div class = cue-text><img class = center src=""/static/experiments/stop_signal_with_directed_forgetting/images/F.png""></img></div></div><div class = bottomLeft><div class = cue-text><img class = center src=""/static/experiments/stop_signal_with_directed_forgetting/images/B.png""></img></div></div><div class = bottomMiddle><div class = cue-text></div></div><div class = bottomRight><div class = cue-text><img class = center src=""/static/experiments/stop_signal_with_directed_forgetting/images/W.png""></img></div></div></div>",,,,101334,0.0,,practice_stim,59,poldrack-single-stim,
60,,,,,,1000.0,,,,,,,,stop_signal_with_directed_forgetting,,,,,,0.0-0.0-60.0,-1.0,[],,,-1,1000.0,"<div class = bigbox><div class = centerbox><div class = cue-text><img class = center src=""/static/experiments/stop_signal_with_directed_forgetting/images/BOT.png""></img></font></div></div></div>",,,,102344,0.0,,practice_cue,60,poldrack-single-stim,
61,,,,,,2000.0,,,,,,,,stop_signal_with_directed_forgetting,,,,,,0.0-0.0-61.0,-1.0,none,,,-1,2000.0,"<div class = centerbox><div class = fixation><span style=""color:white"">+</span></div></div>",,,,104351,0.0,,practice_fixation,61,poldrack-single-stim,
62,200.0,500.0,"<div class = bigbox><div class = starbox><img class = center src=""/static/experiments/stop_signal_with_directed_forgetting/images/stopSignal.png""></img></div></div>",go,,1000.0,"['B', 'W']",77.0,1.0,BOT,0.0,9.0,pos,stop_signal_with_directed_forgetting,,,,,,0.0-0.0-62.0,77.0,"[77, 90]",I,,469,1000.0,"<div class = bigbox><div class = centerbox><div class = cue-text><img class = center src=""/static/experiments/stop_signal_with_directed_forgetting/images/I.png""></img></font></div></div></div>",,go,,105357,0.0,"['I', 'F']",practice_trial,62,stop-signal,
63,,,,,,1000.0,,,,,,,,stop_signal_with_directed_forgetting,,,,,,0.0-0.0-63.0,-1.0,"[77, 90]",,,-1,1000.0,,,,,106361,0.0,,practice_ITI_fixation,63,poldrack-single-stim,
64,,,,,,500.0,,,,,,,,stop_signal_with_directed_forgetting,,,,,,0.0-0.0-64.0,-1.0,none,,,-1,500.0,"<div class = fb_box><div class = center-text><font size = 20>Correct!</font></div></div><div class = prompt_box><p class = center-block-text style = ""font-size:16px; line-height:80%%;"">Please respond if the probe was in the memory set.</p><p class = center-block-text style = ""font-size:16px; line-height:80%%;"">In memory set: M Key</p><p class = center-block-text style = ""font-size:16px; line-height:80%%;"">Not in memory set: Z Key</p><p class = center-block-text style = ""font-size:16px; line-height:80%%;"">Do not respond if a star appears around the probe!</p></div>",,,,106865,0.0,,practice-stop-feedback,64,poldrack-single-stim,
65,,,,,,500.0,,,,,,,,stop_signal_with_directed_forgetting,,,,,,0.0-0.0-65.0,-1.0,none,,,-1,500.0,"<div class = centerbox><div class = fixation><span style=""color:white"">+</span></div></div>",,,,107371,0.0,,practice_fixation,65,poldrack-single-stim,
66,,,,,,2000.0,,,,,,,,stop_signal_with_directed_forgetting,,,,,,0.0-0.0-66.0,-1.0,none,,,-1,2000.0,"<div class = bigbox><div class = topLeft><div class = cue-text><img class = center src=""/static/experiments/stop_signal_with_directed_forgetting/images/N.png""></img></div></div><div class = topMiddle><div class = cue-text></div></div><div class = topRight><div class = cue-text><img class = center src=""/static/experiments/stop_signal_with_directed_forgetting/images/E.png""></img></div></div><div class = bottomLeft><div class = cue-text><img class = center src=""/static/experiments/stop_signal_with_directed_forgetting/images/O.png""></img></div></div><div class = bottomMiddle><div class = cue-text></div></div><div class = bottomRight><div class = cue-text><img class = center src=""/static/experiments/stop_signal_with_directed_forgetting/images/L.png""></img></div></div></div>",,,,109382,0.0,,practice_stim,66,poldrack-single-stim,
67,,,,,,1000.0,,,,,,,,stop_signal_with_directed_forgetting,,,,,,0.0-0.0-67.0,-1.0,[],,,-1,1000.0,"<div class = bigbox><div class = centerbox><div class = cue-text><img class = center src=""/static/experiments/stop_signal_with_directed_forgetting/images/TOP.png""></img></font></div></div></div>",,,,110390,0.0,,practice_cue,67,poldrack-single-stim,
68,,,,,,2000.0,,,,,,,,stop_signal_with_directed_forgetting,,,,,,0.0-0.0-68.0,-1.0,none,,,-1,2000.0,"<div class = centerbox><div class = fixation><span style=""color:white"">+</span></div></div>",,,,112397,0.0,,practice_fixation,68,poldrack-single-stim,
69,200.0,500.0,"<div class = bigbox><div class = starbox><img class = center src=""/static/experiments/stop_signal_with_directed_forgetting/images/stopSignal.png""></img></div></div>",go,,1000.0,"['O', 'L']",90.0,1.0,TOP,0.0,10.0,con,stop_signal_with_directed_forgetting,,,,,,0.0-0.0-69.0,90.0,"[77, 90]",M,,545,1000.0,"<div class = bigbox><div class = centerbox><div class = cue-text><img class = center src=""/static/experiments/stop_signal_with_directed_forgetting/images/M.png""></img></font></div></div></div>",,go,,113403,0.0,"['N', 'E']",practice_trial,69,stop-signal,
70,,,,,,1000.0,,,,,,,,stop_signal_with_directed_forgetting,,,,,,0.0-0.0-70.0,-1.0,"[77, 90]",,,-1,1000.0,,,,,114409,0.0,,practice_ITI_fixation,70,poldrack-single-stim,
71,,,,,,500.0,,,,,,,,stop_signal_with_directed_forgetting,,,,,,0.0-0.0-71.0,-1.0,none,,,-1,500.0,"<div class = fb_box><div class = center-text><font size = 20>Correct!</font></div></div><div class = prompt_box><p class = center-block-text style = ""font-size:16px; line-height:80%%;"">Please respond if the probe was in the memory set.</p><p class = center-block-text style = ""font-size:16px; line-height:80%%;"">In memory set: M Key</p><p class = center-block-text style = ""font-size:16px; line-height:80%%;"">Not in memory set: Z Key</p><p class = center-block-text style = ""font-size:16px; line-height:80%%;"">Do not respond if a star appears around the probe!</p></div>",,,,114914,0.0,,practice-stop-feedback,71,poldrack-single-stim,
72,,,,,,500.0,,,,,,,,stop_signal_with_directed_forgetting,,,,,,0.0-0.0-72.0,-1.0,none,,,-1,500.0,"<div class = centerbox><div class = fixation><span style=""color:white"">+</span></div></div>",,,,115420,0.0,,practice_fixation,72,poldrack-single-stim,
73,,,,,,2000.0,,,,,,,,stop_signal_with_directed_forgetting,,,,,,0.0-0.0-73.0,-1.0,none,,,-1,2000.0,"<div class = bigbox><div class = topLeft><div class = cue-text><img class = center src=""/static/experiments/stop_signal_with_directed_forgetting/images/Y.png""></img></div></div><div class = topMiddle><div class = cue-text></div></div><div class = topRight><div class = cue-text><img class = center src=""/static/experiments/stop_signal_with_directed_forgetting/images/G.png""></img></div></div><div class = bottomLeft><div class = cue-text><img class = center src=""/static/experiments/stop_signal_with_directed_forgetting/images/J.png""></img></div></div><div class = bottomMiddle><div class = cue-text></div></div><div class = bottomRight><div class = cue-text><img class = center src=""/static/experiments/stop_signal_with_directed_forgetting/images/V.png""></img></div></div></div>",,,,117427,0.0,,practice_stim,73,poldrack-single-stim,
74,,,,,,1000.0,,,,,,,,stop_signal_with_directed_forgetting,,,,,,0.0-0.0-74.0,-1.0,[],,,-1,1000.0,"<div class = bigbox><div class = centerbox><div class = cue-text><img class = center src=""/static/experiments/stop_signal_with_directed_forgetting/images/BOT.png""></img></font></div></div></div>",,,,118440,0.0,,practice_cue,74,poldrack-single-stim,
75,,,,,,2000.0,,,,,,,,stop_signal_with_directed_forgetting,,,,,,0.0-0.0-75.0,-1.0,none,,,-1,2000.0,"<div class = centerbox><div class = fixation><span style=""color:white"">+</span></div></div>",,,,120446,0.0,,practice_fixation,75,poldrack-single-stim,
76,200.0,500.0,"<div class = bigbox><div class = starbox><img class = center src=""/static/experiments/stop_signal_with_directed_forgetting/images/stopSignal.png""></img></div></div>",stop,,1000.0,"['J', 'V']",-1.0,0.0,BOT,0.0,11.0,pos,stop_signal_with_directed_forgetting,,,,,,0.0-0.0-76.0,90.0,"[77, 90]",Y,,817,1000.0,"<div class = bigbox><div class = centerbox><div class = cue-text><img class = center src=""/static/experiments/stop_signal_with_directed_forgetting/images/Y.png""></img></font></div></div></div>",0.0,stop,,121451,0.0,"['Y', 'G']",practice_trial,76,stop-signal,
77,,,,,,1000.0,,,,,,,,stop_signal_with_directed_forgetting,,,,,,0.0-0.0-77.0,-1.0,"[77, 90]",,,-1,1000.0,,,,,122457,0.0,,practice_ITI_fixation,77,poldrack-single-stim,
78,,,,,,500.0,,,,,,,,stop_signal_with_directed_forgetting,,,,,,0.0-0.0-78.0,-1.0,none,,,-1,500.0,"<div class = fb_box><div class = center-text><font size = 20>There was a star.</font></div></div><div class = prompt_box><p class = center-block-text style = ""font-size:16px; line-height:80%%;"">Please respond if the probe was in the memory set.</p><p class = center-block-text style = ""font-size:16px; line-height:80%%;"">In memory set: M Key</p><p class = center-block-text style = ""font-size:16px; line-height:80%%;"">Not in memory set: Z Key</p><p class = center-block-text style = ""font-size:16px; line-height:80%%;"">Do not respond if a star appears around the probe!</p></div>",,,,122962,0.0,,practice-stop-feedback,78,poldrack-single-stim,
79,,,,,,500.0,,,,,,,,stop_signal_with_directed_forgetting,,,,,,0.0-0.0-79.0,-1.0,none,,,-1,500.0,"<div class = centerbox><div class = fixation><span style=""color:white"">+</span></div></div>",,,,123469,0.0,,practice_fixation,79,poldrack-single-stim,
80,,,,,,2000.0,,,,,,,,stop_signal_with_directed_forgetting,,,,,,0.0-0.0-80.0,-1.0,none,,,-1,2000.0,"<div class = bigbox><div class = topLeft><div class = cue-text><img class = center src=""/static/experiments/stop_signal_with_directed_forgetting/images/Q.png""></img></div></div><div class = topMiddle><div class = cue-text></div></div><div class = topRight><div class = cue-text><img class = center src=""/static/experiments/stop_signal_with_directed_forgetting/images/A.png""></img></div></div><div class = bottomLeft><div class = cue-text><img class = center src=""/static/experiments/stop_signal_with_directed_forgetting/images/M.png""></img></div></div><div class = bottomMiddle><div class = cue-text></div></div><div class = bottomRight><div class = cue-text><img class = center src=""/static/experiments/stop_signal_with_directed_forgetting/images/P.png""></img></div></div></div>",,,,125477,0.0,,practice_stim,80,poldrack-single-stim,
81,,,,,,1000.0,,,,,,,,stop_signal_with_directed_forgetting,,,,,,0.0-0.0-81.0,-1.0,[],,,-1,1000.0,"<div class = bigbox><div class = centerbox><div class = cue-text><img class = center src=""/static/experiments/stop_signal_with_directed_forgetting/images/TOP.png""></img></font></div></div></div>",,,,126484,0.0,,practice_cue,81,poldrack-single-stim,
82,,,,,,2000.0,,,,,,,,stop_signal_with_directed_forgetting,,,,,,0.0-0.0-82.0,-1.0,none,,,-1,2000.0,"<div class = centerbox><div class = fixation><span style=""color:white"">+</span></div></div>",,,,128489,0.0,,practice_fixation,82,poldrack-single-stim,
83,150.0,500.0,"<div class = bigbox><div class = starbox><img class = center src=""/static/experiments/stop_signal_with_directed_forgetting/images/stopSignal.png""></img></div></div>",go,,1000.0,"['M', 'P']",77.0,1.0,TOP,0.0,12.0,pos,stop_signal_with_directed_forgetting,,,,,,0.0-0.0-83.0,77.0,"[77, 90]",M,,604,1000.0,"<div class = bigbox><div class = centerbox><div class = cue-text><img class = center src=""/static/experiments/stop_signal_with_directed_forgetting/images/M.png""></img></font></div></div></div>",,go,,129496,0.0,"['Q', 'A']",practice_trial,83,stop-signal,
84,,,,,,1000.0,,,,,,,,stop_signal_with_directed_forgetting,,,,,,0.0-0.0-84.0,-1.0,"[77, 90]",,,-1,1000.0,,,,,130501,0.0,,practice_ITI_fixation,84,poldrack-single-stim,
85,,,,,,500.0,,,,,,,,stop_signal_with_directed_forgetting,,,,,,0.0-0.0-85.0,-1.0,none,,,-1,500.0,"<div class = fb_box><div class = center-text><font size = 20>Correct!</font></div></div><div class = prompt_box><p class = center-block-text style = ""font-size:16px; line-height:80%%;"">Please respond if the probe was in the memory set.</p><p class = center-block-text style = ""font-size:16px; line-height:80%%;"">In memory set: M Key</p><p class = center-block-text style = ""font-size:16px; line-height:80%%;"">Not in memory set: Z Key</p><p class = center-block-text style = ""font-size:16px; line-height:80%%;"">Do not respond if a star appears around the probe!</p></div>",,,,131007,0.0,,practice-stop-feedback,85,poldrack-single-stim,
86,,,,,,6431.0,,,,,,,,stop_signal_with_directed_forgetting,,,,,,0.0-0.1-0.1,13.0,[13],,,6431,6431.0,<div class = bigbox><div class = picture_box><p class = block-text><br>Please take this time to read your feedback and to take a short break! Press enter to continue</p><p class = block-text>You have not been stopping your response when stars are present.  Please try your best to stop your response if you see a star.</p><p class = block-text>Redoing this practice. Press Enter to continue.</p></div></div>,,,,137464,0.0,,feedback_block,86,poldrack-single-stim,
87,,,,,,,,,,,,,,stop_signal_with_directed_forgetting,,,,,,0.0-0.1-1.1,,,,,6416,,,,,,143880,,,instruction,87,poldrack-instructions,"[{""page_index"":0,""viewing_time"":2368},{""page_index"":1,""viewing_time"":1384},{""page_index"":2,""viewing_time"":1160},{""page_index"":3,""viewing_time"":1503}]"
88,,,,,,500.0,,,,,,,,stop_signal_with_directed_forgetting,,,,,,0.0-0.1-2.1,-1.0,none,,,-1,500.0,"<div class = centerbox><div class = fixation><span style=""color:white"">+</span></div></div>",,,,145386,0.0,,practice_fixation,88,poldrack-single-stim,
89,,,,,,2000.0,,,,,,,,stop_signal_with_directed_forgetting,,,,,,0.0-0.1-3.1,-1.0,none,,,-1,2000.0,"<div class = bigbox><div class = topLeft><div class = cue-text><img class = center src=""/static/experiments/stop_signal_with_directed_forgetting/images/U.png""></img></div></div><div class = topMiddle><div class = cue-text></div></div><div class = topRight><div class = cue-text><img class = center src=""/static/experiments/stop_signal_with_directed_forgetting/images/J.png""></img></div></div><div class = bottomLeft><div class = cue-text><img class = center src=""/static/experiments/stop_signal_with_directed_forgetting/images/N.png""></img></div></div><div class = bottomMiddle><div class = cue-text></div></div><div class = bottomRight><div class = cue-text><img class = center src=""/static/experiments/stop_signal_with_directed_forgetting/images/M.png""></img></div></div></div>",,,,147400,0.0,,practice_stim,89,poldrack-single-stim,
90,,,,,,1000.0,,,,,,,,stop_signal_with_directed_forgetting,,,,,,0.0-0.1-4.1,-1.0,[],,,-1,1000.0,"<div class = bigbox><div class = centerbox><div class = cue-text><img class = center src=""/static/experiments/stop_signal_with_directed_forgetting/images/TOP.png""></img></font></div></div></div>",,,,148404,0.0,,practice_cue,90,poldrack-single-stim,
91,,,,,,2000.0,,,,,,,,stop_signal_with_directed_forgetting,,,,,,0.0-0.1-5.1,-1.0,none,,,-1,2000.0,"<div class = centerbox><div class = fixation><span style=""color:white"">+</span></div></div>",,,,150409,0.0,,practice_fixation,91,poldrack-single-stim,
92,150.0,500.0,"<div class = bigbox><div class = starbox><img class = center src=""/static/experiments/stop_signal_with_directed_forgetting/images/stopSignal.png""></img></div></div>",go,,1000.0,"['N', 'M']",77.0,1.0,TOP,1.0,1.0,pos,stop_signal_with_directed_forgetting,,,,,,0.0-0.1-6.1,77.0,"[77, 90]",N,,669,1000.0,"<div class = bigbox><div class = centerbox><div class = cue-text><img class = center src=""/static/experiments/stop_signal_with_directed_forgetting/images/N.png""></img></font></div></div></div>",,go,,151414,0.0,"['U', 'J']",practice_trial,92,stop-signal,
93,,,,,,1000.0,,,,,,,,stop_signal_with_directed_forgetting,,,,,,0.0-0.1-7.1,-1.0,"[77, 90]",,,-1,1000.0,,,,,152420,0.0,,practice_ITI_fixation,93,poldrack-single-stim,
94,,,,,,500.0,,,,,,,,stop_signal_with_directed_forgetting,,,,,,0.0-0.1-8.1,-1.0,none,,,-1,500.0,"<div class = fb_box><div class = center-text><font size = 20>Correct!</font></div></div><div class = prompt_box><p class = center-block-text style = ""font-size:16px; line-height:80%%;"">Please respond if the probe was in the memory set.</p><p class = center-block-text style = ""font-size:16px; line-height:80%%;"">In memory set: M Key</p><p class = center-block-text style = ""font-size:16px; line-height:80%%;"">Not in memory set: Z Key</p><p class = center-block-text style = ""font-size:16px; line-height:80%%;"">Do not respond if a star appears around the probe!</p></div>",,,,152927,0.0,,practice-stop-feedback,94,poldrack-single-stim,
95,,,,,,500.0,,,,,,,,stop_signal_with_directed_forgetting,,,,,,0.0-0.1-9.1,-1.0,none,,,-1,500.0,"<div class = centerbox><div class = fixation><span style=""color:white"">+</span></div></div>",,,,153433,0.0,,practice_fixation,95,poldrack-single-stim,
96,,,,,,2000.0,,,,,,,,stop_signal_with_directed_forgetting,,,,,,0.0-0.1-10.1,-1.0,none,,,-1,2000.0,"<div class = bigbox><div class = topLeft><div class = cue-text><img class = center src=""/static/experiments/stop_signal_with_directed_forgetting/images/X.png""></img></div></div><div class = topMiddle><div class = cue-text></div></div><div class = topRight><div class = cue-text><img class = center src=""/static/experiments/stop_signal_with_directed_forgetting/images/Z.png""></img></div></div><div class = bottomLeft><div class = cue-text><img class = center src=""/static/experiments/stop_signal_with_directed_forgetting/images/Y.png""></img></div></div><div class = bottomMiddle><div class = cue-text></div></div><div class = bottomRight><div class = cue-text><img class = center src=""/static/experiments/stop_signal_with_directed_forgetting/images/F.png""></img></div></div></div>",,,,155447,0.0,,practice_stim,96,poldrack-single-stim,
97,,,,,,1000.0,,,,,,,,stop_signal_with_directed_forgetting,,,,,,0.0-0.1-11.1,-1.0,[],,,-1,1000.0,"<div class = bigbox><div class = centerbox><div class = cue-text><img class = center src=""/static/experiments/stop_signal_with_directed_forgetting/images/BOT.png""></img></font></div></div></div>",,,,156454,0.0,,practice_cue,97,poldrack-single-stim,
98,,,,,,2000.0,,,,,,,,stop_signal_with_directed_forgetting,,,,,,0.0-0.1-12.1,-1.0,none,,,-1,2000.0,"<div class = centerbox><div class = fixation><span style=""color:white"">+</span></div></div>",,,,158460,0.0,,practice_fixation,98,poldrack-single-stim,
99,150.0,500.0,"<div class = bigbox><div class = starbox><img class = center src=""/static/experiments/stop_signal_with_directed_forgetting/images/stopSignal.png""></img></div></div>",go,,1000.0,"['Y', 'F']",77.0,0.0,BOT,1.0,2.0,pos,stop_signal_with_directed_forgetting,,,,,,0.0-0.1-13.1,90.0,"[77, 90]",X,,799,1000.0,"<div class = bigbox><div class = centerbox><div class = cue-text><img class = center src=""/static/experiments/stop_signal_with_directed_forgetting/images/X.png""></img></font></div></div></div>",,go,,159468,0.0,"['X', 'Z']",practice_trial,99,stop-signal,
100,,,,,,1000.0,,,,,,,,stop_signal_with_directed_forgetting,,,,,,0.0-0.1-14.1,-1.0,"[77, 90]",,,-1,1000.0,,,,,160475,0.0,,practice_ITI_fixation,100,poldrack-single-stim,
101,,,,,,500.0,,,,,,,,stop_signal_with_directed_forgetting,,,,,,0.0-0.1-15.1,-1.0,none,,,-1,500.0,"<div class = fb_box><div class = center-text><font size = 20>Incorrect</font></div></div><div class = prompt_box><p class = center-block-text style = ""font-size:16px; line-height:80%%;"">Please respond if the probe was in the memory set.</p><p class = center-block-text style = ""font-size:16px; line-height:80%%;"">In memory set: M Key</p><p class = center-block-text style = ""font-size:16px; line-height:80%%;"">Not in memory set: Z Key</p><p class = center-block-text style = ""font-size:16px; line-height:80%%;"">Do not respond if a star appears around the probe!</p></div>",,,,160981,0.0,,practice-stop-feedback,101,poldrack-single-stim,
102,,,,,,500.0,,,,,,,,stop_signal_with_directed_forgetting,,,,,,0.0-0.1-16.1,-1.0,none,,,-1,500.0,"<div class = centerbox><div class = fixation><span style=""color:white"">+</span></div></div>",,,,161487,0.0,,practice_fixation,102,poldrack-single-stim,
103,,,,,,2000.0,,,,,,,,stop_signal_with_directed_forgetting,,,,,,0.0-0.1-17.1,-1.0,none,,,-1,2000.0,"<div class = bigbox><div class = topLeft><div class = cue-text><img class = center src=""/static/experiments/stop_signal_with_directed_forgetting/images/W.png""></img></div></div><div class = topMiddle><div class = cue-text></div></div><div class = topRight><div class = cue-text><img class = center src=""/static/experiments/stop_signal_with_directed_forgetting/images/I.png""></img></div></div><div class = bottomLeft><div class = cue-text><img class = center src=""/static/experiments/stop_signal_with_directed_forgetting/images/S.png""></img></div></div><div class = bottomMiddle><div class = cue-text></div></div><div class = bottomRight><div class = cue-text><img class = center src=""/static/experiments/stop_signal_with_directed_forgetting/images/V.png""></img></div></div></div>",,,,163496,0.0,,practice_stim,103,poldrack-single-stim,
104,,,,,,1000.0,,,,,,,,stop_signal_with_directed_forgetting,,,,,,0.0-0.1-18.1,-1.0,[],,,-1,1000.0,"<div class = bigbox><div class = centerbox><div class = cue-text><img class = center src=""/static/experiments/stop_signal_with_directed_forgetting/images/BOT.png""></img></font></div></div></div>",,,,164503,0.0,,practice_cue,104,poldrack-single-stim,
105,,,,,,2000.0,,,,,,,,stop_signal_with_directed_forgetting,,,,,,0.0-0.1-19.1,-1.0,none,,,-1,2000.0,"<div class = centerbox><div class = fixation><span style=""color:white"">+</span></div></div>",,,,166510,0.0,,practice_fixation,105,poldrack-single-stim,
106,150.0,500.0,"<div class = bigbox><div class = starbox><img class = center src=""/static/experiments/stop_signal_with_directed_forgetting/images/stopSignal.png""></img></div></div>",go,,1000.0,"['S', 'V']",77.0,1.0,BOT,1.0,3.0,pos,stop_signal_with_directed_forgetting,,,,,,0.0-0.1-20.1,77.0,"[77, 90]",I,,557,1000.0,"<div class = bigbox><div class = centerbox><div class = cue-text><img class = center src=""/static/experiments/stop_signal_with_directed_forgetting/images/I.png""></img></font></div></div></div>",,go,,167518,0.0,"['W', 'I']",practice_trial,106,stop-signal,
107,,,,,,1000.0,,,,,,,,stop_signal_with_directed_forgetting,,,,,,0.0-0.1-21.1,-1.0,"[77, 90]",,,-1,1000.0,,,,,168525,0.0,,practice_ITI_fixation,107,poldrack-single-stim,
108,,,,,,500.0,,,,,,,,stop_signal_with_directed_forgetting,,,,,,0.0-0.1-22.1,-1.0,none,,,-1,500.0,"<div class = fb_box><div class = center-text><font size = 20>Correct!</font></div></div><div class = prompt_box><p class = center-block-text style = ""font-size:16px; line-height:80%%;"">Please respond if the probe was in the memory set.</p><p class = center-block-text style = ""font-size:16px; line-height:80%%;"">In memory set: M Key</p><p class = center-block-text style = ""font-size:16px; line-height:80%%;"">Not in memory set: Z Key</p><p class = center-block-text style = ""font-size:16px; line-height:80%%;"">Do not respond if a star appears around the probe!</p></div>",,,,169032,0.0,,practice-stop-feedback,108,poldrack-single-stim,
109,,,,,,500.0,,,,,,,,stop_signal_with_directed_forgetting,,,,,,0.0-0.1-23.1,-1.0,none,,,-1,500.0,"<div class = centerbox><div class = fixation><span style=""color:white"">+</span></div></div>",,,,169538,0.0,,practice_fixation,109,poldrack-single-stim,
110,,,,,,2000.0,,,,,,,,stop_signal_with_directed_forgetting,,,,,,0.0-0.1-24.1,-1.0,none,,,-1,2000.0,"<div class = bigbox><div class = topLeft><div class = cue-text><img class = center src=""/static/experiments/stop_signal_with_directed_forgetting/images/K.png""></img></div></div><div class = topMiddle><div class = cue-text></div></div><div class = topRight><div class = cue-text><img class = center src=""/static/experiments/stop_signal_with_directed_forgetting/images/J.png""></img></div></div><div class = bottomLeft><div class = cue-text><img class = center src=""/static/experiments/stop_signal_with_directed_forgetting/images/P.png""></img></div></div><div class = bottomMiddle><div class = cue-text></div></div><div class = bottomRight><div class = cue-text><img class = center src=""/static/experiments/stop_signal_with_directed_forgetting/images/H.png""></img></div></div></div>",,,,171545,0.0,,practice_stim,110,poldrack-single-stim,
111,,,,,,1000.0,,,,,,,,stop_signal_with_directed_forgetting,,,,,,0.0-0.1-25.1,-1.0,[],,,-1,1000.0,"<div class = bigbox><div class = centerbox><div class = cue-text><img class = center src=""/static/experiments/stop_signal_with_directed_forgetting/images/TOP.png""></img></font></div></div></div>",,,,172552,0.0,,practice_cue,111,poldrack-single-stim,
112,,,,,,2000.0,,,,,,,,stop_signal_with_directed_forgetting,,,,,,0.0-0.1-26.1,-1.0,none,,,-1,2000.0,"<div class = centerbox><div class = fixation><span style=""color:white"">+</span></div></div>",,,,174558,0.0,,practice_fixation,112,poldrack-single-stim,
113,150.0,500.0,"<div class = bigbox><div class = starbox><img class = center src=""/static/experiments/stop_signal_with_directed_forgetting/images/stopSignal.png""></img></div></div>",stop,,1000.0,"['P', 'H']",-1.0,1.0,TOP,1.0,4.0,pos,stop_signal_with_directed_forgetting,,,,,,0.0-0.1-27.1,-1.0,"[77, 90]",P,,-1,1000.0,"<div class = bigbox><div class = centerbox><div class = cue-text><img class = center src=""/static/experiments/stop_signal_with_directed_forgetting/images/P.png""></img></font></div></div></div>",1.0,stop,,175566,0.0,"['K', 'J']",practice_trial,113,stop-signal,
114,,,,,,1000.0,,,,,,,,stop_signal_with_directed_forgetting,,,,,,0.0-0.1-28.1,-1.0,"[77, 90]",,,-1,1000.0,,,,,176573,0.0,,practice_ITI_fixation,114,poldrack-single-stim,
115,,,,,,500.0,,,,,,,,stop_signal_with_directed_forgetting,,,,,,0.0-0.1-29.1,-1.0,none,,,-1,500.0,"<div class = fb_box><div class = center-text><font size = 20>Correct!</font></div></div><div class = prompt_box><p class = center-block-text style = ""font-size:16px; line-height:80%%;"">Please respond if the probe was in the memory set.</p><p class = center-block-text style = ""font-size:16px; line-height:80%%;"">In memory set: M Key</p><p class = center-block-text style = ""font-size:16px; line-height:80%%;"">Not in memory set: Z Key</p><p class = center-block-text style = ""font-size:16px; line-height:80%%;"">Do not respond if a star appears around the probe!</p></div>",,,,177079,0.0,,practice-stop-feedback,115,poldrack-single-stim,
116,,,,,,500.0,,,,,,,,stop_signal_with_directed_forgetting,,,,,,0.0-0.1-30.1,-1.0,none,,,-1,500.0,"<div class = centerbox><div class = fixation><span style=""color:white"">+</span></div></div>",,,,177585,0.0,,practice_fixation,116,poldrack-single-stim,
117,,,,,,2000.0,,,,,,,,stop_signal_with_directed_forgetting,,,,,,0.0-0.1-31.1,-1.0,none,,,-1,2000.0,"<div class = bigbox><div class = topLeft><div class = cue-text><img class = center src=""/static/experiments/stop_signal_with_directed_forgetting/images/X.png""></img></div></div><div class = topMiddle><div class = cue-text></div></div><div class = topRight><div class = cue-text><img class = center src=""/static/experiments/stop_signal_with_directed_forgetting/images/R.png""></img></div></div><div class = bottomLeft><div class = cue-text><img class = center src=""/static/experiments/stop_signal_with_directed_forgetting/images/C.png""></img></div></div><div class = bottomMiddle><div class = cue-text></div></div><div class = bottomRight><div class = cue-text><img class = center src=""/static/experiments/stop_signal_with_directed_forgetting/images/O.png""></img></div></div></div>",,,,179591,0.0,,practice_stim,117,poldrack-single-stim,
118,,,,,,1000.0,,,,,,,,stop_signal_with_directed_forgetting,,,,,,0.0-0.1-32.1,-1.0,[],,,-1,1000.0,"<div class = bigbox><div class = centerbox><div class = cue-text><img class = center src=""/static/experiments/stop_signal_with_directed_forgetting/images/BOT.png""></img></font></div></div></div>",,,,180597,0.0,,practice_cue,118,poldrack-single-stim,
119,,,,,,2000.0,,,,,,,,stop_signal_with_directed_forgetting,,,,,,0.0-0.1-33.1,-1.0,none,,,-1,2000.0,"<div class = centerbox><div class = fixation><span style=""color:white"">+</span></div></div>",,,,182604,0.0,,practice_fixation,119,poldrack-single-stim,
120,200.0,500.0,"<div class = bigbox><div class = starbox><img class = center src=""/static/experiments/stop_signal_with_directed_forgetting/images/stopSignal.png""></img></div></div>",go,,1000.0,"['C', 'O']",90.0,1.0,BOT,1.0,5.0,con,stop_signal_with_directed_forgetting,,,,,,0.0-0.1-34.1,90.0,"[77, 90]",P,,645,1000.0,"<div class = bigbox><div class = centerbox><div class = cue-text><img class = center src=""/static/experiments/stop_signal_with_directed_forgetting/images/P.png""></img></font></div></div></div>",,go,,183614,0.0,"['X', 'R']",practice_trial,120,stop-signal,
121,,,,,,1000.0,,,,,,,,stop_signal_with_directed_forgetting,,,,,,0.0-0.1-35.1,-1.0,"[77, 90]",,,-1,1000.0,,,,,184619,0.0,,practice_ITI_fixation,121,poldrack-single-stim,
122,,,,,,500.0,,,,,,,,stop_signal_with_directed_forgetting,,,,,,0.0-0.1-36.1,-1.0,none,,,-1,500.0,"<div class = fb_box><div class = center-text><font size = 20>Correct!</font></div></div><div class = prompt_box><p class = center-block-text style = ""font-size:16px; line-height:80%%;"">Please respond if the probe was in the memory set.</p><p class = center-block-text style = ""font-size:16px; line-height:80%%;"">In memory set: M Key</p><p class = center-block-text style = ""font-size:16px; line-height:80%%;"">Not in memory set: Z Key</p><p class = center-block-text style = ""font-size:16px; line-height:80%%;"">Do not respond if a star appears around the probe!</p></div>",,,,185122,0.0,,practice-stop-feedback,122,poldrack-single-stim,
123,,,,,,500.0,,,,,,,,stop_signal_with_directed_forgetting,,,,,,0.0-0.1-37.1,-1.0,none,,,-1,500.0,"<div class = centerbox><div class = fixation><span style=""color:white"">+</span></div></div>",,,,185628,0.0,,practice_fixation,123,poldrack-single-stim,
124,,,,,,2000.0,,,,,,,,stop_signal_with_directed_forgetting,,,,,,0.0-0.1-38.1,-1.0,none,,,-1,2000.0,"<div class = bigbox><div class = topLeft><div class = cue-text><img class = center src=""/static/experiments/stop_signal_with_directed_forgetting/images/N.png""></img></div></div><div class = topMiddle><div class = cue-text></div></div><div class = topRight><div class = cue-text><img class = center src=""/static/experiments/stop_signal_with_directed_forgetting/images/G.png""></img></div></div><div class = bottomLeft><div class = cue-text><img class = center src=""/static/experiments/stop_signal_with_directed_forgetting/images/Q.png""></img></div></div><div class = bottomMiddle><div class = cue-text></div></div><div class = bottomRight><div class = cue-text><img class = center src=""/static/experiments/stop_signal_with_directed_forgetting/images/D.png""></img></div></div></div>",,,,187636,0.0,,practice_stim,124,poldrack-single-stim,
125,,,,,,1000.0,,,,,,,,stop_signal_with_directed_forgetting,,,,,,0.0-0.1-39.1,-1.0,[],,,-1,1000.0,"<div class = bigbox><div class = centerbox><div class = cue-text><img class = center src=""/static/experiments/stop_signal_with_directed_forgetting/images/BOT.png""></img></font></div></div></div>",,,,188643,0.0,,practice_cue,125,poldrack-single-stim,
126,,,,,,2000.0,,,,,,,,stop_signal_with_directed_forgetting,,,,,,0.0-0.1-40.1,-1.0,none,,,-1,2000.0,"<div class = centerbox><div class = fixation><span style=""color:white"">+</span></div></div>",,,,190650,0.0,,practice_fixation,126,poldrack-single-stim,
127,200.0,500.0,"<div class = bigbox><div class = starbox><img class = center src=""/static/experiments/stop_signal_with_directed_forgetting/images/stopSignal.png""></img></div></div>",stop,,1000.0,"['Q', 'D']",-1.0,1.0,BOT,1.0,6.0,pos,stop_signal_with_directed_forgetting,,,,,,0.0-0.1-41.1,-1.0,"[77, 90]",N,,-1,1000.0,"<div class = bigbox><div class = centerbox><div class = cue-text><img class = center src=""/static/experiments/stop_signal_with_directed_forgetting/images/N.png""></img></font></div></div></div>",1.0,stop,,191658,0.0,"['N', 'G']",practice_trial,127,stop-signal,
128,,,,,,1000.0,,,,,,,,stop_signal_with_directed_forgetting,,,,,,0.0-0.1-42.1,-1.0,"[77, 90]",,,-1,1000.0,,,,,192667,0.0,,practice_ITI_fixation,128,poldrack-single-stim,
129,,,,,,500.0,,,,,,,,stop_signal_with_directed_forgetting,,,,,,0.0-0.1-43.1,-1.0,none,,,-1,500.0,"<div class = fb_box><div class = center-text><font size = 20>Correct!</font></div></div><div class = prompt_box><p class = center-block-text style = ""font-size:16px; line-height:80%%;"">Please respond if the probe was in the memory set.</p><p class = center-block-text style = ""font-size:16px; line-height:80%%;"">In memory set: M Key</p><p class = center-block-text style = ""font-size:16px; line-height:80%%;"">Not in memory set: Z Key</p><p class = center-block-text style = ""font-size:16px; line-height:80%%;"">Do not respond if a star appears around the probe!</p></div>",,,,193173,0.0,,practice-stop-feedback,129,poldrack-single-stim,
130,,,,,,500.0,,,,,,,,stop_signal_with_directed_forgetting,,,,,,0.0-0.1-44.1,-1.0,none,,,-1,500.0,"<div class = centerbox><div class = fixation><span style=""color:white"">+</span></div></div>",,,,193681,0.0,,practice_fixation,130,poldrack-single-stim,
131,,,,,,2000.0,,,,,,,,stop_signal_with_directed_forgetting,,,,,,0.0-0.1-45.1,-1.0,none,,,-1,2000.0,"<div class = bigbox><div class = topLeft><div class = cue-text><img class = center src=""/static/experiments/stop_signal_with_directed_forgetting/images/L.png""></img></div></div><div class = topMiddle><div class = cue-text></div></div><div class = topRight><div class = cue-text><img class = center src=""/static/experiments/stop_signal_with_directed_forgetting/images/J.png""></img></div></div><div class = bottomLeft><div class = cue-text><img class = center src=""/static/experiments/stop_signal_with_directed_forgetting/images/A.png""></img></div></div><div class = bottomMiddle><div class = cue-text></div></div><div class = bottomRight><div class = cue-text><img class = center src=""/static/experiments/stop_signal_with_directed_forgetting/images/V.png""></img></div></div></div>",,,,195687,0.0,,practice_stim,131,poldrack-single-stim,
132,,,,,,1000.0,,,,,,,,stop_signal_with_directed_forgetting,,,,,,0.0-0.1-46.1,-1.0,[],,,-1,1000.0,"<div class = bigbox><div class = centerbox><div class = cue-text><img class = center src=""/static/experiments/stop_signal_with_directed_forgetting/images/TOP.png""></img></font></div></div></div>",,,,196693,0.0,,practice_cue,132,poldrack-single-stim,
133,,,,,,2000.0,,,,,,,,stop_signal_with_directed_forgetting,,,,,,0.0-0.1-47.1,-1.0,none,,,-1,2000.0,"<div class = centerbox><div class = fixation><span style=""color:white"">+</span></div></div>",,,,198699,0.0,,practice_fixation,133,poldrack-single-stim,
134,250.0,500.0,"<div class = bigbox><div class = starbox><img class = center src=""/static/experiments/stop_signal_with_directed_forgetting/images/stopSignal.png""></img></div></div>",go,,1000.0,"['A', 'V']",90.0,0.0,TOP,1.0,7.0,neg,stop_signal_with_directed_forgetting,,,,,,0.0-0.1-48.1,77.0,"[77, 90]",J,,697,1000.0,"<div class = bigbox><div class = centerbox><div class = cue-text><img class = center src=""/static/experiments/stop_signal_with_directed_forgetting/images/J.png""></img></font></div></div></div>",,go,,199707,0.0,"['L', 'J']",practice_trial,134,stop-signal,
135,,,,,,1000.0,,,,,,,,stop_signal_with_directed_forgetting,,,,,,0.0-0.1-49.1,-1.0,"[77, 90]",,,-1,1000.0,,,,,200718,0.0,,practice_ITI_fixation,135,poldrack-single-stim,
136,,,,,,500.0,,,,,,,,stop_signal_with_directed_forgetting,,,,,,0.0-0.1-50.1,-1.0,none,,,-1,500.0,"<div class = fb_box><div class = center-text><font size = 20>Incorrect</font></div></div><div class = prompt_box><p class = center-block-text style = ""font-size:16px; line-height:80%%;"">Please respond if the probe was in the memory set.</p><p class = center-block-text style = ""font-size:16px; line-height:80%%;"">In memory set: M Key</p><p class = center-block-text style = ""font-size:16px; line-height:80%%;"">Not in memory set: Z Key</p><p class = center-block-text style = ""font-size:16px; line-height:80%%;"">Do not respond if a star appears around the probe!</p></div>",,,,201223,0.0,,practice-stop-feedback,136,poldrack-single-stim,
137,,,,,,500.0,,,,,,,,stop_signal_with_directed_forgetting,,,,,,0.0-0.1-51.1,-1.0,none,,,-1,500.0,"<div class = centerbox><div class = fixation><span style=""color:white"">+</span></div></div>",,,,201727,0.0,,practice_fixation,137,poldrack-single-stim,
138,,,,,,2000.0,,,,,,,,stop_signal_with_directed_forgetting,,,,,,0.0-0.1-52.1,-1.0,none,,,-1,2000.0,"<div class = bigbox><div class = topLeft><div class = cue-text><img class = center src=""/static/experiments/stop_signal_with_directed_forgetting/images/T.png""></img></div></div><div class = topMiddle><div class = cue-text></div></div><div class = topRight><div class = cue-text><img class = center src=""/static/experiments/stop_signal_with_directed_forgetting/images/I.png""></img></div></div><div class = bottomLeft><div class = cue-text><img class = center src=""/static/experiments/stop_signal_with_directed_forgetting/images/R.png""></img></div></div><div class = bottomMiddle><div class = cue-text></div></div><div class = bottomRight><div class = cue-text><img class = center src=""/static/experiments/stop_signal_with_directed_forgetting/images/H.png""></img></div></div></div>",,,,203734,0.0,,practice_stim,138,poldrack-single-stim,
139,,,,,,1000.0,,,,,,,,stop_signal_with_directed_forgetting,,,,,,0.0-0.1-53.1,-1.0,[],,,-1,1000.0,"<div class = bigbox><div class = centerbox><div class = cue-text><img class = center src=""/static/experiments/stop_signal_with_directed_forgetting/images/BOT.png""></img></font></div></div></div>",,,,204741,0.0,,practice_cue,139,poldrack-single-stim,
140,,,,,,2000.0,,,,,,,,stop_signal_with_directed_forgetting,,,,,,0.0-0.1-54.1,-1.0,none,,,-1,2000.0,"<div class = centerbox><div class = fixation><span style=""color:white"">+</span></div></div>",,,,206747,0.0,,practice_fixation,140,poldrack-single-stim,
141,250.0,500.0,"<div class = bigbox><div class = starbox><img class = center src=""/static/experiments/stop_signal_with_directed_forgetting/images/stopSignal.png""></img></div></div>",stop,,1000.0,"['R', 'H']",-1.0,0.0,BOT,1.0,8.0,con,stop_signal_with_directed_forgetting,,,,,,0.0-0.1-55.1,90.0,"[77, 90]",M,,712,1000.0,"<div class = bigbox><div class = centerbox><div class = cue-text><img class = center src=""/static/experiments/stop_signal_with_directed_forgetting/images/M.png""></img></font></div></div></div>",0.0,stop,,207753,0.0,"['T', 'I']",practice_trial,141,stop-signal,
142,,,,,,1000.0,,,,,,,,stop_signal_with_directed_forgetting,,,,,,0.0-0.1-56.1,-1.0,"[77, 90]",,,-1,1000.0,,,,,208759,0.0,,practice_ITI_fixation,142,poldrack-single-stim,
143,,,,,,500.0,,,,,,,,stop_signal_with_directed_forgetting,,,,,,0.0-0.1-57.1,-1.0,none,,,-1,500.0,"<div class = fb_box><div class = center-text><font size = 20>There was a star.</font></div></div><div class = prompt_box><p class = center-block-text style = ""font-size:16px; line-height:80%%;"">Please respond if the probe was in the memory set.</p><p class = center-block-text style = ""font-size:16px; line-height:80%%;"">In memory set: M Key</p><p class = center-block-text style = ""font-size:16px; line-height:80%%;"">Not in memory set: Z Key</p><p class = center-block-text style = ""font-size:16px; line-height:80%%;"">Do not respond if a star appears around the probe!</p></div>",,,,209264,0.0,,practice-stop-feedback,143,poldrack-single-stim,
144,,,,,,500.0,,,,,,,,stop_signal_with_directed_forgetting,,,,,,0.0-0.1-58.1,-1.0,none,,,-1,500.0,"<div class = centerbox><div class = fixation><span style=""color:white"">+</span></div></div>",,,,209771,0.0,,practice_fixation,144,poldrack-single-stim,
145,,,,,,2000.0,,,,,,,,stop_signal_with_directed_forgetting,,,,,,0.0-0.1-59.1,-1.0,none,,,-1,2000.0,"<div class = bigbox><div class = topLeft><div class = cue-text><img class = center src=""/static/experiments/stop_signal_with_directed_forgetting/images/Q.png""></img></div></div><div class = topMiddle><div class = cue-text></div></div><div class = topRight><div class = cue-text><img class = center src=""/static/experiments/stop_signal_with_directed_forgetting/images/U.png""></img></div></div><div class = bottomLeft><div class = cue-text><img class = center src=""/static/experiments/stop_signal_with_directed_forgetting/images/O.png""></img></div></div><div class = bottomMiddle><div class = cue-text></div></div><div class = bottomRight><div class = cue-text><img class = center src=""/static/experiments/stop_signal_with_directed_forgetting/images/S.png""></img></div></div></div>",,,,211778,0.0,,practice_stim,145,poldrack-single-stim,
146,,,,,,1000.0,,,,,,,,stop_signal_with_directed_forgetting,,,,,,0.0-0.1-60.1,-1.0,[],,,-1,1000.0,"<div class = bigbox><div class = centerbox><div class = cue-text><img class = center src=""/static/experiments/stop_signal_with_directed_forgetting/images/TOP.png""></img></font></div></div></div>",,,,212781,0.0,,practice_cue,146,poldrack-single-stim,
147,,,,,,2000.0,,,,,,,,stop_signal_with_directed_forgetting,,,,,,0.0-0.1-61.1,-1.0,none,,,-1,2000.0,"<div class = centerbox><div class = fixation><span style=""color:white"">+</span></div></div>",,,,214787,0.0,,practice_fixation,147,poldrack-single-stim,
148,200.0,500.0,"<div class = bigbox><div class = starbox><img class = center src=""/static/experiments/stop_signal_with_directed_forgetting/images/stopSignal.png""></img></div></div>",go,,1000.0,"['O', 'S']",77.0,1.0,TOP,1.0,9.0,pos,stop_signal_with_directed_forgetting,,,,,,0.0-0.1-62.1,77.0,"[77, 90]",S,,704,1000.0,"<div class = bigbox><div class = centerbox><div class = cue-text><img class = center src=""/static/experiments/stop_signal_with_directed_forgetting/images/S.png""></img></font></div></div></div>",,go,,215793,0.0,"['Q', 'U']",practice_trial,148,stop-signal,
149,,,,,,1000.0,,,,,,,,stop_signal_with_directed_forgetting,,,,,,0.0-0.1-63.1,-1.0,"[77, 90]",,,-1,1000.0,,,,,216797,0.0,,practice_ITI_fixation,149,poldrack-single-stim,
150,,,,,,500.0,,,,,,,,stop_signal_with_directed_forgetting,,,,,,0.0-0.1-64.1,-1.0,none,,,-1,500.0,"<div class = fb_box><div class = center-text><font size = 20>Correct!</font></div></div><div class = prompt_box><p class = center-block-text style = ""font-size:16px; line-height:80%%;"">Please respond if the probe was in the memory set.</p><p class = center-block-text style = ""font-size:16px; line-height:80%%;"">In memory set: M Key</p><p class = center-block-text style = ""font-size:16px; line-height:80%%;"">Not in memory set: Z Key</p><p class = center-block-text style = ""font-size:16px; line-height:80%%;"">Do not respond if a star appears around the probe!</p></div>",,,,217303,0.0,,practice-stop-feedback,150,poldrack-single-stim,
151,,,,,,500.0,,,,,,,,stop_signal_with_directed_forgetting,,,,,,0.0-0.1-65.1,-1.0,none,,,-1,500.0,"<div class = centerbox><div class = fixation><span style=""color:white"">+</span></div></div>",,,,217810,0.0,,practice_fixation,151,poldrack-single-stim,
152,,,,,,2000.0,,,,,,,,stop_signal_with_directed_forgetting,,,,,,0.0-0.1-66.1,-1.0,none,,,-1,2000.0,"<div class = bigbox><div class = topLeft><div class = cue-text><img class = center src=""/static/experiments/stop_signal_with_directed_forgetting/images/M.png""></img></div></div><div class = topMiddle><div class = cue-text></div></div><div class = topRight><div class = cue-text><img class = center src=""/static/experiments/stop_signal_with_directed_forgetting/images/G.png""></img></div></div><div class = bottomLeft><div class = cue-text><img class = center src=""/static/experiments/stop_signal_with_directed_forgetting/images/L.png""></img></div></div><div class = bottomMiddle><div class = cue-text></div></div><div class = bottomRight><div class = cue-text><img class = center src=""/static/experiments/stop_signal_with_directed_forgetting/images/E.png""></img></div></div></div>",,,,219818,0.0,,practice_stim,152,poldrack-single-stim,
153,,,,,,1000.0,,,,,,,,stop_signal_with_directed_forgetting,,,,,,0.0-0.1-67.1,-1.0,[],,,-1,1000.0,"<div class = bigbox><div class = centerbox><div class = cue-text><img class = center src=""/static/experiments/stop_signal_with_directed_forgetting/images/BOT.png""></img></font></div></div></div>",,,,220824,0.0,,practice_cue,153,poldrack-single-stim,
154,,,,,,2000.0,,,,,,,,stop_signal_with_directed_forgetting,,,,,,0.0-0.1-68.1,-1.0,none,,,-1,2000.0,"<div class = centerbox><div class = fixation><span style=""color:white"">+</span></div></div>",,,,222833,0.0,,practice_fixation,154,poldrack-single-stim,
155,200.0,500.0,"<div class = bigbox><div class = starbox><img class = center src=""/static/experiments/stop_signal_with_directed_forgetting/images/stopSignal.png""></img></div></div>",go,,1000.0,"['L', 'E']",90.0,1.0,BOT,1.0,10.0,neg,stop_signal_with_directed_forgetting,,,,,,0.0-0.1-69.1,90.0,"[77, 90]",L,,906,1000.0,"<div class = bigbox><div class = centerbox><div class = cue-text><img class = center src=""/static/experiments/stop_signal_with_directed_forgetting/images/L.png""></img></font></div></div></div>",,go,,223839,0.0,"['M', 'G']",practice_trial,155,stop-signal,
156,,,,,,1000.0,,,,,,,,stop_signal_with_directed_forgetting,,,,,,0.0-0.1-70.1,-1.0,"[77, 90]",,,-1,1000.0,,,,,224845,0.0,,practice_ITI_fixation,156,poldrack-single-stim,
157,,,,,,500.0,,,,,,,,stop_signal_with_directed_forgetting,,,,,,0.0-0.1-71.1,-1.0,none,,,-1,500.0,"<div class = fb_box><div class = center-text><font size = 20>Correct!</font></div></div><div class = prompt_box><p class = center-block-text style = ""font-size:16px; line-height:80%%;"">Please respond if the probe was in the memory set.</p><p class = center-block-text style = ""font-size:16px; line-height:80%%;"">In memory set: M Key</p><p class = center-block-text style = ""font-size:16px; line-height:80%%;"">Not in memory set: Z Key</p><p class = center-block-text style = ""font-size:16px; line-height:80%%;"">Do not respond if a star appears around the probe!</p></div>",,,,225350,0.0,,practice-stop-feedback,157,poldrack-single-stim,
158,,,,,,500.0,,,,,,,,stop_signal_with_directed_forgetting,,,,,,0.0-0.1-72.1,-1.0,none,,,-1,500.0,"<div class = centerbox><div class = fixation><span style=""color:white"">+</span></div></div>",,,,225857,0.0,,practice_fixation,158,poldrack-single-stim,
159,,,,,,2000.0,,,,,,,,stop_signal_with_directed_forgetting,,,,,,0.0-0.1-73.1,-1.0,none,,,-1,2000.0,"<div class = bigbox><div class = topLeft><div class = cue-text><img class = center src=""/static/experiments/stop_signal_with_directed_forgetting/images/V.png""></img></div></div><div class = topMiddle><div class = cue-text></div></div><div class = topRight><div class = cue-text><img class = center src=""/static/experiments/stop_signal_with_directed_forgetting/images/J.png""></img></div></div><div class = bottomLeft><div class = cue-text><img class = center src=""/static/experiments/stop_signal_with_directed_forgetting/images/T.png""></img></div></div><div class = bottomMiddle><div class = cue-text></div></div><div class = bottomRight><div class = cue-text><img class = center src=""/static/experiments/stop_signal_with_directed_forgetting/images/B.png""></img></div></div></div>",,,,227867,0.0,,practice_stim,159,poldrack-single-stim,
160,,,,,,1000.0,,,,,,,,stop_signal_with_directed_forgetting,,,,,,0.0-0.1-74.1,-1.0,[],,,-1,1000.0,"<div class = bigbox><div class = centerbox><div class = cue-text><img class = center src=""/static/experiments/stop_signal_with_directed_forgetting/images/BOT.png""></img></font></div></div></div>",,,,228875,0.0,,practice_cue,160,poldrack-single-stim,
161,,,,,,2000.0,,,,,,,,stop_signal_with_directed_forgetting,,,,,,0.0-0.1-75.1,-1.0,none,,,-1,2000.0,"<div class = centerbox><div class = fixation><span style=""color:white"">+</span></div></div>",,,,230882,0.0,,practice_fixation,161,poldrack-single-stim,
162,200.0,500.0,"<div class = bigbox><div class = starbox><img class = center src=""/static/experiments/stop_signal_with_directed_forgetting/images/stopSignal.png""></img></div></div>",go,,1000.0,"['T', 'B']",90.0,1.0,BOT,1.0,11.0,con,stop_signal_with_directed_forgetting,,,,,,0.0-0.1-76.1,90.0,"[77, 90]",P,,683,1000.0,"<div class = bigbox><div class = centerbox><div class = cue-text><img class = center src=""/static/experiments/stop_signal_with_directed_forgetting/images/P.png""></img></font></div></div></div>",,go,,231888,0.0,"['V', 'J']",practice_trial,162,stop-signal,
163,,,,,,1000.0,,,,,,,,stop_signal_with_directed_forgetting,,,,,,0.0-0.1-77.1,-1.0,"[77, 90]",,,-1,1000.0,,,,,232895,0.0,,practice_ITI_fixation,163,poldrack-single-stim,
164,,,,,,500.0,,,,,,,,stop_signal_with_directed_forgetting,,,,,,0.0-0.1-78.1,-1.0,none,,,-1,500.0,"<div class = fb_box><div class = center-text><font size = 20>Correct!</font></div></div><div class = prompt_box><p class = center-block-text style = ""font-size:16px; line-height:80%%;"">Please respond if the probe was in the memory set.</p><p class = center-block-text style = ""font-size:16px; line-height:80%%;"">In memory set: M Key</p><p class = center-block-text style = ""font-size:16px; line-height:80%%;"">Not in memory set: Z Key</p><p class = center-block-text style = ""font-size:16px; line-height:80%%;"">Do not respond if a star appears around the probe!</p></div>",,,,233402,0.0,,practice-stop-feedback,164,poldrack-single-stim,
165,,,,,,500.0,,,,,,,,stop_signal_with_directed_forgetting,,,,,,0.0-0.1-79.1,-1.0,none,,,-1,500.0,"<div class = centerbox><div class = fixation><span style=""color:white"">+</span></div></div>",,,,233909,0.0,,practice_fixation,165,poldrack-single-stim,
166,,,,,,2000.0,,,,,,,,stop_signal_with_directed_forgetting,,,,,,0.0-0.1-80.1,-1.0,none,,,-1,2000.0,"<div class = bigbox><div class = topLeft><div class = cue-text><img class = center src=""/static/experiments/stop_signal_with_directed_forgetting/images/Q.png""></img></div></div><div class = topMiddle><div class = cue-text></div></div><div class = topRight><div class = cue-text><img class = center src=""/static/experiments/stop_signal_with_directed_forgetting/images/F.png""></img></div></div><div class = bottomLeft><div class = cue-text><img class = center src=""/static/experiments/stop_signal_with_directed_forgetting/images/N.png""></img></div></div><div class = bottomMiddle><div class = cue-text></div></div><div class = bottomRight><div class = cue-text><img class = center src=""/static/experiments/stop_signal_with_directed_forgetting/images/Y.png""></img></div></div></div>",,,,235915,0.0,,practice_stim,166,poldrack-single-stim,
167,,,,,,1000.0,,,,,,,,stop_signal_with_directed_forgetting,,,,,,0.0-0.1-81.1,-1.0,[],,,-1,1000.0,"<div class = bigbox><div class = centerbox><div class = cue-text><img class = center src=""/static/experiments/stop_signal_with_directed_forgetting/images/TOP.png""></img></font></div></div></div>",,,,236922,0.0,,practice_cue,167,poldrack-single-stim,
168,,,,,,2000.0,,,,,,,,stop_signal_with_directed_forgetting,,,,,,0.0-0.1-82.1,-1.0,none,,,-1,2000.0,"<div class = centerbox><div class = fixation><span style=""color:white"">+</span></div></div>",,,,238927,0.0,,practice_fixation,168,poldrack-single-stim,
169,200.0,500.0,"<div class = bigbox><div class = starbox><img class = center src=""/static/experiments/stop_signal_with_directed_forgetting/images/stopSignal.png""></img></div></div>",stop,,1000.0,"['N', 'Y']",-1.0,0.0,TOP,1.0,12.0,neg,stop_signal_with_directed_forgetting,,,,,,0.0-0.1-83.1,90.0,"[77, 90]",F,,796,1000.0,"<div class = bigbox><div class = centerbox><div class = cue-text><img class = center src=""/static/experiments/stop_signal_with_directed_forgetting/images/F.png""></img></font></div></div></div>",0.0,stop,,239933,0.0,"['Q', 'F']",practice_trial,169,stop-signal,
170,,,,,,1000.0,,,,,,,,stop_signal_with_directed_forgetting,,,,,,0.0-0.1-84.1,-1.0,"[77, 90]",,,-1,1000.0,,,,,240941,0.0,,practice_ITI_fixation,170,poldrack-single-stim,
171,,,,,,500.0,,,,,,,,stop_signal_with_directed_forgetting,,,,,,0.0-0.1-85.1,-1.0,none,,,-1,500.0,"<div class = fb_box><div class = center-text><font size = 20>There was a star.</font></div></div><div class = prompt_box><p class = center-block-text style = ""font-size:16px; line-height:80%%;"">Please respond if the probe was in the memory set.</p><p class = center-block-text style = ""font-size:16px; line-height:80%%;"">In memory set: M Key</p><p class = center-block-text style = ""font-size:16px; line-height:80%%;"">Not in memory set: Z Key</p><p class = center-block-text style = ""font-size:16px; line-height:80%%;"">Do not respond if a star appears around the probe!</p></div>",,,,241446,0.0,,practice-stop-feedback,171,poldrack-single-stim,
172,,,,,,2215.0,,,,,,,,stop_signal_with_directed_forgetting,,,,,,0.0-0.2-0.2,13.0,[13],,,2215,2215.0,<div class = bigbox><div class = picture_box><p class = block-text><br>Please take this time to read your feedback and to take a short break! Press enter to continue</p><p class = block-text>Redoing this practice. Press Enter to continue.</p></div></div>,,,,243678,0.0,,feedback_block,172,poldrack-single-stim,
173,,,,,,,,,,,,,,stop_signal_with_directed_forgetting,,,,,,0.0-0.2-1.2,,,,,9696,,,,,,253375,,,instruction,173,poldrack-instructions,"[{""page_index"":0,""viewing_time"":2335},{""page_index"":1,""viewing_time"":1768},{""page_index"":2,""viewing_time"":1441},{""page_index"":3,""viewing_time"":4152}]"
174,,,,,,500.0,,,,,,,,stop_signal_with_directed_forgetting,,,,,,0.0-0.2-2.2,-1.0,none,,,-1,500.0,"<div class = centerbox><div class = fixation><span style=""color:white"">+</span></div></div>",,,,254880,0.0,,practice_fixation,174,poldrack-single-stim,
175,,,,,,2000.0,,,,,,,,stop_signal_with_directed_forgetting,,,,,,0.0-0.2-3.2,-1.0,none,,,-1,2000.0,"<div class = bigbox><div class = topLeft><div class = cue-text><img class = center src=""/static/experiments/stop_signal_with_directed_forgetting/images/D.png""></img></div></div><div class = topMiddle><div class = cue-text></div></div><div class = topRight><div class = cue-text><img class = center src=""/static/experiments/stop_signal_with_directed_forgetting/images/Y.png""></img></div></div><div class = bottomLeft><div class = cue-text><img class = center src=""/static/experiments/stop_signal_with_directed_forgetting/images/C.png""></img></div></div><div class = bottomMiddle><div class = cue-text></div></div><div class = bottomRight><div class = cue-text><img class = center src=""/static/experiments/stop_signal_with_directed_forgetting/images/Q.png""></img></div></div></div>",,,,256888,0.0,,practice_stim,175,poldrack-single-stim,
176,,,,,,1000.0,,,,,,,,stop_signal_with_directed_forgetting,,,,,,0.0-0.2-4.2,-1.0,[],,,-1,1000.0,"<div class = bigbox><div class = centerbox><div class = cue-text><img class = center src=""/static/experiments/stop_signal_with_directed_forgetting/images/TOP.png""></img></font></div></div></div>",,,,257895,0.0,,practice_cue,176,poldrack-single-stim,
177,,,,,,2000.0,,,,,,,,stop_signal_with_directed_forgetting,,,,,,0.0-0.2-5.2,-1.0,none,,,-1,2000.0,"<div class = centerbox><div class = fixation><span style=""color:white"">+</span></div></div>",,,,259900,0.0,,practice_fixation,177,poldrack-single-stim,
178,150.0,500.0,"<div class = bigbox><div class = starbox><img class = center src=""/static/experiments/stop_signal_with_directed_forgetting/images/stopSignal.png""></img></div></div>",stop,,1000.0,"['C', 'Q']",-1.0,1.0,TOP,2.0,1.0,pos,stop_signal_with_directed_forgetting,,,,,,0.0-0.2-6.2,-1.0,"[77, 90]",C,,-1,1000.0,"<div class = bigbox><div class = centerbox><div class = cue-text><img class = center src=""/static/experiments/stop_signal_with_directed_forgetting/images/C.png""></img></font></div></div></div>",1.0,stop,,260906,0.0,"['D', 'Y']",practice_trial,178,stop-signal,
179,,,,,,1000.0,,,,,,,,stop_signal_with_directed_forgetting,,,,,,0.0-0.2-7.2,-1.0,"[77, 90]",,,-1,1000.0,,,,,261913,0.0,,practice_ITI_fixation,179,poldrack-single-stim,
180,,,,,,500.0,,,,,,,,stop_signal_with_directed_forgetting,,,,,,0.0-0.2-8.2,-1.0,none,,,-1,500.0,"<div class = fb_box><div class = center-text><font size = 20>Correct!</font></div></div><div class = prompt_box><p class = center-block-text style = ""font-size:16px; line-height:80%%;"">Please respond if the probe was in the memory set.</p><p class = center-block-text style = ""font-size:16px; line-height:80%%;"">In memory set: M Key</p><p class = center-block-text style = ""font-size:16px; line-height:80%%;"">Not in memory set: Z Key</p><p class = center-block-text style = ""font-size:16px; line-height:80%%;"">Do not respond if a star appears around the probe!</p></div>",,,,262421,0.0,,practice-stop-feedback,180,poldrack-single-stim,
181,,,,,,500.0,,,,,,,,stop_signal_with_directed_forgetting,,,,,,0.0-0.2-9.2,-1.0,none,,,-1,500.0,"<div class = centerbox><div class = fixation><span style=""color:white"">+</span></div></div>",,,,262929,0.0,,practice_fixation,181,poldrack-single-stim,
182,,,,,,2000.0,,,,,,,,stop_signal_with_directed_forgetting,,,,,,0.0-0.2-10.2,-1.0,none,,,-1,2000.0,"<div class = bigbox><div class = topLeft><div class = cue-text><img class = center src=""/static/experiments/stop_signal_with_directed_forgetting/images/Z.png""></img></div></div><div class = topMiddle><div class = cue-text></div></div><div class = topRight><div class = cue-text><img class = center src=""/static/experiments/stop_signal_with_directed_forgetting/images/J.png""></img></div></div><div class = bottomLeft><div class = cue-text><img class = center src=""/static/experiments/stop_signal_with_directed_forgetting/images/R.png""></img></div></div><div class = bottomMiddle><div class = cue-text></div></div><div class = bottomRight><div class = cue-text><img class = center src=""/static/experiments/stop_signal_with_directed_forgetting/images/I.png""></img></div></div></div>",,,,264936,0.0,,practice_stim,182,poldrack-single-stim,
183,,,,,,1000.0,,,,,,,,stop_signal_with_directed_forgetting,,,,,,0.0-0.2-11.2,-1.0,[],,,-1,1000.0,"<div class = bigbox><div class = centerbox><div class = cue-text><img class = center src=""/static/experiments/stop_signal_with_directed_forgetting/images/BOT.png""></img></font></div></div></div>",,,,265944,0.0,,practice_cue,183,poldrack-single-stim,
184,,,,,,2000.0,,,,,,,,stop_signal_with_directed_forgetting,,,,,,0.0-0.2-12.2,-1.0,none,,,-1,2000.0,"<div class = centerbox><div class = fixation><span style=""color:white"">+</span></div></div>",,,,267950,0.0,,practice_fixation,184,poldrack-single-stim,
185,200.0,500.0,"<div class = bigbox><div class = starbox><img class = center src=""/static/experiments/stop_signal_with_directed_forgetting/images/stopSignal.png""></img></div></div>",go,,1000.0,"['R', 'I']",90.0,1.0,BOT,2.0,2.0,con,stop_signal_with_directed_forgetting,,,,,,0.0-0.2-13.2,90.0,"[77, 90]",V,,580,1000.0,"<div class = bigbox><div class = centerbox><div class = cue-text><img class = center src=""/static/experiments/stop_signal_with_directed_forgetting/images/V.png""></img></font></div></div></div>",,go,,268958,0.0,"['Z', 'J']",practice_trial,185,stop-signal,
186,,,,,,1000.0,,,,,,,,stop_signal_with_directed_forgetting,,,,,,0.0-0.2-14.2,-1.0,"[77, 90]",,,-1,1000.0,,,,,269964,0.0,,practice_ITI_fixation,186,poldrack-single-stim,
187,,,,,,500.0,,,,,,,,stop_signal_with_directed_forgetting,,,,,,0.0-0.2-15.2,-1.0,none,,,-1,500.0,"<div class = fb_box><div class = center-text><font size = 20>Correct!</font></div></div><div class = prompt_box><p class = center-block-text style = ""font-size:16px; line-height:80%%;"">Please respond if the probe was in the memory set.</p><p class = center-block-text style = ""font-size:16px; line-height:80%%;"">In memory set: M Key</p><p class = center-block-text style = ""font-size:16px; line-height:80%%;"">Not in memory set: Z Key</p><p class = center-block-text style = ""font-size:16px; line-height:80%%;"">Do not respond if a star appears around the probe!</p></div>",,,,270470,0.0,,practice-stop-feedback,187,poldrack-single-stim,
188,,,,,,500.0,,,,,,,,stop_signal_with_directed_forgetting,,,,,,0.0-0.2-16.2,-1.0,none,,,-1,500.0,"<div class = centerbox><div class = fixation><span style=""color:white"">+</span></div></div>",,,,270975,0.0,,practice_fixation,188,poldrack-single-stim,
189,,,,,,2000.0,,,,,,,,stop_signal_with_directed_forgetting,,,,,,0.0-0.2-17.2,-1.0,none,,,-1,2000.0,"<div class = bigbox><div class = topLeft><div class = cue-text><img class = center src=""/static/experiments/stop_signal_with_directed_forgetting/images/K.png""></img></div></div><div class = topMiddle><div class = cue-text></div></div><div class = topRight><div class = cue-text><img class = center src=""/static/experiments/stop_signal_with_directed_forgetting/images/V.png""></img></div></div><div class = bottomLeft><div class = cue-text><img class = center src=""/static/experiments/stop_signal_with_directed_forgetting/images/S.png""></img></div></div><div class = bottomMiddle><div class = cue-text></div></div><div class = bottomRight><div class = cue-text><img class = center src=""/static/experiments/stop_signal_with_directed_forgetting/images/G.png""></img></div></div></div>",,,,272984,0.0,,practice_stim,189,poldrack-single-stim,
190,,,,,,1000.0,,,,,,,,stop_signal_with_directed_forgetting,,,,,,0.0-0.2-18.2,-1.0,[],,,-1,1000.0,"<div class = bigbox><div class = centerbox><div class = cue-text><img class = center src=""/static/experiments/stop_signal_with_directed_forgetting/images/TOP.png""></img></font></div></div></div>",,,,273992,0.0,,practice_cue,190,poldrack-single-stim,
191,,,,,,2000.0,,,,,,,,stop_signal_with_directed_forgetting,,,,,,0.0-0.2-19.2,-1.0,none,,,-1,2000.0,"<div class = centerbox><div class = fixation><span style=""color:white"">+</span></div></div>",,,,275998,0.0,,practice_fixation,191,poldrack-single-stim,
192,200.0,500.0,"<div class = bigbox><div class = starbox><img class = center src=""/static/experiments/stop_signal_with_directed_forgetting/images/stopSignal.png""></img></div></div>",go,,1000.0,"['S', 'G']",77.0,1.0,TOP,2.0,3.0,pos,stop_signal_with_directed_forgetting,,,,,,0.0-0.2-20.2,77.0,"[77, 90]",G,,685,1000.0,"<div class = bigbox><div class = centerbox><div class = cue-text><img class = center src=""/static/experiments/stop_signal_with_directed_forgetting/images/G.png""></img></font></div></div></div>",,go,,277005,0.0,"['K', 'V']",practice_trial,192,stop-signal,
193,,,,,,1000.0,,,,,,,,stop_signal_with_directed_forgetting,,,,,,0.0-0.2-21.2,-1.0,"[77, 90]",,,-1,1000.0,,,,,278011,0.0,,practice_ITI_fixation,193,poldrack-single-stim,
194,,,,,,500.0,,,,,,,,stop_signal_with_directed_forgetting,,,,,,0.0-0.2-22.2,-1.0,none,,,-1,500.0,"<div class = fb_box><div class = center-text><font size = 20>Correct!</font></div></div><div class = prompt_box><p class = center-block-text style = ""font-size:16px; line-height:80%%;"">Please respond if the probe was in the memory set.</p><p class = center-block-text style = ""font-size:16px; line-height:80%%;"">In memory set: M Key</p><p class = center-block-text style = ""font-size:16px; line-height:80%%;"">Not in memory set: Z Key</p><p class = center-block-text style = ""font-size:16px; line-height:80%%;"">Do not respond if a star appears around the probe!</p></div>",,,,278522,0.0,,practice-stop-feedback,194,poldrack-single-stim,
195,,,,,,500.0,,,,,,,,stop_signal_with_directed_forgetting,,,,,,0.0-0.2-23.2,-1.0,none,,,-1,500.0,"<div class = centerbox><div class = fixation><span style=""color:white"">+</span></div></div>",,,,279028,0.0,,practice_fixation,195,poldrack-single-stim,
196,,,,,,2000.0,,,,,,,,stop_signal_with_directed_forgetting,,,,,,0.0-0.2-24.2,-1.0,none,,,-1,2000.0,"<div class = bigbox><div class = topLeft><div class = cue-text><img class = center src=""/static/experiments/stop_signal_with_directed_forgetting/images/E.png""></img></div></div><div class = topMiddle><div class = cue-text></div></div><div class = topRight><div class = cue-text><img class = center src=""/static/experiments/stop_signal_with_directed_forgetting/images/L.png""></img></div></div><div class = bottomLeft><div class = cue-text><img class = center src=""/static/experiments/stop_signal_with_directed_forgetting/images/H.png""></img></div></div><div class = bottomMiddle><div class = cue-text></div></div><div class = bottomRight><div class = cue-text><img class = center src=""/static/experiments/stop_signal_with_directed_forgetting/images/A.png""></img></div></div></div>",,,,281039,0.0,,practice_stim,196,poldrack-single-stim,
197,,,,,,1000.0,,,,,,,,stop_signal_with_directed_forgetting,,,,,,0.0-0.2-25.2,-1.0,[],,,-1,1000.0,"<div class = bigbox><div class = centerbox><div class = cue-text><img class = center src=""/static/experiments/stop_signal_with_directed_forgetting/images/BOT.png""></img></font></div></div></div>",,,,282046,0.0,,practice_cue,197,poldrack-single-stim,
198,,,,,,2000.0,,,,,,,,stop_signal_with_directed_forgetting,,,,,,0.0-0.2-26.2,-1.0,none,,,-1,2000.0,"<div class = centerbox><div class = fixation><span style=""color:white"">+</span></div></div>",,,,284052,0.0,,practice_fixation,198,poldrack-single-stim,
199,200.0,500.0,"<div class = bigbox><div class = starbox><img class = center src=""/static/experiments/stop_signal_with_directed_forgetting/images/stopSignal.png""></img></div></div>",go,,1000.0,"['H', 'A']",77.0,1.0,BOT,2.0,4.0,pos,stop_signal_with_directed_forgetting,,,,,,0.0-0.2-27.2,77.0,"[77, 90]",E,,792,1000.0,"<div class = bigbox><div class = centerbox><div class = cue-text><img class = center src=""/static/experiments/stop_signal_with_directed_forgetting/images/E.png""></img></font></div></div></div>",,go,,285059,0.0,"['E', 'L']",practice_trial,199,stop-signal,
200,,,,,,1000.0,,,,,,,,stop_signal_with_directed_forgetting,,,,,,0.0-0.2-28.2,-1.0,"[77, 90]",,,-1,1000.0,,,,,286064,0.0,,practice_ITI_fixation,200,poldrack-single-stim,
201,,,,,,500.0,,,,,,,,stop_signal_with_directed_forgetting,,,,,,0.0-0.2-29.2,-1.0,none,,,-1,500.0,"<div class = fb_box><div class = center-text><font size = 20>Correct!</font></div></div><div class = prompt_box><p class = center-block-text style = ""font-size:16px; line-height:80%%;"">Please respond if the probe was in the memory set.</p><p class = center-block-text style = ""font-size:16px; line-height:80%%;"">In memory set: M Key</p><p class = center-block-text style = ""font-size:16px; line-height:80%%;"">Not in memory set: Z Key</p><p class = center-block-text style = ""font-size:16px; line-height:80%%;"">Do not respond if a star appears around the probe!</p></div>",,,,286571,0.0,,practice-stop-feedback,201,poldrack-single-stim,
202,,,,,,500.0,,,,,,,,stop_signal_with_directed_forgetting,,,,,,0.0-0.2-30.2,-1.0,none,,,-1,500.0,"<div class = centerbox><div class = fixation><span style=""color:white"">+</span></div></div>",,,,287076,0.0,,practice_fixation,202,poldrack-single-stim,
203,,,,,,2000.0,,,,,,,,stop_signal_with_directed_forgetting,,,,,,0.0-0.2-31.2,-1.0,none,,,-1,2000.0,"<div class = bigbox><div class = topLeft><div class = cue-text><img class = center src=""/static/experiments/stop_signal_with_directed_forgetting/images/T.png""></img></div></div><div class = topMiddle><div class = cue-text></div></div><div class = topRight><div class = cue-text><img class = center src=""/static/experiments/stop_signal_with_directed_forgetting/images/N.png""></img></div></div><div class = bottomLeft><div class = cue-text><img class = center src=""/static/experiments/stop_signal_with_directed_forgetting/images/X.png""></img></div></div><div class = bottomMiddle><div class = cue-text></div></div><div class = bottomRight><div class = cue-text><img class = center src=""/static/experiments/stop_signal_with_directed_forgetting/images/I.png""></img></div></div></div>",,,,289085,0.0,,practice_stim,203,poldrack-single-stim,
204,,,,,,1000.0,,,,,,,,stop_signal_with_directed_forgetting,,,,,,0.0-0.2-32.2,-1.0,[],,,-1,1000.0,"<div class = bigbox><div class = centerbox><div class = cue-text><img class = center src=""/static/experiments/stop_signal_with_directed_forgetting/images/BOT.png""></img></font></div></div></div>",,,,290093,0.0,,practice_cue,204,poldrack-single-stim,
205,,,,,,2000.0,,,,,,,,stop_signal_with_directed_forgetting,,,,,,0.0-0.2-33.2,-1.0,none,,,-1,2000.0,"<div class = centerbox><div class = fixation><span style=""color:white"">+</span></div></div>",,,,292099,0.0,,practice_fixation,205,poldrack-single-stim,
206,200.0,500.0,"<div class = bigbox><div class = starbox><img class = center src=""/static/experiments/stop_signal_with_directed_forgetting/images/stopSignal.png""></img></div></div>",go,,1000.0,"['X', 'I']",90.0,1.0,BOT,2.0,5.0,con,stop_signal_with_directed_forgetting,,,,,,0.0-0.2-34.2,90.0,"[77, 90]",H,,712,1000.0,"<div class = bigbox><div class = centerbox><div class = cue-text><img class = center src=""/static/experiments/stop_signal_with_directed_forgetting/images/H.png""></img></font></div></div></div>",,go,,293106,0.0,"['T', 'N']",practice_trial,206,stop-signal,
207,,,,,,1000.0,,,,,,,,stop_signal_with_directed_forgetting,,,,,,0.0-0.2-35.2,-1.0,"[77, 90]",,,-1,1000.0,,,,,294111,0.0,,practice_ITI_fixation,207,poldrack-single-stim,
208,,,,,,500.0,,,,,,,,stop_signal_with_directed_forgetting,,,,,,0.0-0.2-36.2,-1.0,none,,,-1,500.0,"<div class = fb_box><div class = center-text><font size = 20>Correct!</font></div></div><div class = prompt_box><p class = center-block-text style = ""font-size:16px; line-height:80%%;"">Please respond if the probe was in the memory set.</p><p class = center-block-text style = ""font-size:16px; line-height:80%%;"">In memory set: M Key</p><p class = center-block-text style = ""font-size:16px; line-height:80%%;"">Not in memory set: Z Key</p><p class = center-block-text style = ""font-size:16px; line-height:80%%;"">Do not respond if a star appears around the probe!</p></div>",,,,294619,0.0,,practice-stop-feedback,208,poldrack-single-stim,
209,,,,,,500.0,,,,,,,,stop_signal_with_directed_forgetting,,,,,,0.0-0.2-37.2,-1.0,none,,,-1,500.0,"<div class = centerbox><div class = fixation><span style=""color:white"">+</span></div></div>",,,,295126,0.0,,practice_fixation,209,poldrack-single-stim,
210,,,,,,2000.0,,,,,,,,stop_signal_with_directed_forgetting,,,,,,0.0-0.2-38.2,-1.0,none,,,-1,2000.0,"<div class = bigbox><div class = topLeft><div class = cue-text><img class = center src=""/static/experiments/stop_signal_with_directed_forgetting/images/Q.png""></img></div></div><div class = topMiddle><div class = cue-text></div></div><div class = topRight><div class = cue-text><img class = center src=""/static/experiments/stop_signal_with_directed_forgetting/images/B.png""></img></div></div><div class = bottomLeft><div class = cue-text><img class = center src=""/static/experiments/stop_signal_with_directed_forgetting/images/J.png""></img></div></div><div class = bottomMiddle><div class = cue-text></div></div><div class = bottomRight><div class = cue-text><img class = center src=""/static/experiments/stop_signal_with_directed_forgetting/images/V.png""></img></div></div></div>",,,,297135,0.0,,practice_stim,210,poldrack-single-stim,
211,,,,,,1000.0,,,,,,,,stop_signal_with_directed_forgetting,,,,,,0.0-0.2-39.2,-1.0,[],,,-1,1000.0,"<div class = bigbox><div class = centerbox><div class = cue-text><img class = center src=""/static/experiments/stop_signal_with_directed_forgetting/images/TOP.png""></img></font></div></div></div>",,,,298148,0.0,,practice_cue,211,poldrack-single-stim,
212,,,,,,2000.0,,,,,,,,stop_signal_with_directed_forgetting,,,,,,0.0-0.2-40.2,-1.0,none,,,-1,2000.0,"<div class = centerbox><div class = fixation><span style=""color:white"">+</span></div></div>",,,,300154,0.0,,practice_fixation,212,poldrack-single-stim,
