,SSD_go,SSD_nogo,SS_delay,SS_duration,SS_stimulus,SS_trial_type,att_check_percent,block_duration,correct,correct_response,correct_trial,current_block,current_trial,exp_id,final_accuracy,final_avg_rt,final_credit_var,final_missed_percent,final_responses_ok,go_acc,go_nogo_condition,internal_node_id,key_press,possible_responses,responses,rt,stim,stim_duration,stim_style,stimulus,stop_acc,stop_signal_condition,text,time_elapsed,timing_post_trial,trial_id,trial_index,trial_type,view_history
0,,,,,,,,1793.0,,,,,,stop_signal_with_go_no_go,,,,,,,,0.0-0.0-0.0,13.0,[13],,1793,,1793.0,,"<div class = bigbox><div class = picture_box><p class = block-text><font color=""white"">Welcome to the experiment. This experiment will take around 15 minutes. Press <i>enter</i> to begin.</font></p></div></div>",,,,1795,0.0,practice-no-stop-feedback,0,poldrack-single-stim,
1,,,,,,,,,,,,,,stop_signal_with_go_no_go,,,,,,,,0.0-0.0-1.0,,,,66069,,,,,,,,67866,,instruction,1,poldrack-instructions,"[{""page_index"":0,""viewing_time"":51106},{""page_index"":1,""viewing_time"":8053},{""page_index"":2,""viewing_time"":4521},{""page_index"":3,""viewing_time"":2388}]"
2,,,,,,,,500.0,,,,,,stop_signal_with_go_no_go,,,,,,,,0.0-0.0-2.0,-1.0,none,,-1,,500.0,,<div class = centerbox><div class = fixation>+</div></div>,,,,68370,0.0,prompt_fixation,2,poldrack-single-stim,
3,350.0,350.0,350.0,500.0,<div class = bigbox><div class = centerbox><div class = starbox><img class = center src='/static/experiments/stop_signal_with_go_no_go/images/stopSignal.png'></img></div></div></div>,go,,2000.0,,-1.0,0.0,0.0,1.0,stop_signal_with_go_no_go,,,,,,0.0,nogo,0.0-0.0-3.0,90.0,"[90, 77]",,983,square,1000.0,outlined,<div class = bigbox><div class = centerbox><div class = gng_number><div class = cue-text><img class = center src='/static/experiments/stop_signal_with_go_no_go/images/outlined_square.png'></img></div></div></div></div>,,go,,70374,0.0,practice_trial,3,stop-signal,
4,,,,,,,,500.0,,,,,,stop_signal_with_go_no_go,,,,,,,,0.0-0.0-4.0,-1.0,none,,-1,,500.0,,"<div class = fb_box><div class = center-text><font size = 20>Shape was outlined</font></div></div><div class = prompt_box><p class = center-block-text style = ""font-size:16px; line-height:80%%;"">square: Z key</p><p class = center-block-text style = ""font-size:16px; line-height:80%%;"">circle: M key</p><p class = center-block-text style = ""font-size:16px; line-height:80%%;"">Do not respond if a star appears!</p><p class = center-block-text style = ""font-size:16px; line-height:80%%;"">Do not respond if the shape is outlined!</p></div>",,,,70877,0.0,practice-stop-feedback,4,poldrack-single-stim,
5,,,,,,,,500.0,,,,,,stop_signal_with_go_no_go,,,,,,,,0.0-0.0-5.0,-1.0,none,,-1,,500.0,,<div class = centerbox><div class = fixation>+</div></div>,,,,71380,0.0,prompt_fixation,5,poldrack-single-stim,
6,350.0,350.0,350.0,500.0,<div class = bigbox><div class = centerbox><div class = starbox><img class = center src='/static/experiments/stop_signal_with_go_no_go/images/stopSignal.png'></img></div></div></div>,go,,2000.0,,90.0,1.0,0.0,2.0,stop_signal_with_go_no_go,,,,,,1.0,go,0.0-0.0-6.0,90.0,"[90, 77]",,645,square,1000.0,solid,<div class = bigbox><div class = centerbox><div class = gng_number><div class = cue-text><img class = center src='/static/experiments/stop_signal_with_go_no_go/images/solid_square.png'></img></div></div></div></div>,,go,,73383,0.0,practice_trial,6,stop-signal,
7,,,,,,,,500.0,,,,,,stop_signal_with_go_no_go,,,,,,,,0.0-0.0-7.0,-1.0,none,,-1,,500.0,,"<div class = fb_box><div class = center-text><font size = 20>Correct!</font></div></div><div class = prompt_box><p class = center-block-text style = ""font-size:16px; line-height:80%%;"">square: Z key</p><p class = center-block-text style = ""font-size:16px; line-height:80%%;"">circle: M key</p><p class = center-block-text style = ""font-size:16px; line-height:80%%;"">Do not respond if a star appears!</p><p class = center-block-text style = ""font-size:16px; line-height:80%%;"">Do not respond if the shape is outlined!</p></div>",,,,73886,0.0,practice-stop-feedback,7,poldrack-single-stim,
8,,,,,,,,500.0,,,,,,stop_signal_with_go_no_go,,,,,,,,0.0-0.0-8.0,-1.0,none,,-1,,500.0,,<div class = centerbox><div class = fixation>+</div></div>,,,,74389,0.0,prompt_fixation,8,poldrack-single-stim,
9,350.0,350.0,350.0,500.0,<div class = bigbox><div class = centerbox><div class = starbox><img class = center src='/static/experiments/stop_signal_with_go_no_go/images/stopSignal.png'></img></div></div></div>,go,,2000.0,,77.0,1.0,0.0,3.0,stop_signal_with_go_no_go,,,,,,1.0,go,0.0-0.0-9.0,77.0,"[90, 77]",,501,circle,1000.0,solid,<div class = bigbox><div class = centerbox><div class = gng_number><div class = cue-text><img class = center src='/static/experiments/stop_signal_with_go_no_go/images/solid_circle.png'></img></div></div></div></div>,,go,,76391,0.0,practice_trial,9,stop-signal,
10,,,,,,,,500.0,,,,,,stop_signal_with_go_no_go,,,,,,,,0.0-0.0-10.0,-1.0,none,,-1,,500.0,,"<div class = fb_box><div class = center-text><font size = 20>Correct!</font></div></div><div class = prompt_box><p class = center-block-text style = ""font-size:16px; line-height:80%%;"">square: Z key</p><p class = center-block-text style = ""font-size:16px; line-height:80%%;"">circle: M key</p><p class = center-block-text style = ""font-size:16px; line-height:80%%;"">Do not respond if a star appears!</p><p class = center-block-text style = ""font-size:16px; line-height:80%%;"">Do not respond if the shape is outlined!</p></div>",,,,76894,0.0,practice-stop-feedback,10,poldrack-single-stim,
11,,,,,,,,500.0,,,,,,stop_signal_with_go_no_go,,,,,,,,0.0-0.0-11.0,-1.0,none,,-1,,500.0,,<div class = centerbox><div class = fixation>+</div></div>,,,,77396,0.0,prompt_fixation,11,poldrack-single-stim,
12,350.0,350.0,350.0,500.0,<div class = bigbox><div class = centerbox><div class = starbox><img class = center src='/static/experiments/stop_signal_with_go_no_go/images/stopSignal.png'></img></div></div></div>,go,,2000.0,,-1.0,1.0,0.0,4.0,stop_signal_with_go_no_go,,,,,,1.0,nogo,0.0-0.0-12.0,-1.0,"[90, 77]",,-1,square,1000.0,outlined,<div class = bigbox><div class = centerbox><div class = gng_number><div class = cue-text><img class = center src='/static/experiments/stop_signal_with_go_no_go/images/outlined_square.png'></img></div></div></div></div>,,go,,79399,0.0,practice_trial,12,stop-signal,
13,,,,,,,,500.0,,,,,,stop_signal_with_go_no_go,,,,,,,,0.0-0.0-13.0,-1.0,none,,-1,,500.0,,"<div class = fb_box><div class = center-text><font size = 20>Correct!</font></div></div><div class = prompt_box><p class = center-block-text style = ""font-size:16px; line-height:80%%;"">square: Z key</p><p class = center-block-text style = ""font-size:16px; line-height:80%%;"">circle: M key</p><p class = center-block-text style = ""font-size:16px; line-height:80%%;"">Do not respond if a star appears!</p><p class = center-block-text style = ""font-size:16px; line-height:80%%;"">Do not respond if the shape is outlined!</p></div>",,,,79901,0.0,practice-stop-feedback,13,poldrack-single-stim,
14,,,,,,,,500.0,,,,,,stop_signal_with_go_no_go,,,,,,,,0.0-0.0-14.0,-1.0,none,,-1,,500.0,,<div class = centerbox><div class = fixation>+</div></div>,,,,80405,0.0,prompt_fixation,14,poldrack-single-stim,
15,350.0,350.0,350.0,500.0,<div class = bigbox><div class = centerbox><div class = starbox><img class = center src='/static/experiments/stop_signal_with_go_no_go/images/stopSignal.png'></img></div></div></div>,stop,,2000.0,,-1.0,0.0,0.0,5.0,stop_signal_with_go_no_go,,,,,,,go,0.0-0.0-15.0,90.0,"[90, 77]",,548,square,1000.0,solid,<div class = bigbox><div class = centerbox><div class = gng_number><div class = cue-text><img class = center src='/static/experiments/stop_signal_with_go_no_go/images/solid_square.png'></img></div></div></div></div>,0.0,stop,,82408,0.0,practice_trial,15,stop-signal,
16,,,,,,,,500.0,,,,,,stop_signal_with_go_no_go,,,,,,,,0.0-0.0-16.0,-1.0,none,,-1,,500.0,,"<div class = fb_box><div class = center-text><font size = 20>There was a star.</font></div></div><div class = prompt_box><p class = center-block-text style = ""font-size:16px; line-height:80%%;"">square: Z key</p><p class = center-block-text style = ""font-size:16px; line-height:80%%;"">circle: M key</p><p class = center-block-text style = ""font-size:16px; line-height:80%%;"">Do not respond if a star appears!</p><p class = center-block-text style = ""font-size:16px; line-height:80%%;"">Do not respond if the shape is outlined!</p></div>",,,,82910,0.0,practice-stop-feedback,16,poldrack-single-stim,
17,,,,,,,,500.0,,,,,,stop_signal_with_go_no_go,,,,,,,,0.0-0.0-17.0,-1.0,none,,-1,,500.0,,<div class = centerbox><div class = fixation>+</div></div>,,,,83413,0.0,prompt_fixation,17,poldrack-single-stim,
18,300.0,350.0,300.0,500.0,<div class = bigbox><div class = centerbox><div class = starbox><img class = center src='/static/experiments/stop_signal_with_go_no_go/images/stopSignal.png'></img></div></div></div>,go,,2000.0,,77.0,1.0,0.0,6.0,stop_signal_with_go_no_go,,,,,,1.0,go,0.0-0.0-18.0,77.0,"[90, 77]",,708,circle,1000.0,solid,<div class = bigbox><div class = centerbox><div class = gng_number><div class = cue-text><img class = center src='/static/experiments/stop_signal_with_go_no_go/images/solid_circle.png'></img></div></div></div></div>,,go,,85416,0.0,practice_trial,18,stop-signal,
19,,,,,,,,500.0,,,,,,stop_signal_with_go_no_go,,,,,,,,0.0-0.0-19.0,-1.0,none,,-1,,500.0,,"<div class = fb_box><div class = center-text><font size = 20>Correct!</font></div></div><div class = prompt_box><p class = center-block-text style = ""font-size:16px; line-height:80%%;"">square: Z key</p><p class = center-block-text style = ""font-size:16px; line-height:80%%;"">circle: M key</p><p class = center-block-text style = ""font-size:16px; line-height:80%%;"">Do not respond if a star appears!</p><p class = center-block-text style = ""font-size:16px; line-height:80%%;"">Do not respond if the shape is outlined!</p></div>",,,,85919,0.0,practice-stop-feedback,19,poldrack-single-stim,
20,,,,,,,,500.0,,,,,,stop_signal_with_go_no_go,,,,,,,,0.0-0.0-20.0,-1.0,none,,-1,,500.0,,<div class = centerbox><div class = fixation>+</div></div>,,,,86421,0.0,prompt_fixation,20,poldrack-single-stim,
21,300.0,350.0,300.0,500.0,<div class = bigbox><div class = centerbox><div class = starbox><img class = center src='/static/experiments/stop_signal_with_go_no_go/images/stopSignal.png'></img></div></div></div>,stop,,2000.0,,-1.0,0.0,0.0,7.0,stop_signal_with_go_no_go,,,,,,,go,0.0-0.0-21.0,90.0,"[90, 77]",,444,square,1000.0,solid,<div class = bigbox><div class = centerbox><div class = gng_number><div class = cue-text><img class = center src='/static/experiments/stop_signal_with_go_no_go/images/solid_square.png'></img></div></div></div></div>,0.0,stop,,88424,0.0,practice_trial,21,stop-signal,
22,,,,,,,,500.0,,,,,,stop_signal_with_go_no_go,,,,,,,,0.0-0.0-22.0,-1.0,none,,-1,,500.0,,"<div class = fb_box><div class = center-text><font size = 20>There was a star.</font></div></div><div class = prompt_box><p class = center-block-text style = ""font-size:16px; line-height:80%%;"">square: Z key</p><p class = center-block-text style = ""font-size:16px; line-height:80%%;"">circle: M key</p><p class = center-block-text style = ""font-size:16px; line-height:80%%;"">Do not respond if a star appears!</p><p class = center-block-text style = ""font-size:16px; line-height:80%%;"">Do not respond if the shape is outlined!</p></div>",,,,88927,0.0,practice-stop-feedback,22,poldrack-single-stim,
23,,,,,,,,500.0,,,,,,stop_signal_with_go_no_go,,,,,,,,0.0-0.0-23.0,-1.0,none,,-1,,500.0,,<div class = centerbox><div class = fixation>+</div></div>,,,,89429,0.0,prompt_fixation,23,poldrack-single-stim,
24,250.0,350.0,250.0,500.0,<div class = bigbox><div class = centerbox><div class = starbox><img class = center src='/static/experiments/stop_signal_with_go_no_go/images/stopSignal.png'></img></div></div></div>,go,,2000.0,,77.0,1.0,0.0,8.0,stop_signal_with_go_no_go,,,,,,1.0,go,0.0-0.0-24.0,77.0,"[90, 77]",,628,circle,1000.0,solid,<div class = bigbox><div class = centerbox><div class = gng_number><div class = cue-text><img class = center src='/static/experiments/stop_signal_with_go_no_go/images/solid_circle.png'></img></div></div></div></div>,,go,,91432,0.0,practice_trial,24,stop-signal,
25,,,,,,,,500.0,,,,,,stop_signal_with_go_no_go,,,,,,,,0.0-0.0-25.0,-1.0,none,,-1,,500.0,,"<div class = fb_box><div class = center-text><font size = 20>Correct!</font></div></div><div class = prompt_box><p class = center-block-text style = ""font-size:16px; line-height:80%%;"">square: Z key</p><p class = center-block-text style = ""font-size:16px; line-height:80%%;"">circle: M key</p><p class = center-block-text style = ""font-size:16px; line-height:80%%;"">Do not respond if a star appears!</p><p class = center-block-text style = ""font-size:16px; line-height:80%%;"">Do not respond if the shape is outlined!</p></div>",,,,91935,0.0,practice-stop-feedback,25,poldrack-single-stim,
26,,,,,,,,500.0,,,,,,stop_signal_with_go_no_go,,,,,,,,0.0-0.0-26.0,-1.0,none,,-1,,500.0,,<div class = centerbox><div class = fixation>+</div></div>,,,,92439,0.0,prompt_fixation,26,poldrack-single-stim,
27,250.0,350.0,250.0,500.0,<div class = bigbox><div class = centerbox><div class = starbox><img class = center src='/static/experiments/stop_signal_with_go_no_go/images/stopSignal.png'></img></div></div></div>,stop,,2000.0,,-1.0,0.0,0.0,9.0,stop_signal_with_go_no_go,,,,,,,go,0.0-0.0-27.0,77.0,"[90, 77]",,658,circle,1000.0,solid,<div class = bigbox><div class = centerbox><div class = gng_number><div class = cue-text><img class = center src='/static/experiments/stop_signal_with_go_no_go/images/solid_circle.png'></img></div></div></div></div>,0.0,stop,,94441,0.0,practice_trial,27,stop-signal,
28,,,,,,,,500.0,,,,,,stop_signal_with_go_no_go,,,,,,,,0.0-0.0-28.0,-1.0,none,,-1,,500.0,,"<div class = fb_box><div class = center-text><font size = 20>There was a star.</font></div></div><div class = prompt_box><p class = center-block-text style = ""font-size:16px; line-height:80%%;"">square: Z key</p><p class = center-block-text style = ""font-size:16px; line-height:80%%;"">circle: M key</p><p class = center-block-text style = ""font-size:16px; line-height:80%%;"">Do not respond if a star appears!</p><p class = center-block-text style = ""font-size:16px; line-height:80%%;"">Do not respond if the shape is outlined!</p></div>",,,,94944,0.0,practice-stop-feedback,28,poldrack-single-stim,
29,,,,,,,,500.0,,,,,,stop_signal_with_go_no_go,,,,,,,,0.0-0.0-29.0,-1.0,none,,-1,,500.0,,<div class = centerbox><div class = fixation>+</div></div>,,,,95447,0.0,prompt_fixation,29,poldrack-single-stim,
30,200.0,350.0,350.0,500.0,<div class = bigbox><div class = centerbox><div class = starbox><img class = center src='/static/experiments/stop_signal_with_go_no_go/images/stopSignal.png'></img></div></div></div>,stop,,2000.0,,-1.0,1.0,0.0,10.0,stop_signal_with_go_no_go,,,,,,,nogo,0.0-0.0-30.0,-1.0,"[90, 77]",,-1,square,1000.0,outlined,<div class = bigbox><div class = centerbox><div class = gng_number><div class = cue-text><img class = center src='/static/experiments/stop_signal_with_go_no_go/images/outlined_square.png'></img></div></div></div></div>,1.0,stop,,97452,0.0,practice_trial,30,stop-signal,
31,,,,,,,,500.0,,,,,,stop_signal_with_go_no_go,,,,,,,,0.0-0.0-31.0,-1.0,none,,-1,,500.0,,"<div class = fb_box><div class = center-text><font size = 20>Correct!</font></div></div><div class = prompt_box><p class = center-block-text style = ""font-size:16px; line-height:80%%;"">square: Z key</p><p class = center-block-text style = ""font-size:16px; line-height:80%%;"">circle: M key</p><p class = center-block-text style = ""font-size:16px; line-height:80%%;"">Do not respond if a star appears!</p><p class = center-block-text style = ""font-size:16px; line-height:80%%;"">Do not respond if the shape is outlined!</p></div>",,,,97954,0.0,practice-stop-feedback,31,poldrack-single-stim,
32,,,,,,,,500.0,,,,,,stop_signal_with_go_no_go,,,,,,,,0.0-0.0-32.0,-1.0,none,,-1,,500.0,,<div class = centerbox><div class = fixation>+</div></div>,,,,98456,0.0,prompt_fixation,32,poldrack-single-stim,
33,200.0,400.0,200.0,500.0,<div class = bigbox><div class = centerbox><div class = starbox><img class = center src='/static/experiments/stop_signal_with_go_no_go/images/stopSignal.png'></img></div></div></div>,go,,2000.0,,77.0,1.0,0.0,11.0,stop_signal_with_go_no_go,,,,,,1.0,go,0.0-0.0-33.0,77.0,"[90, 77]",,809,circle,1000.0,solid,<div class = bigbox><div class = centerbox><div class = gng_number><div class = cue-text><img class = center src='/static/experiments/stop_signal_with_go_no_go/images/solid_circle.png'></img></div></div></div></div>,,go,,100458,0.0,practice_trial,33,stop-signal,
34,,,,,,,,500.0,,,,,,stop_signal_with_go_no_go,,,,,,,,0.0-0.0-34.0,-1.0,none,,-1,,500.0,,"<div class = fb_box><div class = center-text><font size = 20>Correct!</font></div></div><div class = prompt_box><p class = center-block-text style = ""font-size:16px; line-height:80%%;"">square: Z key</p><p class = center-block-text style = ""font-size:16px; line-height:80%%;"">circle: M key</p><p class = center-block-text style = ""font-size:16px; line-height:80%%;"">Do not respond if a star appears!</p><p class = center-block-text style = ""font-size:16px; line-height:80%%;"">Do not respond if the shape is outlined!</p></div>",,,,100961,0.0,practice-stop-feedback,34,poldrack-single-stim,
35,,,,,,,,500.0,,,,,,stop_signal_with_go_no_go,,,,,,,,0.0-0.0-35.0,-1.0,none,,-1,,500.0,,<div class = centerbox><div class = fixation>+</div></div>,,,,101465,0.0,prompt_fixation,35,poldrack-single-stim,
36,200.0,400.0,200.0,500.0,<div class = bigbox><div class = centerbox><div class = starbox><img class = center src='/static/experiments/stop_signal_with_go_no_go/images/stopSignal.png'></img></div></div></div>,go,,2000.0,,90.0,1.0,0.0,12.0,stop_signal_with_go_no_go,,,,,,1.0,go,0.0-0.0-36.0,90.0,"[90, 77]",,464,square,1000.0,solid,<div class = bigbox><div class = centerbox><div class = gng_number><div class = cue-text><img class = center src='/static/experiments/stop_signal_with_go_no_go/images/solid_square.png'></img></div></div></div></div>,,go,,103468,0.0,practice_trial,36,stop-signal,
37,,,,,,,,500.0,,,,,,stop_signal_with_go_no_go,,,,,,,,0.0-0.0-37.0,-1.0,none,,-1,,500.0,,"<div class = fb_box><div class = center-text><font size = 20>Correct!</font></div></div><div class = prompt_box><p class = center-block-text style = ""font-size:16px; line-height:80%%;"">square: Z key</p><p class = center-block-text style = ""font-size:16px; line-height:80%%;"">circle: M key</p><p class = center-block-text style = ""font-size:16px; line-height:80%%;"">Do not respond if a star appears!</p><p class = center-block-text style = ""font-size:16px; line-height:80%%;"">Do not respond if the shape is outlined!</p></div>",,,,103971,0.0,practice-stop-feedback,37,poldrack-single-stim,
38,,,,,,,,500.0,,,,,,stop_signal_with_go_no_go,,,,,,,,0.0-0.0-38.0,-1.0,none,,-1,,500.0,,<div class = centerbox><div class = fixation>+</div></div>,,,,104473,0.0,prompt_fixation,38,poldrack-single-stim,
39,200.0,400.0,200.0,500.0,<div class = bigbox><div class = centerbox><div class = starbox><img class = center src='/static/experiments/stop_signal_with_go_no_go/images/stopSignal.png'></img></div></div></div>,go,,2000.0,,77.0,1.0,0.0,13.0,stop_signal_with_go_no_go,,,,,,1.0,go,0.0-0.0-39.0,77.0,"[90, 77]",,600,circle,1000.0,solid,<div class = bigbox><div class = centerbox><div class = gng_number><div class = cue-text><img class = center src='/static/experiments/stop_signal_with_go_no_go/images/solid_circle.png'></img></div></div></div></div>,,go,,106476,0.0,practice_trial,39,stop-signal,
40,,,,,,,,500.0,,,,,,stop_signal_with_go_no_go,,,,,,,,0.0-0.0-40.0,-1.0,none,,-1,,500.0,,"<div class = fb_box><div class = center-text><font size = 20>Correct!</font></div></div><div class = prompt_box><p class = center-block-text style = ""font-size:16px; line-height:80%%;"">square: Z key</p><p class = center-block-text style = ""font-size:16px; line-height:80%%;"">circle: M key</p><p class = center-block-text style = ""font-size:16px; line-height:80%%;"">Do not respond if a star appears!</p><p class = center-block-text style = ""font-size:16px; line-height:80%%;"">Do not respond if the shape is outlined!</p></div>",,,,106979,0.0,practice-stop-feedback,40,poldrack-single-stim,
41,,,,,,,,500.0,,,,,,stop_signal_with_go_no_go,,,,,,,,0.0-0.0-41.0,-1.0,none,,-1,,500.0,,<div class = centerbox><div class = fixation>+</div></div>,,,,107481,0.0,prompt_fixation,41,poldrack-single-stim,
42,200.0,400.0,400.0,500.0,<div class = bigbox><div class = centerbox><div class = starbox><img class = center src='/static/experiments/stop_signal_with_go_no_go/images/stopSignal.png'></img></div></div></div>,go,,2000.0,,-1.0,1.0,0.0,14.0,stop_signal_with_go_no_go,,,,,,1.0,nogo,0.0-0.0-42.0,-1.0,"[90, 77]",,-1,circle,1000.0,outlined,<div class = bigbox><div class = centerbox><div class = gng_number><div class = cue-text><img class = center src='/static/experiments/stop_signal_with_go_no_go/images/outlined_circle.png'></img></div></div></div></div>,,go,,109485,0.0,practice_trial,42,stop-signal,
43,,,,,,,,500.0,,,,,,stop_signal_with_go_no_go,,,,,,,,0.0-0.0-43.0,-1.0,none,,-1,,500.0,,"<div class = fb_box><div class = center-text><font size = 20>Correct!</font></div></div><div class = prompt_box><p class = center-block-text style = ""font-size:16px; line-height:80%%;"">square: Z key</p><p class = center-block-text style = ""font-size:16px; line-height:80%%;"">circle: M key</p><p class = center-block-text style = ""font-size:16px; line-height:80%%;"">Do not respond if a star appears!</p><p class = center-block-text style = ""font-size:16px; line-height:80%%;"">Do not respond if the shape is outlined!</p></div>",,,,109987,0.0,practice-stop-feedback,43,poldrack-single-stim,
44,,,,,,,,500.0,,,,,,stop_signal_with_go_no_go,,,,,,,,0.0-0.0-44.0,-1.0,none,,-1,,500.0,,<div class = centerbox><div class = fixation>+</div></div>,,,,110490,0.0,prompt_fixation,44,poldrack-single-stim,
45,200.0,400.0,200.0,500.0,<div class = bigbox><div class = centerbox><div class = starbox><img class = center src='/static/experiments/stop_signal_with_go_no_go/images/stopSignal.png'></img></div></div></div>,go,,2000.0,,77.0,1.0,0.0,15.0,stop_signal_with_go_no_go,,,,,,1.0,go,0.0-0.0-45.0,77.0,"[90, 77]",,447,circle,1000.0,solid,<div class = bigbox><div class = centerbox><div class = gng_number><div class = cue-text><img class = center src='/static/experiments/stop_signal_with_go_no_go/images/solid_circle.png'></img></div></div></div></div>,,go,,112492,0.0,practice_trial,45,stop-signal,
46,,,,,,,,500.0,,,,,,stop_signal_with_go_no_go,,,,,,,,0.0-0.0-46.0,-1.0,none,,-1,,500.0,,"<div class = fb_box><div class = center-text><font size = 20>Correct!</font></div></div><div class = prompt_box><p class = center-block-text style = ""font-size:16px; line-height:80%%;"">square: Z key</p><p class = center-block-text style = ""font-size:16px; line-height:80%%;"">circle: M key</p><p class = center-block-text style = ""font-size:16px; line-height:80%%;"">Do not respond if a star appears!</p><p class = center-block-text style = ""font-size:16px; line-height:80%%;"">Do not respond if the shape is outlined!</p></div>",,,,112996,0.0,practice-stop-feedback,46,poldrack-single-stim,
47,,,,,,,,500.0,,,,,,stop_signal_with_go_no_go,,,,,,,,0.0-0.0-47.0,-1.0,none,,-1,,500.0,,<div class = centerbox><div class = fixation>+</div></div>,,,,113499,0.0,prompt_fixation,47,poldrack-single-stim,
48,200.0,400.0,200.0,500.0,<div class = bigbox><div class = centerbox><div class = starbox><img class = center src='/static/experiments/stop_signal_with_go_no_go/images/stopSignal.png'></img></div></div></div>,go,,2000.0,,90.0,1.0,0.0,16.0,stop_signal_with_go_no_go,,,,,,1.0,go,0.0-0.0-48.0,90.0,"[90, 77]",,494,square,1000.0,solid,<div class = bigbox><div class = centerbox><div class = gng_number><div class = cue-text><img class = center src='/static/experiments/stop_signal_with_go_no_go/images/solid_square.png'></img></div></div></div></div>,,go,,115502,0.0,practice_trial,48,stop-signal,
49,,,,,,,,500.0,,,,,,stop_signal_with_go_no_go,,,,,,,,0.0-0.0-49.0,-1.0,none,,-1,,500.0,,"<div class = fb_box><div class = center-text><font size = 20>Correct!</font></div></div><div class = prompt_box><p class = center-block-text style = ""font-size:16px; line-height:80%%;"">square: Z key</p><p class = center-block-text style = ""font-size:16px; line-height:80%%;"">circle: M key</p><p class = center-block-text style = ""font-size:16px; line-height:80%%;"">Do not respond if a star appears!</p><p class = center-block-text style = ""font-size:16px; line-height:80%%;"">Do not respond if the shape is outlined!</p></div>",,,,116005,0.0,practice-stop-feedback,49,poldrack-single-stim,
50,,,,,,,,500.0,,,,,,stop_signal_with_go_no_go,,,,,,,,0.0-0.0-50.0,-1.0,none,,-1,,500.0,,<div class = centerbox><div class = fixation>+</div></div>,,,,116509,0.0,prompt_fixation,50,poldrack-single-stim,
51,200.0,400.0,200.0,500.0,<div class = bigbox><div class = centerbox><div class = starbox><img class = center src='/static/experiments/stop_signal_with_go_no_go/images/stopSignal.png'></img></div></div></div>,stop,,2000.0,,-1.0,1.0,0.0,17.0,stop_signal_with_go_no_go,,,,,,,go,0.0-0.0-51.0,-1.0,"[90, 77]",,-1,circle,1000.0,solid,<div class = bigbox><div class = centerbox><div class = gng_number><div class = cue-text><img class = center src='/static/experiments/stop_signal_with_go_no_go/images/solid_circle.png'></img></div></div></div></div>,1.0,stop,,118511,0.0,practice_trial,51,stop-signal,
52,,,,,,,,500.0,,,,,,stop_signal_with_go_no_go,,,,,,,,0.0-0.0-52.0,-1.0,none,,-1,,500.0,,"<div class = fb_box><div class = center-text><font size = 20>Correct!</font></div></div><div class = prompt_box><p class = center-block-text style = ""font-size:16px; line-height:80%%;"">square: Z key</p><p class = center-block-text style = ""font-size:16px; line-height:80%%;"">circle: M key</p><p class = center-block-text style = ""font-size:16px; line-height:80%%;"">Do not respond if a star appears!</p><p class = center-block-text style = ""font-size:16px; line-height:80%%;"">Do not respond if the shape is outlined!</p></div>",,,,119014,0.0,practice-stop-feedback,52,poldrack-single-stim,
53,,,,,,,,500.0,,,,,,stop_signal_with_go_no_go,,,,,,,,0.0-0.0-53.0,-1.0,none,,-1,,500.0,,<div class = centerbox><div class = fixation>+</div></div>,,,,119517,0.0,prompt_fixation,53,poldrack-single-stim,
54,250.0,400.0,250.0,500.0,<div class = bigbox><div class = centerbox><div class = starbox><img class = center src='/static/experiments/stop_signal_with_go_no_go/images/stopSignal.png'></img></div></div></div>,go,,2000.0,,90.0,1.0,0.0,18.0,stop_signal_with_go_no_go,,,,,,1.0,go,0.0-0.0-54.0,90.0,"[90, 77]",,532,square,1000.0,solid,<div class = bigbox><div class = centerbox><div class = gng_number><div class = cue-text><img class = center src='/static/experiments/stop_signal_with_go_no_go/images/solid_square.png'></img></div></div></div></div>,,go,,121520,0.0,practice_trial,54,stop-signal,
55,,,,,,,,500.0,,,,,,stop_signal_with_go_no_go,,,,,,,,0.0-0.0-55.0,-1.0,none,,-1,,500.0,,"<div class = fb_box><div class = center-text><font size = 20>Correct!</font></div></div><div class = prompt_box><p class = center-block-text style = ""font-size:16px; line-height:80%%;"">square: Z key</p><p class = center-block-text style = ""font-size:16px; line-height:80%%;"">circle: M key</p><p class = center-block-text style = ""font-size:16px; line-height:80%%;"">Do not respond if a star appears!</p><p class = center-block-text style = ""font-size:16px; line-height:80%%;"">Do not respond if the shape is outlined!</p></div>",,,,122023,0.0,practice-stop-feedback,55,poldrack-single-stim,
56,,,,,,,,500.0,,,,,,stop_signal_with_go_no_go,,,,,,,,0.0-0.0-56.0,-1.0,none,,-1,,500.0,,<div class = centerbox><div class = fixation>+</div></div>,,,,122526,0.0,prompt_fixation,56,poldrack-single-stim,
57,250.0,400.0,250.0,500.0,<div class = bigbox><div class = centerbox><div class = starbox><img class = center src='/static/experiments/stop_signal_with_go_no_go/images/stopSignal.png'></img></div></div></div>,go,,2000.0,,90.0,1.0,0.0,19.0,stop_signal_with_go_no_go,,,,,,1.0,go,0.0-0.0-57.0,90.0,"[90, 77]",,579,square,1000.0,solid,<div class = bigbox><div class = centerbox><div class = gng_number><div class = cue-text><img class = center src='/static/experiments/stop_signal_with_go_no_go/images/solid_square.png'></img></div></div></div></div>,,go,,124528,0.0,practice_trial,57,stop-signal,
58,,,,,,,,500.0,,,,,,stop_signal_with_go_no_go,,,,,,,,0.0-0.0-58.0,-1.0,none,,-1,,500.0,,"<div class = fb_box><div class = center-text><font size = 20>Correct!</font></div></div><div class = prompt_box><p class = center-block-text style = ""font-size:16px; line-height:80%%;"">square: Z key</p><p class = center-block-text style = ""font-size:16px; line-height:80%%;"">circle: M key</p><p class = center-block-text style = ""font-size:16px; line-height:80%%;"">Do not respond if a star appears!</p><p class = center-block-text style = ""font-size:16px; line-height:80%%;"">Do not respond if the shape is outlined!</p></div>",,,,125031,0.0,practice-stop-feedback,58,poldrack-single-stim,
59,,,,,,,,500.0,,,,,,stop_signal_with_go_no_go,,,,,,,,0.0-0.0-59.0,-1.0,none,,-1,,500.0,,<div class = centerbox><div class = fixation>+</div></div>,,,,125535,0.0,prompt_fixation,59,poldrack-single-stim,
60,250.0,400.0,250.0,500.0,<div class = bigbox><div class = centerbox><div class = starbox><img class = center src='/static/experiments/stop_signal_with_go_no_go/images/stopSignal.png'></img></div></div></div>,stop,,2000.0,,-1.0,1.0,0.0,20.0,stop_signal_with_go_no_go,,,,,,,go,0.0-0.0-60.0,-1.0,"[90, 77]",,-1,square,1000.0,solid,<div class = bigbox><div class = centerbox><div class = gng_number><div class = cue-text><img class = center src='/static/experiments/stop_signal_with_go_no_go/images/solid_square.png'></img></div></div></div></div>,1.0,stop,,127537,0.0,practice_trial,60,stop-signal,
61,,,,,,,,500.0,,,,,,stop_signal_with_go_no_go,,,,,,,,0.0-0.0-61.0,-1.0,none,,-1,,500.0,,"<div class = fb_box><div class = center-text><font size = 20>Correct!</font></div></div><div class = prompt_box><p class = center-block-text style = ""font-size:16px; line-height:80%%;"">square: Z key</p><p class = center-block-text style = ""font-size:16px; line-height:80%%;"">circle: M key</p><p class = center-block-text style = ""font-size:16px; line-height:80%%;"">Do not respond if a star appears!</p><p class = center-block-text style = ""font-size:16px; line-height:80%%;"">Do not respond if the shape is outlined!</p></div>",,,,128040,0.0,practice-stop-feedback,61,poldrack-single-stim,
62,,,,,,,,500.0,,,,,,stop_signal_with_go_no_go,,,,,,,,0.0-0.0-62.0,-1.0,none,,-1,,500.0,,<div class = centerbox><div class = fixation>+</div></div>,,,,128542,0.0,prompt_fixation,62,poldrack-single-stim,
63,300.0,400.0,300.0,500.0,<div class = bigbox><div class = centerbox><div class = starbox><img class = center src='/static/experiments/stop_signal_with_go_no_go/images/stopSignal.png'></img></div></div></div>,stop,,2000.0,,-1.0,1.0,0.0,21.0,stop_signal_with_go_no_go,,,,,,,go,0.0-0.0-63.0,-1.0,"[90, 77]",,-1,square,1000.0,solid,<div class = bigbox><div class = centerbox><div class = gng_number><div class = cue-text><img class = center src='/static/experiments/stop_signal_with_go_no_go/images/solid_square.png'></img></div></div></div></div>,1.0,stop,,130545,0.0,practice_trial,63,stop-signal,
64,,,,,,,,500.0,,,,,,stop_signal_with_go_no_go,,,,,,,,0.0-0.0-64.0,-1.0,none,,-1,,500.0,,"<div class = fb_box><div class = center-text><font size = 20>Correct!</font></div></div><div class = prompt_box><p class = center-block-text style = ""font-size:16px; line-height:80%%;"">square: Z key</p><p class = center-block-text style = ""font-size:16px; line-height:80%%;"">circle: M key</p><p class = center-block-text style = ""font-size:16px; line-height:80%%;"">Do not respond if a star appears!</p><p class = center-block-text style = ""font-size:16px; line-height:80%%;"">Do not respond if the shape is outlined!</p></div>",,,,131048,0.0,practice-stop-feedback,64,poldrack-single-stim,
65,,,,,,,,500.0,,,,,,stop_signal_with_go_no_go,,,,,,,,0.0-0.0-65.0,-1.0,none,,-1,,500.0,,<div class = centerbox><div class = fixation>+</div></div>,,,,131550,0.0,prompt_fixation,65,poldrack-single-stim,
66,350.0,400.0,350.0,500.0,<div class = bigbox><div class = centerbox><div class = starbox><img class = center src='/static/experiments/stop_signal_with_go_no_go/images/stopSignal.png'></img></div></div></div>,go,,2000.0,,90.0,1.0,0.0,22.0,stop_signal_with_go_no_go,,,,,,1.0,go,0.0-0.0-66.0,90.0,"[90, 77]",,636,square,1000.0,solid,<div class = bigbox><div class = centerbox><div class = gng_number><div class = cue-text><img class = center src='/static/experiments/stop_signal_with_go_no_go/images/solid_square.png'></img></div></div></div></div>,,go,,133553,0.0,practice_trial,66,stop-signal,
67,,,,,,,,500.0,,,,,,stop_signal_with_go_no_go,,,,,,,,0.0-0.0-67.0,-1.0,none,,-1,,500.0,,"<div class = fb_box><div class = center-text><font size = 20>Correct!</font></div></div><div class = prompt_box><p class = center-block-text style = ""font-size:16px; line-height:80%%;"">square: Z key</p><p class = center-block-text style = ""font-size:16px; line-height:80%%;"">circle: M key</p><p class = center-block-text style = ""font-size:16px; line-height:80%%;"">Do not respond if a star appears!</p><p class = center-block-text style = ""font-size:16px; line-height:80%%;"">Do not respond if the shape is outlined!</p></div>",,,,134055,0.0,practice-stop-feedback,67,poldrack-single-stim,
68,,,,,,,,500.0,,,,,,stop_signal_with_go_no_go,,,,,,,,0.0-0.0-68.0,-1.0,none,,-1,,500.0,,<div class = centerbox><div class = fixation>+</div></div>,,,,134559,0.0,prompt_fixation,68,poldrack-single-stim,
69,350.0,400.0,350.0,500.0,<div class = bigbox><div class = centerbox><div class = starbox><img class = center src='/static/experiments/stop_signal_with_go_no_go/images/stopSignal.png'></img></div></div></div>,go,,2000.0,,90.0,1.0,0.0,23.0,stop_signal_with_go_no_go,,,,,,1.0,go,0.0-0.0-69.0,90.0,"[90, 77]",,570,square,1000.0,solid,<div class = bigbox><div class = centerbox><div class = gng_number><div class = cue-text><img class = center src='/static/experiments/stop_signal_with_go_no_go/images/solid_square.png'></img></div></div></div></div>,,go,,136562,0.0,practice_trial,69,stop-signal,
70,,,,,,,,500.0,,,,,,stop_signal_with_go_no_go,,,,,,,,0.0-0.0-70.0,-1.0,none,,-1,,500.0,,"<div class = fb_box><div class = center-text><font size = 20>Correct!</font></div></div><div class = prompt_box><p class = center-block-text style = ""font-size:16px; line-height:80%%;"">square: Z key</p><p class = center-block-text style = ""font-size:16px; line-height:80%%;"">circle: M key</p><p class = center-block-text style = ""font-size:16px; line-height:80%%;"">Do not respond if a star appears!</p><p class = center-block-text style = ""font-size:16px; line-height:80%%;"">Do not respond if the shape is outlined!</p></div>",,,,137065,0.0,practice-stop-feedback,70,poldrack-single-stim,
71,,,,,,,,500.0,,,,,,stop_signal_with_go_no_go,,,,,,,,0.0-0.0-71.0,-1.0,none,,-1,,500.0,,<div class = centerbox><div class = fixation>+</div></div>,,,,137568,0.0,prompt_fixation,71,poldrack-single-stim,
72,350.0,400.0,350.0,500.0,<div class = bigbox><div class = centerbox><div class = starbox><img class = center src='/static/experiments/stop_signal_with_go_no_go/images/stopSignal.png'></img></div></div></div>,go,,2000.0,,77.0,1.0,0.0,24.0,stop_signal_with_go_no_go,,,,,,1.0,go,0.0-0.0-72.0,77.0,"[90, 77]",,593,circle,1000.0,solid,<div class = bigbox><div class = centerbox><div class = gng_number><div class = cue-text><img class = center src='/static/experiments/stop_signal_with_go_no_go/images/solid_circle.png'></img></div></div></div></div>,,go,,139570,0.0,practice_trial,72,stop-signal,
73,,,,,,,,500.0,,,,,,stop_signal_with_go_no_go,,,,,,,,0.0-0.0-73.0,-1.0,none,,-1,,500.0,,"<div class = fb_box><div class = center-text><font size = 20>Correct!</font></div></div><div class = prompt_box><p class = center-block-text style = ""font-size:16px; line-height:80%%;"">square: Z key</p><p class = center-block-text style = ""font-size:16px; line-height:80%%;"">circle: M key</p><p class = center-block-text style = ""font-size:16px; line-height:80%%;"">Do not respond if a star appears!</p><p class = center-block-text style = ""font-size:16px; line-height:80%%;"">Do not respond if the shape is outlined!</p></div>",,,,140074,0.0,practice-stop-feedback,73,poldrack-single-stim,
74,,,,,,,,500.0,,,,,,stop_signal_with_go_no_go,,,,,,,,0.0-0.0-74.0,-1.0,none,,-1,,500.0,,<div class = centerbox><div class = fixation>+</div></div>,,,,140577,0.0,prompt_fixation,74,poldrack-single-stim,
75,350.0,400.0,350.0,500.0,<div class = bigbox><div class = centerbox><div class = starbox><img class = center src='/static/experiments/stop_signal_with_go_no_go/images/stopSignal.png'></img></div></div></div>,stop,,2000.0,,-1.0,0.0,0.0,25.0,stop_signal_with_go_no_go,,,,,,,go,0.0-0.0-75.0,90.0,"[90, 77]",,448,square,1000.0,solid,<div class = bigbox><div class = centerbox><div class = gng_number><div class = cue-text><img class = center src='/static/experiments/stop_signal_with_go_no_go/images/solid_square.png'></img></div></div></div></div>,0.0,stop,,142580,0.0,practice_trial,75,stop-signal,
76,,,,,,,,500.0,,,,,,stop_signal_with_go_no_go,,,,,,,,0.0-0.0-76.0,-1.0,none,,-1,,500.0,,"<div class = fb_box><div class = center-text><font size = 20>There was a star.</font></div></div><div class = prompt_box><p class = center-block-text style = ""font-size:16px; line-height:80%%;"">square: Z key</p><p class = center-block-text style = ""font-size:16px; line-height:80%%;"">circle: M key</p><p class = center-block-text style = ""font-size:16px; line-height:80%%;"">Do not respond if a star appears!</p><p class = center-block-text style = ""font-size:16px; line-height:80%%;"">Do not respond if the shape is outlined!</p></div>",,,,143083,0.0,practice-stop-feedback,76,poldrack-single-stim,
77,,,,,,,,500.0,,,,,,stop_signal_with_go_no_go,,,,,,,,0.0-0.0-77.0,-1.0,none,,-1,,500.0,,<div class = centerbox><div class = fixation>+</div></div>,,,,143585,0.0,prompt_fixation,77,poldrack-single-stim,
78,300.0,400.0,400.0,500.0,<div class = bigbox><div class = centerbox><div class = starbox><img class = center src='/static/experiments/stop_signal_with_go_no_go/images/stopSignal.png'></img></div></div></div>,stop,,2000.0,,-1.0,1.0,0.0,26.0,stop_signal_with_go_no_go,,,,,,,nogo,0.0-0.0-78.0,-1.0,"[90, 77]",,-1,circle,1000.0,outlined,<div class = bigbox><div class = centerbox><div class = gng_number><div class = cue-text><img class = center src='/static/experiments/stop_signal_with_go_no_go/images/outlined_circle.png'></img></div></div></div></div>,1.0,stop,,145587,0.0,practice_trial,78,stop-signal,
79,,,,,,,,500.0,,,,,,stop_signal_with_go_no_go,,,,,,,,0.0-0.0-79.0,-1.0,none,,-1,,500.0,,"<div class = fb_box><div class = center-text><font size = 20>Correct!</font></div></div><div class = prompt_box><p class = center-block-text style = ""font-size:16px; line-height:80%%;"">square: Z key</p><p class = center-block-text style = ""font-size:16px; line-height:80%%;"">circle: M key</p><p class = center-block-text style = ""font-size:16px; line-height:80%%;"">Do not respond if a star appears!</p><p class = center-block-text style = ""font-size:16px; line-height:80%%;"">Do not respond if the shape is outlined!</p></div>",,,,146090,0.0,practice-stop-feedback,79,poldrack-single-stim,
80,,,,,,,,500.0,,,,,,stop_signal_with_go_no_go,,,,,,,,0.0-0.0-80.0,-1.0,none,,-1,,500.0,,<div class = centerbox><div class = fixation>+</div></div>,,,,146593,0.0,prompt_fixation,80,poldrack-single-stim,
81,300.0,450.0,300.0,500.0,<div class = bigbox><div class = centerbox><div class = starbox><img class = center src='/static/experiments/stop_signal_with_go_no_go/images/stopSignal.png'></img></div></div></div>,go,,2000.0,,90.0,1.0,0.0,27.0,stop_signal_with_go_no_go,,,,,,1.0,go,0.0-0.0-81.0,90.0,"[90, 77]",,432,square,1000.0,solid,<div class = bigbox><div class = centerbox><div class = gng_number><div class = cue-text><img class = center src='/static/experiments/stop_signal_with_go_no_go/images/solid_square.png'></img></div></div></div></div>,,go,,148596,0.0,practice_trial,81,stop-signal,
82,,,,,,,,500.0,,,,,,stop_signal_with_go_no_go,,,,,,,,0.0-0.0-82.0,-1.0,none,,-1,,500.0,,"<div class = fb_box><div class = center-text><font size = 20>Correct!</font></div></div><div class = prompt_box><p class = center-block-text style = ""font-size:16px; line-height:80%%;"">square: Z key</p><p class = center-block-text style = ""font-size:16px; line-height:80%%;"">circle: M key</p><p class = center-block-text style = ""font-size:16px; line-height:80%%;"">Do not respond if a star appears!</p><p class = center-block-text style = ""font-size:16px; line-height:80%%;"">Do not respond if the shape is outlined!</p></div>",,,,149099,0.0,practice-stop-feedback,82,poldrack-single-stim,
83,,,,,,,,500.0,,,,,,stop_signal_with_go_no_go,,,,,,,,0.0-0.0-83.0,-1.0,none,,-1,,500.0,,<div class = centerbox><div class = fixation>+</div></div>,,,,149601,0.0,prompt_fixation,83,poldrack-single-stim,
84,300.0,450.0,450.0,500.0,<div class = bigbox><div class = centerbox><div class = starbox><img class = center src='/static/experiments/stop_signal_with_go_no_go/images/stopSignal.png'></img></div></div></div>,go,,2000.0,,-1.0,1.0,0.0,28.0,stop_signal_with_go_no_go,,,,,,1.0,nogo,0.0-0.0-84.0,-1.0,"[90, 77]",,-1,circle,1000.0,outlined,<div class = bigbox><div class = centerbox><div class = gng_number><div class = cue-text><img class = center src='/static/experiments/stop_signal_with_go_no_go/images/outlined_circle.png'></img></div></div></div></div>,,go,,151604,0.0,practice_trial,84,stop-signal,
85,,,,,,,,500.0,,,,,,stop_signal_with_go_no_go,,,,,,,,0.0-0.0-85.0,-1.0,none,,-1,,500.0,,"<div class = fb_box><div class = center-text><font size = 20>Correct!</font></div></div><div class = prompt_box><p class = center-block-text style = ""font-size:16px; line-height:80%%;"">square: Z key</p><p class = center-block-text style = ""font-size:16px; line-height:80%%;"">circle: M key</p><p class = center-block-text style = ""font-size:16px; line-height:80%%;"">Do not respond if a star appears!</p><p class = center-block-text style = ""font-size:16px; line-height:80%%;"">Do not respond if the shape is outlined!</p></div>",,,,152107,0.0,practice-stop-feedback,85,poldrack-single-stim,
86,,,,,,,,500.0,,,,,,stop_signal_with_go_no_go,,,,,,,,0.0-0.0-86.0,-1.0,none,,-1,,500.0,,<div class = centerbox><div class = fixation>+</div></div>,,,,152610,0.0,prompt_fixation,86,poldrack-single-stim,
87,300.0,450.0,300.0,500.0,<div class = bigbox><div class = centerbox><div class = starbox><img class = center src='/static/experiments/stop_signal_with_go_no_go/images/stopSignal.png'></img></div></div></div>,go,,2000.0,,77.0,1.0,0.0,29.0,stop_signal_with_go_no_go,,,,,,1.0,go,0.0-0.0-87.0,77.0,"[90, 77]",,558,circle,1000.0,solid,<div class = bigbox><div class = centerbox><div class = gng_number><div class = cue-text><img class = center src='/static/experiments/stop_signal_with_go_no_go/images/solid_circle.png'></img></div></div></div></div>,,go,,154613,0.0,practice_trial,87,stop-signal,
88,,,,,,,,500.0,,,,,,stop_signal_with_go_no_go,,,,,,,,0.0-0.0-88.0,-1.0,none,,-1,,500.0,,"<div class = fb_box><div class = center-text><font size = 20>Correct!</font></div></div><div class = prompt_box><p class = center-block-text style = ""font-size:16px; line-height:80%%;"">square: Z key</p><p class = center-block-text style = ""font-size:16px; line-height:80%%;"">circle: M key</p><p class = center-block-text style = ""font-size:16px; line-height:80%%;"">Do not respond if a star appears!</p><p class = center-block-text style = ""font-size:16px; line-height:80%%;"">Do not respond if the shape is outlined!</p></div>",,,,155118,0.0,practice-stop-feedback,88,poldrack-single-stim,
89,,,,,,,,500.0,,,,,,stop_signal_with_go_no_go,,,,,,,,0.0-0.0-89.0,-1.0,none,,-1,,500.0,,<div class = centerbox><div class = fixation>+</div></div>,,,,155621,0.0,prompt_fixation,89,poldrack-single-stim,
90,300.0,450.0,300.0,500.0,<div class = bigbox><div class = centerbox><div class = starbox><img class = center src='/static/experiments/stop_signal_with_go_no_go/images/stopSignal.png'></img></div></div></div>,go,,2000.0,,77.0,1.0,0.0,30.0,stop_signal_with_go_no_go,,,,,,1.0,go,0.0-0.0-90.0,77.0,"[90, 77]",,765,circle,1000.0,solid,<div class = bigbox><div class = centerbox><div class = gng_number><div class = cue-text><img class = center src='/static/experiments/stop_signal_with_go_no_go/images/solid_circle.png'></img></div></div></div></div>,,go,,157623,0.0,practice_trial,90,stop-signal,
91,,,,,,,,500.0,,,,,,stop_signal_with_go_no_go,,,,,,,,0.0-0.0-91.0,-1.0,none,,-1,,500.0,,"<div class = fb_box><div class = center-text><font size = 20>Correct!</font></div></div><div class = prompt_box><p class = center-block-text style = ""font-size:16px; line-height:80%%;"">square: Z key</p><p class = center-block-text style = ""font-size:16px; line-height:80%%;"">circle: M key</p><p class = center-block-text style = ""font-size:16px; line-height:80%%;"">Do not respond if a star appears!</p><p class = center-block-text style = ""font-size:16px; line-height:80%%;"">Do not respond if the shape is outlined!</p></div>",,,,158126,0.0,practice-stop-feedback,91,poldrack-single-stim,
92,,,,,,,,500.0,,,,,,stop_signal_with_go_no_go,,,,,,,,0.0-0.0-92.0,-1.0,none,,-1,,500.0,,<div class = centerbox><div class = fixation>+</div></div>,,,,158628,0.0,prompt_fixation,92,poldrack-single-stim,
93,300.0,450.0,300.0,500.0,<div class = bigbox><div class = centerbox><div class = starbox><img class = center src='/static/experiments/stop_signal_with_go_no_go/images/stopSignal.png'></img></div></div></div>,stop,,2000.0,,-1.0,1.0,0.0,31.0,stop_signal_with_go_no_go,,,,,,,go,0.0-0.0-93.0,-1.0,"[90, 77]",,-1,square,1000.0,solid,<div class = bigbox><div class = centerbox><div class = gng_number><div class = cue-text><img class = center src='/static/experiments/stop_signal_with_go_no_go/images/solid_square.png'></img></div></div></div></div>,1.0,stop,,160632,0.0,practice_trial,93,stop-signal,
94,,,,,,,,500.0,,,,,,stop_signal_with_go_no_go,,,,,,,,0.0-0.0-94.0,-1.0,none,,-1,,500.0,,"<div class = fb_box><div class = center-text><font size = 20>Correct!</font></div></div><div class = prompt_box><p class = center-block-text style = ""font-size:16px; line-height:80%%;"">square: Z key</p><p class = center-block-text style = ""font-size:16px; line-height:80%%;"">circle: M key</p><p class = center-block-text style = ""font-size:16px; line-height:80%%;"">Do not respond if a star appears!</p><p class = center-block-text style = ""font-size:16px; line-height:80%%;"">Do not respond if the shape is outlined!</p></div>",,,,161134,0.0,practice-stop-feedback,94,poldrack-single-stim,
95,,,,,,,,500.0,,,,,,stop_signal_with_go_no_go,,,,,,,,0.0-0.0-95.0,-1.0,none,,-1,,500.0,,<div class = centerbox><div class = fixation>+</div></div>,,,,161638,0.0,prompt_fixation,95,poldrack-single-stim,
96,350.0,450.0,350.0,500.0,<div class = bigbox><div class = centerbox><div class = starbox><img class = center src='/static/experiments/stop_signal_with_go_no_go/images/stopSignal.png'></img></div></div></div>,go,,2000.0,,77.0,1.0,0.0,32.0,stop_signal_with_go_no_go,,,,,,1.0,go,0.0-0.0-96.0,77.0,"[90, 77]",,556,circle,1000.0,solid,<div class = bigbox><div class = centerbox><div class = gng_number><div class = cue-text><img class = center src='/static/experiments/stop_signal_with_go_no_go/images/solid_circle.png'></img></div></div></div></div>,,go,,163640,0.0,practice_trial,96,stop-signal,
97,,,,,,,,500.0,,,,,,stop_signal_with_go_no_go,,,,,,,,0.0-0.0-97.0,-1.0,none,,-1,,500.0,,"<div class = fb_box><div class = center-text><font size = 20>Correct!</font></div></div><div class = prompt_box><p class = center-block-text style = ""font-size:16px; line-height:80%%;"">square: Z key</p><p class = center-block-text style = ""font-size:16px; line-height:80%%;"">circle: M key</p><p class = center-block-text style = ""font-size:16px; line-height:80%%;"">Do not respond if a star appears!</p><p class = center-block-text style = ""font-size:16px; line-height:80%%;"">Do not respond if the shape is outlined!</p></div>",,,,164143,0.0,practice-stop-feedback,97,poldrack-single-stim,
98,,,,,,,,500.0,,,,,,stop_signal_with_go_no_go,,,,,,,,0.0-0.0-98.0,-1.0,none,,-1,,500.0,,<div class = centerbox><div class = fixation>+</div></div>,,,,164645,0.0,prompt_fixation,98,poldrack-single-stim,
99,350.0,450.0,350.0,500.0,<div class = bigbox><div class = centerbox><div class = starbox><img class = center src='/static/experiments/stop_signal_with_go_no_go/images/stopSignal.png'></img></div></div></div>,go,,2000.0,,90.0,0.0,0.0,33.0,stop_signal_with_go_no_go,,,,,,0.0,go,0.0-0.0-99.0,-1.0,"[90, 77]",,-1,square,1000.0,solid,<div class = bigbox><div class = centerbox><div class = gng_number><div class = cue-text><img class = center src='/static/experiments/stop_signal_with_go_no_go/images/solid_square.png'></img></div></div></div></div>,,go,,166648,0.0,practice_trial,99,stop-signal,
100,,,,,,,,500.0,,,,,,stop_signal_with_go_no_go,,,,,,,,0.0-0.0-100.0,-1.0,none,,-1,,500.0,,"<div class = fb_box><div class = center-text><font size = 20>Respond Faster!</font></div></div><div class = prompt_box><p class = center-block-text style = ""font-size:16px; line-height:80%%;"">square: Z key</p><p class = center-block-text style = ""font-size:16px; line-height:80%%;"">circle: M key</p><p class = center-block-text style = ""font-size:16px; line-height:80%%;"">Do not respond if a star appears!</p><p class = center-block-text style = ""font-size:16px; line-height:80%%;"">Do not respond if the shape is outlined!</p></div>",,,,167152,0.0,practice-stop-feedback,100,poldrack-single-stim,
101,,,,,,,,500.0,,,,,,stop_signal_with_go_no_go,,,,,,,,0.0-0.0-101.0,-1.0,none,,-1,,500.0,,<div class = centerbox><div class = fixation>+</div></div>,,,,167654,0.0,prompt_fixation,101,poldrack-single-stim,
102,350.0,450.0,350.0,500.0,<div class = bigbox><div class = centerbox><div class = starbox><img class = center src='/static/experiments/stop_signal_with_go_no_go/images/stopSignal.png'></img></div></div></div>,go,,2000.0,,77.0,1.0,0.0,34.0,stop_signal_with_go_no_go,,,,,,1.0,go,0.0-0.0-102.0,77.0,"[90, 77]",,467,circle,1000.0,solid,<div class = bigbox><div class = centerbox><div class = gng_number><div class = cue-text><img class = center src='/static/experiments/stop_signal_with_go_no_go/images/solid_circle.png'></img></div></div></div></div>,,go,,169657,0.0,practice_trial,102,stop-signal,
103,,,,,,,,500.0,,,,,,stop_signal_with_go_no_go,,,,,,,,0.0-0.0-103.0,-1.0,none,,-1,,500.0,,"<div class = fb_box><div class = center-text><font size = 20>Correct!</font></div></div><div class = prompt_box><p class = center-block-text style = ""font-size:16px; line-height:80%%;"">square: Z key</p><p class = center-block-text style = ""font-size:16px; line-height:80%%;"">circle: M key</p><p class = center-block-text style = ""font-size:16px; line-height:80%%;"">Do not respond if a star appears!</p><p class = center-block-text style = ""font-size:16px; line-height:80%%;"">Do not respond if the shape is outlined!</p></div>",,,,170160,0.0,practice-stop-feedback,103,poldrack-single-stim,
104,,,,,,,,500.0,,,,,,stop_signal_with_go_no_go,,,,,,,,0.0-0.0-104.0,-1.0,none,,-1,,500.0,,<div class = centerbox><div class = fixation>+</div></div>,,,,170662,0.0,prompt_fixation,104,poldrack-single-stim,
105,350.0,450.0,350.0,500.0,<div class = bigbox><div class = centerbox><div class = starbox><img class = center src='/static/experiments/stop_signal_with_go_no_go/images/stopSignal.png'></img></div></div></div>,go,,2000.0,,90.0,0.0,0.0,35.0,stop_signal_with_go_no_go,,,,,,0.0,go,0.0-0.0-105.0,-1.0,"[90, 77]",,-1,square,1000.0,solid,<div class = bigbox><div class = centerbox><div class = gng_number><div class = cue-text><img class = center src='/static/experiments/stop_signal_with_go_no_go/images/solid_square.png'></img></div></div></div></div>,,go,,172665,0.0,practice_trial,105,stop-signal,
106,,,,,,,,500.0,,,,,,stop_signal_with_go_no_go,,,,,,,,0.0-0.0-106.0,-1.0,none,,-1,,500.0,,"<div class = fb_box><div class = center-text><font size = 20>Respond Faster!</font></div></div><div class = prompt_box><p class = center-block-text style = ""font-size:16px; line-height:80%%;"">square: Z key</p><p class = center-block-text style = ""font-size:16px; line-height:80%%;"">circle: M key</p><p class = center-block-text style = ""font-size:16px; line-height:80%%;"">Do not respond if a star appears!</p><p class = center-block-text style = ""font-size:16px; line-height:80%%;"">Do not respond if the shape is outlined!</p></div>",,,,173169,0.0,practice-stop-feedback,106,poldrack-single-stim,
107,,,,,,,,500.0,,,,,,stop_signal_with_go_no_go,,,,,,,,0.0-0.0-107.0,-1.0,none,,-1,,500.0,,<div class = centerbox><div class = fixation>+</div></div>,,,,173671,0.0,prompt_fixation,107,poldrack-single-stim,
108,350.0,450.0,350.0,500.0,<div class = bigbox><div class = centerbox><div class = starbox><img class = center src='/static/experiments/stop_signal_with_go_no_go/images/stopSignal.png'></img></div></div></div>,stop,,2000.0,,-1.0,0.0,0.0,36.0,stop_signal_with_go_no_go,,,,,,,go,0.0-0.0-108.0,77.0,"[90, 77]",,369,circle,1000.0,solid,<div class = bigbox><div class = centerbox><div class = gng_number><div class = cue-text><img class = center src='/static/experiments/stop_signal_with_go_no_go/images/solid_circle.png'></img></div></div></div></div>,0.0,stop,,175674,0.0,practice_trial,108,stop-signal,
109,,,,,,,,500.0,,,,,,stop_signal_with_go_no_go,,,,,,,,0.0-0.0-109.0,-1.0,none,,-1,,500.0,,"<div class = fb_box><div class = center-text><font size = 20>There was a star.</font></div></div><div class = prompt_box><p class = center-block-text style = ""font-size:16px; line-height:80%%;"">square: Z key</p><p class = center-block-text style = ""font-size:16px; line-height:80%%;"">circle: M key</p><p class = center-block-text style = ""font-size:16px; line-height:80%%;"">Do not respond if a star appears!</p><p class = center-block-text style = ""font-size:16px; line-height:80%%;"">Do not respond if the shape is outlined!</p></div>",,,,176176,0.0,practice-stop-feedback,109,poldrack-single-stim,
110,,,,,,,,500.0,,,,,,stop_signal_with_go_no_go,,,,,,,,0.0-0.0-110.0,-1.0,none,,-1,,500.0,,<div class = centerbox><div class = fixation>+</div></div>,,,,176679,0.0,prompt_fixation,110,poldrack-single-stim,
111,300.0,450.0,300.0,500.0,<div class = bigbox><div class = centerbox><div class = starbox><img class = center src='/static/experiments/stop_signal_with_go_no_go/images/stopSignal.png'></img></div></div></div>,go,,2000.0,,77.0,1.0,0.0,37.0,stop_signal_with_go_no_go,,,,,,1.0,go,0.0-0.0-111.0,77.0,"[90, 77]",,370,circle,1000.0,solid,<div class = bigbox><div class = centerbox><div class = gng_number><div class = cue-text><img class = center src='/static/experiments/stop_signal_with_go_no_go/images/solid_circle.png'></img></div></div></div></div>,,go,,178681,0.0,practice_trial,111,stop-signal,
112,,,,,,,,500.0,,,,,,stop_signal_with_go_no_go,,,,,,,,0.0-0.0-112.0,-1.0,none,,-1,,500.0,,"<div class = fb_box><div class = center-text><font size = 20>Correct!</font></div></div><div class = prompt_box><p class = center-block-text style = ""font-size:16px; line-height:80%%;"">square: Z key</p><p class = center-block-text style = ""font-size:16px; line-height:80%%;"">circle: M key</p><p class = center-block-text style = ""font-size:16px; line-height:80%%;"">Do not respond if a star appears!</p><p class = center-block-text style = ""font-size:16px; line-height:80%%;"">Do not respond if the shape is outlined!</p></div>",,,,179184,0.0,practice-stop-feedback,112,poldrack-single-stim,
113,,,,,,,,500.0,,,,,,stop_signal_with_go_no_go,,,,,,,,0.0-0.0-113.0,-1.0,none,,-1,,500.0,,<div class = centerbox><div class = fixation>+</div></div>,,,,179687,0.0,prompt_fixation,113,poldrack-single-stim,
114,300.0,450.0,300.0,500.0,<div class = bigbox><div class = centerbox><div class = starbox><img class = center src='/static/experiments/stop_signal_with_go_no_go/images/stopSignal.png'></img></div></div></div>,stop,,2000.0,,-1.0,0.0,0.0,38.0,stop_signal_with_go_no_go,,,,,,,go,0.0-0.0-114.0,77.0,"[90, 77]",,418,circle,1000.0,solid,<div class = bigbox><div class = centerbox><div class = gng_number><div class = cue-text><img class = center src='/static/experiments/stop_signal_with_go_no_go/images/solid_circle.png'></img></div></div></div></div>,0.0,stop,,181689,0.0,practice_trial,114,stop-signal,
115,,,,,,,,500.0,,,,,,stop_signal_with_go_no_go,,,,,,,,0.0-0.0-115.0,-1.0,none,,-1,,500.0,,"<div class = fb_box><div class = center-text><font size = 20>There was a star.</font></div></div><div class = prompt_box><p class = center-block-text style = ""font-size:16px; line-height:80%%;"">square: Z key</p><p class = center-block-text style = ""font-size:16px; line-height:80%%;"">circle: M key</p><p class = center-block-text style = ""font-size:16px; line-height:80%%;"">Do not respond if a star appears!</p><p class = center-block-text style = ""font-size:16px; line-height:80%%;"">Do not respond if the shape is outlined!</p></div>",,,,182192,0.0,practice-stop-feedback,115,poldrack-single-stim,
116,,,,,,,,500.0,,,,,,stop_signal_with_go_no_go,,,,,,,,0.0-0.0-116.0,-1.0,none,,-1,,500.0,,<div class = centerbox><div class = fixation>+</div></div>,,,,182694,0.0,prompt_fixation,116,poldrack-single-stim,
117,250.0,450.0,250.0,500.0,<div class = bigbox><div class = centerbox><div class = starbox><img class = center src='/static/experiments/stop_signal_with_go_no_go/images/stopSignal.png'></img></div></div></div>,go,,2000.0,,90.0,0.0,0.0,39.0,stop_signal_with_go_no_go,,,,,,0.0,go,0.0-0.0-117.0,-1.0,"[90, 77]",,-1,square,1000.0,solid,<div class = bigbox><div class = centerbox><div class = gng_number><div class = cue-text><img class = center src='/static/experiments/stop_signal_with_go_no_go/images/solid_square.png'></img></div></div></div></div>,,go,,184696,0.0,practice_trial,117,stop-signal,
118,,,,,,,,500.0,,,,,,stop_signal_with_go_no_go,,,,,,,,0.0-0.0-118.0,-1.0,none,,-1,,500.0,,"<div class = fb_box><div class = center-text><font size = 20>Respond Faster!</font></div></div><div class = prompt_box><p class = center-block-text style = ""font-size:16px; line-height:80%%;"">square: Z key</p><p class = center-block-text style = ""font-size:16px; line-height:80%%;"">circle: M key</p><p class = center-block-text style = ""font-size:16px; line-height:80%%;"">Do not respond if a star appears!</p><p class = center-block-text style = ""font-size:16px; line-height:80%%;"">Do not respond if the shape is outlined!</p></div>",,,,185199,0.0,practice-stop-feedback,118,poldrack-single-stim,
119,,,,,,,,500.0,,,,,,stop_signal_with_go_no_go,,,,,,,,0.0-0.0-119.0,-1.0,none,,-1,,500.0,,<div class = centerbox><div class = fixation>+</div></div>,,,,185702,0.0,prompt_fixation,119,poldrack-single-stim,
120,250.0,450.0,250.0,500.0,<div class = bigbox><div class = centerbox><div class = starbox><img class = center src='/static/experiments/stop_signal_with_go_no_go/images/stopSignal.png'></img></div></div></div>,stop,,2000.0,,-1.0,1.0,0.0,40.0,stop_signal_with_go_no_go,,,,,,,go,0.0-0.0-120.0,-1.0,"[90, 77]",,-1,circle,1000.0,solid,<div class = bigbox><div class = centerbox><div class = gng_number><div class = cue-text><img class = center src='/static/experiments/stop_signal_with_go_no_go/images/solid_circle.png'></img></div></div></div></div>,1.0,stop,,187705,0.0,practice_trial,120,stop-signal,
121,,,,,,,,500.0,,,,,,stop_signal_with_go_no_go,,,,,,,,0.0-0.0-121.0,-1.0,none,,-1,,500.0,,"<div class = fb_box><div class = center-text><font size = 20>Correct!</font></div></div><div class = prompt_box><p class = center-block-text style = ""font-size:16px; line-height:80%%;"">square: Z key</p><p class = center-block-text style = ""font-size:16px; line-height:80%%;"">circle: M key</p><p class = center-block-text style = ""font-size:16px; line-height:80%%;"">Do not respond if a star appears!</p><p class = center-block-text style = ""font-size:16px; line-height:80%%;"">Do not respond if the shape is outlined!</p></div>",,,,188208,0.0,practice-stop-feedback,121,poldrack-single-stim,
122,,,,,,,,500.0,,,,,,stop_signal_with_go_no_go,,,,,,,,0.0-0.0-122.0,-1.0,none,,-1,,500.0,,<div class = centerbox><div class = fixation>+</div></div>,,,,188710,0.0,prompt_fixation,122,poldrack-single-stim,
123,300.0,450.0,300.0,500.0,<div class = bigbox><div class = centerbox><div class = starbox><img class = center src='/static/experiments/stop_signal_with_go_no_go/images/stopSignal.png'></img></div></div></div>,go,,2000.0,,90.0,1.0,0.0,41.0,stop_signal_with_go_no_go,,,,,,1.0,go,0.0-0.0-123.0,90.0,"[90, 77]",,363,square,1000.0,solid,<div class = bigbox><div class = centerbox><div class = gng_number><div class = cue-text><img class = center src='/static/experiments/stop_signal_with_go_no_go/images/solid_square.png'></img></div></div></div></div>,,go,,190712,0.0,practice_trial,123,stop-signal,
124,,,,,,,,500.0,,,,,,stop_signal_with_go_no_go,,,,,,,,0.0-0.0-124.0,-1.0,none,,-1,,500.0,,"<div class = fb_box><div class = center-text><font size = 20>Correct!</font></div></div><div class = prompt_box><p class = center-block-text style = ""font-size:16px; line-height:80%%;"">square: Z key</p><p class = center-block-text style = ""font-size:16px; line-height:80%%;"">circle: M key</p><p class = center-block-text style = ""font-size:16px; line-height:80%%;"">Do not respond if a star appears!</p><p class = center-block-text style = ""font-size:16px; line-height:80%%;"">Do not respond if the shape is outlined!</p></div>",,,,191216,0.0,practice-stop-feedback,124,poldrack-single-stim,
125,,,,,,,,500.0,,,,,,stop_signal_with_go_no_go,,,,,,,,0.0-0.0-125.0,-1.0,none,,-1,,500.0,,<div class = centerbox><div class = fixation>+</div></div>,,,,191719,0.0,prompt_fixation,125,poldrack-single-stim,
126,300.0,450.0,300.0,500.0,<div class = bigbox><div class = centerbox><div class = starbox><img class = center src='/static/experiments/stop_signal_with_go_no_go/images/stopSignal.png'></img></div></div></div>,stop,,2000.0,,-1.0,0.0,0.0,42.0,stop_signal_with_go_no_go,,,,,,,go,0.0-0.0-126.0,77.0,"[90, 77]",,449,circle,1000.0,solid,<div class = bigbox><div class = centerbox><div class = gng_number><div class = cue-text><img class = center src='/static/experiments/stop_signal_with_go_no_go/images/solid_circle.png'></img></div></div></div></div>,0.0,stop,,193722,0.0,practice_trial,126,stop-signal,
127,,,,,,,,500.0,,,,,,stop_signal_with_go_no_go,,,,,,,,0.0-0.0-127.0,-1.0,none,,-1,,500.0,,"<div class = fb_box><div class = center-text><font size = 20>There was a star.</font></div></div><div class = prompt_box><p class = center-block-text style = ""font-size:16px; line-height:80%%;"">square: Z key</p><p class = center-block-text style = ""font-size:16px; line-height:80%%;"">circle: M key</p><p class = center-block-text style = ""font-size:16px; line-height:80%%;"">Do not respond if a star appears!</p><p class = center-block-text style = ""font-size:16px; line-height:80%%;"">Do not respond if the shape is outlined!</p></div>",,,,194225,0.0,practice-stop-feedback,127,poldrack-single-stim,
128,,,,,,,,28966.0,,,,,,stop_signal_with_go_no_go,,,,,,,,0.0-1.0,13.0,[13],,28966,,28966.0,,"<div class = bigbox><div class = picture_box><p class = block-text><font color=""white""><br>Please take this time to read your feedback and to take a short break. Press enter to continue.</p><p class = block-text>Done with this practice.</font></p></div></div>",,,,223194,0.0,practice-no-stop-feedback,128,poldrack-single-stim,
129,,,,,,,,1726.0,,,,,,stop_signal_with_go_no_go,,,,,,,,0.0-2.0,13.0,[13],,1726,,1726.0,,"<div class = centerbox><p class = block-text>We will now begin the test portion.</p><p class = block-text>You will see a shape on every trial. Please respond to each shape as quickly and accurately as possible!</p><p class = block-text>If the shape is a square, press the Z key. If the shape is a circle, press the M key.</p><p class = block-text>Do not respond if you see a star! Do not respond if the shape is outlined!</p><p class = block-text>You will no longer receive the rule prompt, so remember the instructions before you continue. Press Enter to begin.</p></div>",,,,224922,0.0,test_intro,129,poldrack-single-stim,
130,,,,,,,,2545.0,,,,,,stop_signal_with_go_no_go,,,,,,,,0.0-3.0-0.0,13.0,[13],,2545,,2545.0,,"<div class = bigbox><div class = picture_box><p class = block-text><font color=""white"">We will now start the test session. Please concentrate on responding quickly and accurately to each stimulus.</font></p></div></div>",,,,227467,0.0,practice-no-stop-feedback,130,poldrack-single-stim,
131,,,,,,,,2709.0,True,77.0,,,,stop_signal_with_go_no_go,,,,,,,,0.0-3.0-1.0-0.0,77.0,[],,2709,,2709.0,,"<p>If (4 + 12) / 4 is greater than 3 press the ""M"" key. Otherwise press the ""Z"" key.</p>",,,,230178,200.0,attention_check,131,attention-check,
132,,,,,,,,500.0,,,,,,stop_signal_with_go_no_go,,,,,,,,0.0-3.0-2.0,-1.0,none,,-1,,500.0,,<div class = centerbox><div class = fixation>+</div></div>,,,,230882,0.0,fixation,132,poldrack-single-stim,
133,250.0,450.0,250.0,500.0,<div class = bigbox><div class = centerbox><div class = starbox><img class = center src='/static/experiments/stop_signal_with_go_no_go/images/stopSignal.png'></img></div></div></div>,go,,2000.0,,90.0,1.0,0.0,1.0,stop_signal_with_go_no_go,,,,,,1.0,go,0.0-3.0-3.0,90.0,"[90, 77]",,566,square,1000.0,solid,<div class = bigbox><div class = centerbox><div class = gng_number><div class = cue-text><img class = center src='/static/experiments/stop_signal_with_go_no_go/images/solid_square.png'></img></div></div></div></div>,,go,,232884,0.0,test_trial,133,stop-signal,
134,,,,,,,,500.0,,,,,,stop_signal_with_go_no_go,,,,,,,,0.0-3.0-4.0,-1.0,none,,-1,,500.0,,<div class = centerbox><div class = fixation>+</div></div>,,,,233387,0.0,fixation,134,poldrack-single-stim,
135,250.0,450.0,250.0,500.0,<div class = bigbox><div class = centerbox><div class = starbox><img class = center src='/static/experiments/stop_signal_with_go_no_go/images/stopSignal.png'></img></div></div></div>,go,,2000.0,,90.0,1.0,0.0,2.0,stop_signal_with_go_no_go,,,,,,1.0,go,0.0-3.0-5.0,90.0,"[90, 77]",,406,square,1000.0,solid,<div class = bigbox><div class = centerbox><div class = gng_number><div class = cue-text><img class = center src='/static/experiments/stop_signal_with_go_no_go/images/solid_square.png'></img></div></div></div></div>,,go,,235390,0.0,test_trial,135,stop-signal,
136,,,,,,,,500.0,,,,,,stop_signal_with_go_no_go,,,,,,,,0.0-3.0-6.0,-1.0,none,,-1,,500.0,,<div class = centerbox><div class = fixation>+</div></div>,,,,235893,0.0,fixation,136,poldrack-single-stim,
137,250.0,450.0,250.0,500.0,<div class = bigbox><div class = centerbox><div class = starbox><img class = center src='/static/experiments/stop_signal_with_go_no_go/images/stopSignal.png'></img></div></div></div>,go,,2000.0,,90.0,1.0,0.0,3.0,stop_signal_with_go_no_go,,,,,,1.0,go,0.0-3.0-7.0,90.0,"[90, 77]",,355,square,1000.0,solid,<div class = bigbox><div class = centerbox><div class = gng_number><div class = cue-text><img class = center src='/static/experiments/stop_signal_with_go_no_go/images/solid_square.png'></img></div></div></div></div>,,go,,237895,0.0,test_trial,137,stop-signal,
138,,,,,,,,500.0,,,,,,stop_signal_with_go_no_go,,,,,,,,0.0-3.0-8.0,-1.0,none,,-1,,500.0,,<div class = centerbox><div class = fixation>+</div></div>,,,,238399,0.0,fixation,138,poldrack-single-stim,
139,250.0,450.0,250.0,500.0,<div class = bigbox><div class = centerbox><div class = starbox><img class = center src='/static/experiments/stop_signal_with_go_no_go/images/stopSignal.png'></img></div></div></div>,go,,2000.0,,90.0,1.0,0.0,4.0,stop_signal_with_go_no_go,,,,,,1.0,go,0.0-3.0-9.0,90.0,"[90, 77]",,297,square,1000.0,solid,<div class = bigbox><div class = centerbox><div class = gng_number><div class = cue-text><img class = center src='/static/experiments/stop_signal_with_go_no_go/images/solid_square.png'></img></div></div></div></div>,,go,,240402,0.0,test_trial,139,stop-signal,
140,,,,,,,,500.0,,,,,,stop_signal_with_go_no_go,,,,,,,,0.0-3.0-10.0,-1.0,none,,-1,,500.0,,<div class = centerbox><div class = fixation>+</div></div>,,,,240905,0.0,fixation,140,poldrack-single-stim,
141,250.0,450.0,250.0,500.0,<div class = bigbox><div class = centerbox><div class = starbox><img class = center src='/static/experiments/stop_signal_with_go_no_go/images/stopSignal.png'></img></div></div></div>,go,,2000.0,,77.0,1.0,0.0,5.0,stop_signal_with_go_no_go,,,,,,1.0,go,0.0-3.0-11.0,77.0,"[90, 77]",,383,circle,1000.0,solid,<div class = bigbox><div class = centerbox><div class = gng_number><div class = cue-text><img class = center src='/static/experiments/stop_signal_with_go_no_go/images/solid_circle.png'></img></div></div></div></div>,,go,,242908,0.0,test_trial,141,stop-signal,
142,,,,,,,,500.0,,,,,,stop_signal_with_go_no_go,,,,,,,,0.0-3.0-12.0,-1.0,none,,-1,,500.0,,<div class = centerbox><div class = fixation>+</div></div>,,,,243410,0.0,fixation,142,poldrack-single-stim,
143,250.0,450.0,250.0,500.0,<div class = bigbox><div class = centerbox><div class = starbox><img class = center src='/static/experiments/stop_signal_with_go_no_go/images/stopSignal.png'></img></div></div></div>,go,,2000.0,,77.0,1.0,0.0,6.0,stop_signal_with_go_no_go,,,,,,1.0,go,0.0-3.0-13.0,77.0,"[90, 77]",,294,circle,1000.0,solid,<div class = bigbox><div class = centerbox><div class = gng_number><div class = cue-text><img class = center src='/static/experiments/stop_signal_with_go_no_go/images/solid_circle.png'></img></div></div></div></div>,,go,,245412,0.0,test_trial,143,stop-signal,
144,,,,,,,,500.0,,,,,,stop_signal_with_go_no_go,,,,,,,,0.0-3.0-14.0,-1.0,none,,-1,,500.0,,<div class = centerbox><div class = fixation>+</div></div>,,,,245915,0.0,fixation,144,poldrack-single-stim,
145,250.0,450.0,250.0,500.0,<div class = bigbox><div class = centerbox><div class = starbox><img class = center src='/static/experiments/stop_signal_with_go_no_go/images/stopSignal.png'></img></div></div></div>,go,,2000.0,,90.0,1.0,0.0,7.0,stop_signal_with_go_no_go,,,,,,1.0,go,0.0-3.0-15.0,90.0,"[90, 77]",,430,square,1000.0,solid,<div class = bigbox><div class = centerbox><div class = gng_number><div class = cue-text><img class = center src='/static/experiments/stop_signal_with_go_no_go/images/solid_square.png'></img></div></div></div></div>,,go,,247918,0.0,test_trial,145,stop-signal,
146,,,,,,,,500.0,,,,,,stop_signal_with_go_no_go,,,,,,,,0.0-3.0-16.0,-1.0,none,,-1,,500.0,,<div class = centerbox><div class = fixation>+</div></div>,,,,248420,0.0,fixation,146,poldrack-single-stim,
147,250.0,450.0,250.0,500.0,<div class = bigbox><div class = centerbox><div class = starbox><img class = center src='/static/experiments/stop_signal_with_go_no_go/images/stopSignal.png'></img></div></div></div>,go,,2000.0,,77.0,1.0,0.0,8.0,stop_signal_with_go_no_go,,,,,,1.0,go,0.0-3.0-17.0,77.0,"[90, 77]",,484,circle,1000.0,solid,<div class = bigbox><div class = centerbox><div class = gng_number><div class = cue-text><img class = center src='/static/experiments/stop_signal_with_go_no_go/images/solid_circle.png'></img></div></div></div></div>,,go,,250423,0.0,test_trial,147,stop-signal,
148,,,,,,,,500.0,,,,,,stop_signal_with_go_no_go,,,,,,,,0.0-3.0-18.0,-1.0,none,,-1,,500.0,,<div class = centerbox><div class = fixation>+</div></div>,,,,250926,0.0,fixation,148,poldrack-single-stim,
149,250.0,450.0,250.0,500.0,<div class = bigbox><div class = centerbox><div class = starbox><img class = center src='/static/experiments/stop_signal_with_go_no_go/images/stopSignal.png'></img></div></div></div>,go,,2000.0,,90.0,1.0,0.0,9.0,stop_signal_with_go_no_go,,,,,,1.0,go,0.0-3.0-19.0,90.0,"[90, 77]",,586,square,1000.0,solid,<div class = bigbox><div class = centerbox><div class = gng_number><div class = cue-text><img class = center src='/static/experiments/stop_signal_with_go_no_go/images/solid_square.png'></img></div></div></div></div>,,go,,252929,0.0,test_trial,149,stop-signal,
150,,,,,,,,500.0,,,,,,stop_signal_with_go_no_go,,,,,,,,0.0-3.0-20.0,-1.0,none,,-1,,500.0,,<div class = centerbox><div class = fixation>+</div></div>,,,,253431,0.0,fixation,150,poldrack-single-stim,
151,250.0,450.0,250.0,500.0,<div class = bigbox><div class = centerbox><div class = starbox><img class = center src='/static/experiments/stop_signal_with_go_no_go/images/stopSignal.png'></img></div></div></div>,stop,,2000.0,,-1.0,0.0,0.0,10.0,stop_signal_with_go_no_go,,,,,,,go,0.0-3.0-21.0,90.0,"[90, 77]",,328,square,1000.0,solid,<div class = bigbox><div class = centerbox><div class = gng_number><div class = cue-text><img class = center src='/static/experiments/stop_signal_with_go_no_go/images/solid_square.png'></img></div></div></div></div>,0.0,stop,,255434,0.0,test_trial,151,stop-signal,
152,,,,,,,,500.0,,,,,,stop_signal_with_go_no_go,,,,,,,,0.0-3.0-22.0,-1.0,none,,-1,,500.0,,<div class = centerbox><div class = fixation>+</div></div>,,,,255937,0.0,fixation,152,poldrack-single-stim,
153,200.0,450.0,200.0,500.0,<div class = bigbox><div class = centerbox><div class = starbox><img class = center src='/static/experiments/stop_signal_with_go_no_go/images/stopSignal.png'></img></div></div></div>,go,,2000.0,,77.0,1.0,0.0,11.0,stop_signal_with_go_no_go,,,,,,1.0,go,0.0-3.0-23.0,77.0,"[90, 77]",,375,circle,1000.0,solid,<div class = bigbox><div class = centerbox><div class = gng_number><div class = cue-text><img class = center src='/static/experiments/stop_signal_with_go_no_go/images/solid_circle.png'></img></div></div></div></div>,,go,,257939,0.0,test_trial,153,stop-signal,
154,,,,,,,,500.0,,,,,,stop_signal_with_go_no_go,,,,,,,,0.0-3.0-24.0,-1.0,none,,-1,,500.0,,<div class = centerbox><div class = fixation>+</div></div>,,,,258442,0.0,fixation,154,poldrack-single-stim,
155,200.0,450.0,200.0,500.0,<div class = bigbox><div class = centerbox><div class = starbox><img class = center src='/static/experiments/stop_signal_with_go_no_go/images/stopSignal.png'></img></div></div></div>,go,,2000.0,,90.0,1.0,0.0,12.0,stop_signal_with_go_no_go,,,,,,1.0,go,0.0-3.0-25.0,90.0,"[90, 77]",,343,square,1000.0,solid,<div class = bigbox><div class = centerbox><div class = gng_number><div class = cue-text><img class = center src='/static/experiments/stop_signal_with_go_no_go/images/solid_square.png'></img></div></div></div></div>,,go,,260445,0.0,test_trial,155,stop-signal,
156,,,,,,,,500.0,,,,,,stop_signal_with_go_no_go,,,,,,,,0.0-3.0-26.0,-1.0,none,,-1,,500.0,,<div class = centerbox><div class = fixation>+</div></div>,,,,260948,0.0,fixation,156,poldrack-single-stim,
157,200.0,450.0,200.0,500.0,<div class = bigbox><div class = centerbox><div class = starbox><img class = center src='/static/experiments/stop_signal_with_go_no_go/images/stopSignal.png'></img></div></div></div>,go,,2000.0,,77.0,1.0,0.0,13.0,stop_signal_with_go_no_go,,,,,,1.0,go,0.0-3.0-27.0,77.0,"[90, 77]",,308,circle,1000.0,solid,<div class = bigbox><div class = centerbox><div class = gng_number><div class = cue-text><img class = center src='/static/experiments/stop_signal_with_go_no_go/images/solid_circle.png'></img></div></div></div></div>,,go,,262951,0.0,test_trial,157,stop-signal,
158,,,,,,,,500.0,,,,,,stop_signal_with_go_no_go,,,,,,,,0.0-3.0-28.0,-1.0,none,,-1,,500.0,,<div class = centerbox><div class = fixation>+</div></div>,,,,263453,0.0,fixation,158,poldrack-single-stim,
159,200.0,450.0,200.0,500.0,<div class = bigbox><div class = centerbox><div class = starbox><img class = center src='/static/experiments/stop_signal_with_go_no_go/images/stopSignal.png'></img></div></div></div>,stop,,2000.0,,-1.0,0.0,0.0,14.0,stop_signal_with_go_no_go,,,,,,,go,0.0-3.0-29.0,77.0,"[90, 77]",,387,circle,1000.0,solid,<div class = bigbox><div class = centerbox><div class = gng_number><div class = cue-text><img class = center src='/static/experiments/stop_signal_with_go_no_go/images/solid_circle.png'></img></div></div></div></div>,0.0,stop,,265455,0.0,test_trial,159,stop-signal,
160,,,,,,,,500.0,,,,,,stop_signal_with_go_no_go,,,,,,,,0.0-3.0-30.0,-1.0,none,,-1,,500.0,,<div class = centerbox><div class = fixation>+</div></div>,,,,265959,0.0,fixation,160,poldrack-single-stim,
161,150.0,450.0,150.0,500.0,<div class = bigbox><div class = centerbox><div class = starbox><img class = center src='/static/experiments/stop_signal_with_go_no_go/images/stopSignal.png'></img></div></div></div>,go,,2000.0,,90.0,1.0,0.0,15.0,stop_signal_with_go_no_go,,,,,,1.0,go,0.0-3.0-31.0,90.0,"[90, 77]",,353,square,1000.0,solid,<div class = bigbox><div class = centerbox><div class = gng_number><div class = cue-text><img class = center src='/static/experiments/stop_signal_with_go_no_go/images/solid_square.png'></img></div></div></div></div>,,go,,267961,0.0,test_trial,161,stop-signal,
162,,,,,,,,500.0,,,,,,stop_signal_with_go_no_go,,,,,,,,0.0-3.0-32.0,-1.0,none,,-1,,500.0,,<div class = centerbox><div class = fixation>+</div></div>,,,,268464,0.0,fixation,162,poldrack-single-stim,
163,150.0,450.0,150.0,500.0,<div class = bigbox><div class = centerbox><div class = starbox><img class = center src='/static/experiments/stop_signal_with_go_no_go/images/stopSignal.png'></img></div></div></div>,go,,2000.0,,77.0,1.0,0.0,16.0,stop_signal_with_go_no_go,,,,,,1.0,go,0.0-3.0-33.0,77.0,"[90, 77]",,336,circle,1000.0,solid,<div class = bigbox><div class = centerbox><div class = gng_number><div class = cue-text><img class = center src='/static/experiments/stop_signal_with_go_no_go/images/solid_circle.png'></img></div></div></div></div>,,go,,270466,0.0,test_trial,163,stop-signal,
164,,,,,,,,500.0,,,,,,stop_signal_with_go_no_go,,,,,,,,0.0-3.0-34.0,-1.0,none,,-1,,500.0,,<div class = centerbox><div class = fixation>+</div></div>,,,,270969,0.0,fixation,164,poldrack-single-stim,
165,150.0,450.0,150.0,500.0,<div class = bigbox><div class = centerbox><div class = starbox><img class = center src='/static/experiments/stop_signal_with_go_no_go/images/stopSignal.png'></img></div></div></div>,go,,2000.0,,90.0,1.0,0.0,17.0,stop_signal_with_go_no_go,,,,,,1.0,go,0.0-3.0-35.0,90.0,"[90, 77]",,399,square,1000.0,solid,<div class = bigbox><div class = centerbox><div class = gng_number><div class = cue-text><img class = center src='/static/experiments/stop_signal_with_go_no_go/images/solid_square.png'></img></div></div></div></div>,,go,,272971,0.0,test_trial,165,stop-signal,
166,,,,,,,,500.0,,,,,,stop_signal_with_go_no_go,,,,,,,,0.0-3.0-36.0,-1.0,none,,-1,,500.0,,<div class = centerbox><div class = fixation>+</div></div>,,,,273473,0.0,fixation,166,poldrack-single-stim,
167,150.0,450.0,150.0,500.0,<div class = bigbox><div class = centerbox><div class = starbox><img class = center src='/static/experiments/stop_signal_with_go_no_go/images/stopSignal.png'></img></div></div></div>,go,,2000.0,,77.0,1.0,0.0,18.0,stop_signal_with_go_no_go,,,,,,1.0,go,0.0-3.0-37.0,77.0,"[90, 77]",,391,circle,1000.0,solid,<div class = bigbox><div class = centerbox><div class = gng_number><div class = cue-text><img class = center src='/static/experiments/stop_signal_with_go_no_go/images/solid_circle.png'></img></div></div></div></div>,,go,,275476,0.0,test_trial,167,stop-signal,
168,,,,,,,,500.0,,,,,,stop_signal_with_go_no_go,,,,,,,,0.0-3.0-38.0,-1.0,none,,-1,,500.0,,<div class = centerbox><div class = fixation>+</div></div>,,,,275978,0.0,fixation,168,poldrack-single-stim,
169,150.0,450.0,150.0,500.0,<div class = bigbox><div class = centerbox><div class = starbox><img class = center src='/static/experiments/stop_signal_with_go_no_go/images/stopSignal.png'></img></div></div></div>,go,,2000.0,,90.0,1.0,0.0,19.0,stop_signal_with_go_no_go,,,,,,1.0,go,0.0-3.0-39.0,90.0,"[90, 77]",,341,square,1000.0,solid,<div class = bigbox><div class = centerbox><div class = gng_number><div class = cue-text><img class = center src='/static/experiments/stop_signal_with_go_no_go/images/solid_square.png'></img></div></div></div></div>,,go,,277982,0.0,test_trial,169,stop-signal,
170,,,,,,,,500.0,,,,,,stop_signal_with_go_no_go,,,,,,,,0.0-3.0-40.0,-1.0,none,,-1,,500.0,,<div class = centerbox><div class = fixation>+</div></div>,,,,278485,0.0,fixation,170,poldrack-single-stim,
171,150.0,450.0,450.0,500.0,<div class = bigbox><div class = centerbox><div class = starbox><img class = center src='/static/experiments/stop_signal_with_go_no_go/images/stopSignal.png'></img></div></div></div>,go,,2000.0,,-1.0,1.0,0.0,20.0,stop_signal_with_go_no_go,,,,,,1.0,nogo,0.0-3.0-41.0,-1.0,"[90, 77]",,-1,square,1000.0,outlined,<div class = bigbox><div class = centerbox><div class = gng_number><div class = cue-text><img class = center src='/static/experiments/stop_signal_with_go_no_go/images/outlined_square.png'></img></div></div></div></div>,,go,,280487,0.0,test_trial,171,stop-signal,
172,,,,,,,,500.0,,,,,,stop_signal_with_go_no_go,,,,,,,,0.0-3.0-42.0,-1.0,none,,-1,,500.0,,<div class = centerbox><div class = fixation>+</div></div>,,,,280990,0.0,fixation,172,poldrack-single-stim,
173,150.0,450.0,150.0,500.0,<div class = bigbox><div class = centerbox><div class = starbox><img class = center src='/static/experiments/stop_signal_with_go_no_go/images/stopSignal.png'></img></div></div></div>,go,,2000.0,,77.0,1.0,0.0,21.0,stop_signal_with_go_no_go,,,,,,1.0,go,0.0-3.0-43.0,77.0,"[90, 77]",,402,circle,1000.0,solid,<div class = bigbox><div class = centerbox><div class = gng_number><div class = cue-text><img class = center src='/static/experiments/stop_signal_with_go_no_go/images/solid_circle.png'></img></div></div></div></div>,,go,,282993,0.0,test_trial,173,stop-signal,
174,,,,,,,,500.0,,,,,,stop_signal_with_go_no_go,,,,,,,,0.0-3.0-44.0,-1.0,none,,-1,,500.0,,<div class = centerbox><div class = fixation>+</div></div>,,,,283496,0.0,fixation,174,poldrack-single-stim,
175,150.0,450.0,150.0,500.0,<div class = bigbox><div class = centerbox><div class = starbox><img class = center src='/static/experiments/stop_signal_with_go_no_go/images/stopSignal.png'></img></div></div></div>,go,,2000.0,,77.0,1.0,0.0,22.0,stop_signal_with_go_no_go,,,,,,1.0,go,0.0-3.0-45.0,77.0,"[90, 77]",,385,circle,1000.0,solid,<div class = bigbox><div class = centerbox><div class = gng_number><div class = cue-text><img class = center src='/static/experiments/stop_signal_with_go_no_go/images/solid_circle.png'></img></div></div></div></div>,,go,,285498,0.0,test_trial,175,stop-signal,
176,,,,,,,,500.0,,,,,,stop_signal_with_go_no_go,,,,,,,,0.0-3.0-46.0,-1.0,none,,-1,,500.0,,<div class = centerbox><div class = fixation>+</div></div>,,,,286001,0.0,fixation,176,poldrack-single-stim,
177,150.0,450.0,450.0,500.0,<div class = bigbox><div class = centerbox><div class = starbox><img class = center src='/static/experiments/stop_signal_with_go_no_go/images/stopSignal.png'></img></div></div></div>,go,,2000.0,,-1.0,1.0,0.0,23.0,stop_signal_with_go_no_go,,,,,,1.0,nogo,0.0-3.0-47.0,-1.0,"[90, 77]",,-1,circle,1000.0,outlined,<div class = bigbox><div class = centerbox><div class = gng_number><div class = cue-text><img class = center src='/static/experiments/stop_signal_with_go_no_go/images/outlined_circle.png'></img></div></div></div></div>,,go,,288003,0.0,test_trial,177,stop-signal,
178,,,,,,,,500.0,,,,,,stop_signal_with_go_no_go,,,,,,,,0.0-3.0-48.0,-1.0,none,,-1,,500.0,,<div class = centerbox><div class = fixation>+</div></div>,,,,288506,0.0,fixation,178,poldrack-single-stim,
179,150.0,450.0,450.0,500.0,<div class = bigbox><div class = centerbox><div class = starbox><img class = center src='/static/experiments/stop_signal_with_go_no_go/images/stopSignal.png'></img></div></div></div>,go,,2000.0,,-1.0,1.0,0.0,24.0,stop_signal_with_go_no_go,,,,,,1.0,nogo,0.0-3.0-49.0,-1.0,"[90, 77]",,-1,circle,1000.0,outlined,<div class = bigbox><div class = centerbox><div class = gng_number><div class = cue-text><img class = center src='/static/experiments/stop_signal_with_go_no_go/images/outlined_circle.png'></img></div></div></div></div>,,go,,290509,0.0,test_trial,179,stop-signal,
180,,,,,,,,500.0,,,,,,stop_signal_with_go_no_go,,,,,,,,0.0-3.0-50.0,-1.0,none,,-1,,500.0,,<div class = centerbox><div class = fixation>+</div></div>,,,,291012,0.0,fixation,180,poldrack-single-stim,
181,150.0,450.0,150.0,500.0,<div class = bigbox><div class = centerbox><div class = starbox><img class = center src='/static/experiments/stop_signal_with_go_no_go/images/stopSignal.png'></img></div></div></div>,go,,2000.0,,77.0,1.0,0.0,25.0,stop_signal_with_go_no_go,,,,,,1.0,go,0.0-3.0-51.0,77.0,"[90, 77]",,405,circle,1000.0,solid,<div class = bigbox><div class = centerbox><div class = gng_number><div class = cue-text><img class = center src='/static/experiments/stop_signal_with_go_no_go/images/solid_circle.png'></img></div></div></div></div>,,go,,293014,0.0,test_trial,181,stop-signal,
182,,,,,,,,500.0,,,,,,stop_signal_with_go_no_go,,,,,,,,0.0-3.0-52.0,-1.0,none,,-1,,500.0,,<div class = centerbox><div class = fixation>+</div></div>,,,,293517,0.0,fixation,182,poldrack-single-stim,
183,150.0,450.0,150.0,500.0,<div class = bigbox><div class = centerbox><div class = starbox><img class = center src='/static/experiments/stop_signal_with_go_no_go/images/stopSignal.png'></img></div></div></div>,stop,,2000.0,,-1.0,0.0,0.0,26.0,stop_signal_with_go_no_go,,,,,,,go,0.0-3.0-53.0,77.0,"[90, 77]",,355,circle,1000.0,solid,<div class = bigbox><div class = centerbox><div class = gng_number><div class = cue-text><img class = center src='/static/experiments/stop_signal_with_go_no_go/images/solid_circle.png'></img></div></div></div></div>,0.0,stop,,295520,0.0,test_trial,183,stop-signal,
184,,,,,,,,500.0,,,,,,stop_signal_with_go_no_go,,,,,,,,0.0-3.0-54.0,-1.0,none,,-1,,500.0,,<div class = centerbox><div class = fixation>+</div></div>,,,,296022,0.0,fixation,184,poldrack-single-stim,
185,100.0,450.0,100.0,500.0,<div class = bigbox><div class = centerbox><div class = starbox><img class = center src='/static/experiments/stop_signal_with_go_no_go/images/stopSignal.png'></img></div></div></div>,stop,,2000.0,,-1.0,1.0,0.0,27.0,stop_signal_with_go_no_go,,,,,,,go,0.0-3.0-55.0,-1.0,"[90, 77]",,-1,circle,1000.0,solid,<div class = bigbox><div class = centerbox><div class = gng_number><div class = cue-text><img class = center src='/static/experiments/stop_signal_with_go_no_go/images/solid_circle.png'></img></div></div></div></div>,1.0,stop,,298024,0.0,test_trial,185,stop-signal,
186,,,,,,,,500.0,,,,,,stop_signal_with_go_no_go,,,,,,,,0.0-3.0-56.0,-1.0,none,,-1,,500.0,,<div class = centerbox><div class = fixation>+</div></div>,,,,298527,0.0,fixation,186,poldrack-single-stim,
187,150.0,450.0,150.0,500.0,<div class = bigbox><div class = centerbox><div class = starbox><img class = center src='/static/experiments/stop_signal_with_go_no_go/images/stopSignal.png'></img></div></div></div>,go,,2000.0,,77.0,1.0,0.0,28.0,stop_signal_with_go_no_go,,,,,,1.0,go,0.0-3.0-57.0,77.0,"[90, 77]",,441,circle,1000.0,solid,<div class = bigbox><div class = centerbox><div class = gng_number><div class = cue-text><img class = center src='/static/experiments/stop_signal_with_go_no_go/images/solid_circle.png'></img></div></div></div></div>,,go,,300529,0.0,test_trial,187,stop-signal,
188,,,,,,,,500.0,,,,,,stop_signal_with_go_no_go,,,,,,,,0.0-3.0-58.0,-1.0,none,,-1,,500.0,,<div class = centerbox><div class = fixation>+</div></div>,,,,301032,0.0,fixation,188,poldrack-single-stim,
189,150.0,450.0,150.0,500.0,<div class = bigbox><div class = centerbox><div class = starbox><img class = center src='/static/experiments/stop_signal_with_go_no_go/images/stopSignal.png'></img></div></div></div>,stop,,2000.0,,-1.0,0.0,0.0,29.0,stop_signal_with_go_no_go,,,,,,,go,0.0-3.0-59.0,90.0,"[90, 77]",,360,square,1000.0,solid,<div class = bigbox><div class = centerbox><div class = gng_number><div class = cue-text><img class = center src='/static/experiments/stop_signal_with_go_no_go/images/solid_square.png'></img></div></div></div></div>,0.0,stop,,303034,0.0,test_trial,189,stop-signal,
190,,,,,,,,500.0,,,,,,stop_signal_with_go_no_go,,,,,,,,0.0-3.0-60.0,-1.0,none,,-1,,500.0,,<div class = centerbox><div class = fixation>+</div></div>,,,,303537,0.0,fixation,190,poldrack-single-stim,
191,100.0,450.0,100.0,500.0,<div class = bigbox><div class = centerbox><div class = starbox><img class = center src='/static/experiments/stop_signal_with_go_no_go/images/stopSignal.png'></img></div></div></div>,go,,2000.0,,90.0,1.0,0.0,30.0,stop_signal_with_go_no_go,,,,,,1.0,go,0.0-3.0-61.0,90.0,"[90, 77]",,352,square,1000.0,solid,<div class = bigbox><div class = centerbox><div class = gng_number><div class = cue-text><img class = center src='/static/experiments/stop_signal_with_go_no_go/images/solid_square.png'></img></div></div></div></div>,,go,,305540,0.0,test_trial,191,stop-signal,
192,,,,,,,,500.0,,,,,,stop_signal_with_go_no_go,,,,,,,,0.0-3.0-62.0,-1.0,none,,-1,,500.0,,<div class = centerbox><div class = fixation>+</div></div>,,,,306042,0.0,fixation,192,poldrack-single-stim,
193,100.0,450.0,100.0,500.0,<div class = bigbox><div class = centerbox><div class = starbox><img class = center src='/static/experiments/stop_signal_with_go_no_go/images/stopSignal.png'></img></div></div></div>,stop,,2000.0,,-1.0,1.0,0.0,31.0,stop_signal_with_go_no_go,,,,,,,go,0.0-3.0-63.0,-1.0,"[90, 77]",,-1,circle,1000.0,solid,<div class = bigbox><div class = centerbox><div class = gng_number><div class = cue-text><img class = center src='/static/experiments/stop_signal_with_go_no_go/images/solid_circle.png'></img></div></div></div></div>,1.0,stop,,308045,0.0,test_trial,193,stop-signal,
194,,,,,,,,500.0,,,,,,stop_signal_with_go_no_go,,,,,,,,0.0-3.0-64.0,-1.0,none,,-1,,500.0,,<div class = centerbox><div class = fixation>+</div></div>,,,,308548,0.0,fixation,194,poldrack-single-stim,
195,150.0,450.0,150.0,500.0,<div class = bigbox><div class = centerbox><div class = starbox><img class = center src='/static/experiments/stop_signal_with_go_no_go/images/stopSignal.png'></img></div></div></div>,stop,,2000.0,,-1.0,0.0,0.0,32.0,stop_signal_with_go_no_go,,,,,,,go,0.0-3.0-65.0,77.0,"[90, 77]",,404,circle,1000.0,solid,<div class = bigbox><div class = centerbox><div class = gng_number><div class = cue-text><img class = center src='/static/experiments/stop_signal_with_go_no_go/images/solid_circle.png'></img></div></div></div></div>,0.0,stop,,310550,0.0,test_trial,195,stop-signal,
196,,,,,,,,500.0,,,,,,stop_signal_with_go_no_go,,,,,,,,0.0-3.0-66.0,-1.0,none,,-1,,500.0,,<div class = centerbox><div class = fixation>+</div></div>,,,,311053,0.0,fixation,196,poldrack-single-stim,
197,100.0,450.0,450.0,500.0,<div class = bigbox><div class = centerbox><div class = starbox><img class = center src='/static/experiments/stop_signal_with_go_no_go/images/stopSignal.png'></img></div></div></div>,go,,2000.0,,-1.0,1.0,0.0,33.0,stop_signal_with_go_no_go,,,,,,1.0,nogo,0.0-3.0-67.0,-1.0,"[90, 77]",,-1,square,1000.0,outlined,<div class = bigbox><div class = centerbox><div class = gng_number><div class = cue-text><img class = center src='/static/experiments/stop_signal_with_go_no_go/images/outlined_square.png'></img></div></div></div></div>,,go,,313055,0.0,test_trial,197,stop-signal,
198,,,,,,,,500.0,,,,,,stop_signal_with_go_no_go,,,,,,,,0.0-3.0-68.0,-1.0,none,,-1,,500.0,,<div class = centerbox><div class = fixation>+</div></div>,,,,313558,0.0,fixation,198,poldrack-single-stim,
199,100.0,450.0,100.0,500.0,<div class = bigbox><div class = centerbox><div class = starbox><img class = center src='/static/experiments/stop_signal_with_go_no_go/images/stopSignal.png'></img></div></div></div>,go,,2000.0,,77.0,1.0,0.0,34.0,stop_signal_with_go_no_go,,,,,,1.0,go,0.0-3.0-69.0,77.0,"[90, 77]",,426,circle,1000.0,solid,<div class = bigbox><div class = centerbox><div class = gng_number><div class = cue-text><img class = center src='/static/experiments/stop_signal_with_go_no_go/images/solid_circle.png'></img></div></div></div></div>,,go,,315560,0.0,test_trial,199,stop-signal,
200,,,,,,,,500.0,,,,,,stop_signal_with_go_no_go,,,,,,,,0.0-3.0-70.0,-1.0,none,,-1,,500.0,,<div class = centerbox><div class = fixation>+</div></div>,,,,316063,0.0,fixation,200,poldrack-single-stim,
201,100.0,450.0,100.0,500.0,<div class = bigbox><div class = centerbox><div class = starbox><img class = center src='/static/experiments/stop_signal_with_go_no_go/images/stopSignal.png'></img></div></div></div>,stop,,2000.0,,-1.0,1.0,0.0,35.0,stop_signal_with_go_no_go,,,,,,,go,0.0-3.0-71.0,-1.0,"[90, 77]",,-1,square,1000.0,solid,<div class = bigbox><div class = centerbox><div class = gng_number><div class = cue-text><img class = center src='/static/experiments/stop_signal_with_go_no_go/images/solid_square.png'></img></div></div></div></div>,1.0,stop,,318065,0.0,test_trial,201,stop-signal,
202,,,,,,,,500.0,,,,,,stop_signal_with_go_no_go,,,,,,,,0.0-3.0-72.0,-1.0,none,,-1,,500.0,,<div class = centerbox><div class = fixation>+</div></div>,,,,318568,0.0,fixation,202,poldrack-single-stim,
203,150.0,450.0,450.0,500.0,<div class = bigbox><div class = centerbox><div class = starbox><img class = center src='/static/experiments/stop_signal_with_go_no_go/images/stopSignal.png'></img></div></div></div>,stop,,2000.0,,-1.0,1.0,0.0,36.0,stop_signal_with_go_no_go,,,,,,,nogo,0.0-3.0-73.0,-1.0,"[90, 77]",,-1,square,1000.0,outlined,<div class = bigbox><div class = centerbox><div class = gng_number><div class = cue-text><img class = center src='/static/experiments/stop_signal_with_go_no_go/images/outlined_square.png'></img></div></div></div></div>,1.0,stop,,320571,0.0,test_trial,203,stop-signal,
204,,,,,,,,500.0,,,,,,stop_signal_with_go_no_go,,,,,,,,0.0-3.0-74.0,-1.0,none,,-1,,500.0,,<div class = centerbox><div class = fixation>+</div></div>,,,,321075,0.0,fixation,204,poldrack-single-stim,
205,150.0,500.0,150.0,500.0,<div class = bigbox><div class = centerbox><div class = starbox><img class = center src='/static/experiments/stop_signal_with_go_no_go/images/stopSignal.png'></img></div></div></div>,stop,,2000.0,,-1.0,1.0,0.0,37.0,stop_signal_with_go_no_go,,,,,,,go,0.0-3.0-75.0,-1.0,"[90, 77]",,-1,square,1000.0,solid,<div class = bigbox><div class = centerbox><div class = gng_number><div class = cue-text><img class = center src='/static/experiments/stop_signal_with_go_no_go/images/solid_square.png'></img></div></div></div></div>,1.0,stop,,323077,0.0,test_trial,205,stop-signal,
206,,,,,,,,500.0,,,,,,stop_signal_with_go_no_go,,,,,,,,0.0-3.0-76.0,-1.0,none,,-1,,500.0,,<div class = centerbox><div class = fixation>+</div></div>,,,,323580,0.0,fixation,206,poldrack-single-stim,
207,200.0,500.0,200.0,500.0,<div class = bigbox><div class = centerbox><div class = starbox><img class = center src='/static/experiments/stop_signal_with_go_no_go/images/stopSignal.png'></img></div></div></div>,go,,2000.0,,90.0,1.0,0.0,38.0,stop_signal_with_go_no_go,,,,,,1.0,go,0.0-3.0-77.0,90.0,"[90, 77]",,436,square,1000.0,solid,<div class = bigbox><div class = centerbox><div class = gng_number><div class = cue-text><img class = center src='/static/experiments/stop_signal_with_go_no_go/images/solid_square.png'></img></div></div></div></div>,,go,,325583,0.0,test_trial,207,stop-signal,
208,,,,,,,,500.0,,,,,,stop_signal_with_go_no_go,,,,,,,,0.0-3.0-78.0,-1.0,none,,-1,,500.0,,<div class = centerbox><div class = fixation>+</div></div>,,,,326085,0.0,fixation,208,poldrack-single-stim,
209,200.0,500.0,500.0,500.0,<div class = bigbox><div class = centerbox><div class = starbox><img class = center src='/static/experiments/stop_signal_with_go_no_go/images/stopSignal.png'></img></div></div></div>,stop,,2000.0,,-1.0,1.0,0.0,39.0,stop_signal_with_go_no_go,,,,,,,nogo,0.0-3.0-79.0,-1.0,"[90, 77]",,-1,square,1000.0,outlined,<div class = bigbox><div class = centerbox><div class = gng_number><div class = cue-text><img class = center src='/static/experiments/stop_signal_with_go_no_go/images/outlined_square.png'></img></div></div></div></div>,1.0,stop,,328088,0.0,test_trial,209,stop-signal,
210,,,,,,,,500.0,,,,,,stop_signal_with_go_no_go,,,,,,,,0.0-3.0-80.0,-1.0,none,,-1,,500.0,,<div class = centerbox><div class = fixation>+</div></div>,,,,328591,0.0,fixation,210,poldrack-single-stim,
211,200.0,550.0,200.0,500.0,<div class = bigbox><div class = centerbox><div class = starbox><img class = center src='/static/experiments/stop_signal_with_go_no_go/images/stopSignal.png'></img></div></div></div>,go,,2000.0,,77.0,1.0,0.0,40.0,stop_signal_with_go_no_go,,,,,,1.0,go,0.0-3.0-81.0,77.0,"[90, 77]",,345,circle,1000.0,solid,<div class = bigbox><div class = centerbox><div class = gng_number><div class = cue-text><img class = center src='/static/experiments/stop_signal_with_go_no_go/images/solid_circle.png'></img></div></div></div></div>,,go,,330594,0.0,test_trial,211,stop-signal,
212,,,,,,,,500.0,,,,,,stop_signal_with_go_no_go,,,,,,,,0.0-3.0-82.0,-1.0,none,,-1,,500.0,,<div class = centerbox><div class = fixation>+</div></div>,,,,331096,0.0,fixation,212,poldrack-single-stim,
213,200.0,550.0,200.0,500.0,<div class = bigbox><div class = centerbox><div class = starbox><img class = center src='/static/experiments/stop_signal_with_go_no_go/images/stopSignal.png'></img></div></div></div>,stop,,2000.0,,-1.0,0.0,0.0,41.0,stop_signal_with_go_no_go,,,,,,,go,0.0-3.0-83.0,77.0,"[90, 77]",,440,circle,1000.0,solid,<div class = bigbox><div class = centerbox><div class = gng_number><div class = cue-text><img class = center src='/static/experiments/stop_signal_with_go_no_go/images/solid_circle.png'></img></div></div></div></div>,0.0,stop,,333099,0.0,test_trial,213,stop-signal,
214,,,,,,,,500.0,,,,,,stop_signal_with_go_no_go,,,,,,,,0.0-3.0-84.0,-1.0,none,,-1,,500.0,,<div class = centerbox><div class = fixation>+</div></div>,,,,333602,0.0,fixation,214,poldrack-single-stim,
215,150.0,550.0,150.0,500.0,<div class = bigbox><div class = centerbox><div class = starbox><img class = center src='/static/experiments/stop_signal_with_go_no_go/images/stopSignal.png'></img></div></div></div>,go,,2000.0,,90.0,1.0,0.0,42.0,stop_signal_with_go_no_go,,,,,,1.0,go,0.0-3.0-85.0,90.0,"[90, 77]",,366,square,1000.0,solid,<div class = bigbox><div class = centerbox><div class = gng_number><div class = cue-text><img class = center src='/static/experiments/stop_signal_with_go_no_go/images/solid_square.png'></img></div></div></div></div>,,go,,335605,0.0,test_trial,215,stop-signal,
216,,,,,,,,500.0,,,,,,stop_signal_with_go_no_go,,,,,,,,0.0-3.0-86.0,-1.0,none,,-1,,500.0,,<div class = centerbox><div class = fixation>+</div></div>,,,,336107,0.0,fixation,216,poldrack-single-stim,
217,150.0,550.0,150.0,500.0,<div class = bigbox><div class = centerbox><div class = starbox><img class = center src='/static/experiments/stop_signal_with_go_no_go/images/stopSignal.png'></img></div></div></div>,stop,,2000.0,,-1.0,1.0,0.0,43.0,stop_signal_with_go_no_go,,,,,,,go,0.0-3.0-87.0,-1.0,"[90, 77]",,-1,square,1000.0,solid,<div class = bigbox><div class = centerbox><div class = gng_number><div class = cue-text><img class = center src='/static/experiments/stop_signal_with_go_no_go/images/solid_square.png'></img></div></div></div></div>,1.0,stop,,338109,0.0,test_trial,217,stop-signal,
218,,,,,,,,500.0,,,,,,stop_signal_with_go_no_go,,,,,,,,0.0-3.0-88.0,-1.0,none,,-1,,500.0,,<div class = centerbox><div class = fixation>+</div></div>,,,,338612,0.0,fixation,218,poldrack-single-stim,
