,CTI,SSD_stay,SSD_switch,SS_delay,SS_duration,SS_stimulus,SS_trial_type,att_check_percent,block_duration,correct,correct_response,correct_trial,cue,cue_condition,current_block,current_trial,exp_id,exp_stage,final_accuracy,final_avg_rt,final_credit_var,final_missed_percent,final_responses_ok,internal_node_id,key_press,possible_responses,responses,rt,stim_color,stim_duration,stim_number,stimulus,stop_acc,stop_signal_condition,task,task_condition,text,time_elapsed,timing_post_trial,trial_id,trial_index,trial_type,view_history
0,,,,,,,,,3032.0,,,,,,,,stop_signal_with_cued_task_switching,,,,,,,0.0-0.0-0.0,13.0,[13],,3032.0,,3032.0,,"<div class = bigbox><div class = picture_box><p class = block-text><font color=""white"">Welcome to the experiment. This experiment will take around 15 minutes. Press <i>enter</i> to begin.</font></p></div></div>",,,,,,3044,0.0,practice-stop-feedback,0,poldrack-single-stim,
1,,,,,,,,,,,,,,,,,stop_signal_with_cued_task_switching,,,,,,,0.0-0.0-1.0,,,,350031.0,,,,,,,,,,353077,,instruction,1,poldrack-instructions,"[{""page_index"":0,""viewing_time"":77831},{""page_index"":1,""viewing_time"":31350},{""page_index"":2,""viewing_time"":227505},{""page_index"":3,""viewing_time"":13344}]"
2,,,,,,,,,,,,,,,,,stop_signal_with_cued_task_switching,,,,,,,0.0-0.0-2.0,,,,,,,,,,,,,,354079,,set_stims,2,call-function,
3,,,,,,,,,500.0,,,,,,,,stop_signal_with_cued_task_switching,practice,,,,,,0.0-0.0-3.0,-1.0,none,,-1.0,,500.0,,<div class = upperbox><div class = fixation>+</div></div><div class = lowerbox><div class = fixation>+</div></div>,,,,,,354583,0.0,fixation,3,poldrack-single-stim,
4,150.0,350.0,350.0,,,,,,150.0,,,,Magnitude,na,0.0,1.0,stop_signal_with_cued_task_switching,practice,,,,,,0.0-0.0-4.0,-1.0,none,,-1.0,white,150.0,2.0,<div class = upperbox><div class = center-text>Magnitude</div></div><div class = lowerbox><div class = fixation>+</div></div>,,stop,magnitude,na,,354735,0.0,cue,4,poldrack-single-stim,
5,150.0,350.0,350.0,,500.0,"<div class = starbox><img class = star src=""/static/experiments/stop_signal_with_cued_task_switching/images/stop.png""></img></div>",stop,,2000.0,,-1.0,1.0,Magnitude,na,0.0,1.0,stop_signal_with_cued_task_switching,,,,,,,0.0-0.0-5.0,-1.0,"[77, 90]",,-1.0,white,1000.0,2.0,"<div class = upperbox><div class = center-text>Magnitude</div></div><div class = lowerbox><div class = gng_number><div class = cue-text><img class = center src=""/static/experiments/stop_signal_with_cued_task_switching/images/2.png""></img></div></div></div>",,stop,magnitude,na,,356739,0.0,practice_trial,5,stop-signal,
6,,,,,,,,,500.0,,,,,,,,stop_signal_with_cued_task_switching,,,,,,,0.0-0.0-6.0,-1.0,none,,-1.0,,500.0,,<div class = fb_box><div class = center-text><font size = 20>Correct!</font></div></div>,,,,,,357246,0.0,practice-stop-feedback,6,poldrack-single-stim,
7,,,,,,,,,,,,,,,,,stop_signal_with_cued_task_switching,,,,,,,0.0-0.0-7.0,,,,,,,,,,,,,,357247,,set_stims,7,call-function,
8,,,,,,,,,500.0,,,,,,,,stop_signal_with_cued_task_switching,practice,,,,,,0.0-0.0-8.0,-1.0,none,,-1.0,,500.0,,<div class = upperbox><div class = fixation>+</div></div><div class = lowerbox><div class = fixation>+</div></div>,,,,,,357751,0.0,fixation,8,poldrack-single-stim,
9,150.0,350.0,350.0,,,,,,150.0,,,,Magnitude,stay,0.0,2.0,stop_signal_with_cued_task_switching,practice,,,,,,0.0-0.0-9.0,-1.0,none,,-1.0,white,150.0,1.0,<div class = upperbox><div class = center-text>Magnitude</div></div><div class = lowerbox><div class = fixation>+</div></div>,,go,magnitude,stay,,357904,0.0,cue,9,poldrack-single-stim,
10,150.0,350.0,350.0,350.0,500.0,"<div class = starbox><img class = star src=""/static/experiments/stop_signal_with_cued_task_switching/images/stop.png""></img></div>",go,,2000.0,,90.0,1.0,Magnitude,stay,0.0,2.0,stop_signal_with_cued_task_switching,,,,,,,0.0-0.0-10.0,90.0,"[77, 90]",,848.0,white,1000.0,1.0,"<div class = upperbox><div class = center-text>Magnitude</div></div><div class = lowerbox><div class = gng_number><div class = cue-text><img class = center src=""/static/experiments/stop_signal_with_cued_task_switching/images/1.png""></img></div></div></div>",,go,magnitude,stay,,359906,0.0,practice_trial,10,stop-signal,
11,,,,,,,,,500.0,,,,,,,,stop_signal_with_cued_task_switching,,,,,,,0.0-0.0-11.0,-1.0,none,,-1.0,,500.0,,<div class = fb_box><div class = center-text><font size = 20>Correct!</font></div></div>,,,,,,360409,0.0,practice-stop-feedback,11,poldrack-single-stim,
12,,,,,,,,,,,,,,,,,stop_signal_with_cued_task_switching,,,,,,,0.0-0.0-12.0,,,,,,,,,,,,,,360411,,set_stims,12,call-function,
13,,,,,,,,,500.0,,,,,,,,stop_signal_with_cued_task_switching,practice,,,,,,0.0-0.0-13.0,-1.0,none,,-1.0,,500.0,,<div class = upperbox><div class = fixation>+</div></div><div class = lowerbox><div class = fixation>+</div></div>,,,,,,360914,0.0,fixation,13,poldrack-single-stim,
14,150.0,350.0,350.0,,,,,,150.0,,,,Parity,switch,0.0,3.0,stop_signal_with_cued_task_switching,practice,,,,,,0.0-0.0-14.0,-1.0,none,,-1.0,white,150.0,4.0,<div class = upperbox><div class = center-text>Parity</div></div><div class = lowerbox><div class = fixation>+</div></div>,,go,parity,switch,,361066,0.0,cue,14,poldrack-single-stim,
15,150.0,350.0,350.0,350.0,500.0,"<div class = starbox><img class = star src=""/static/experiments/stop_signal_with_cued_task_switching/images/stop.png""></img></div>",go,,2000.0,,77.0,1.0,Parity,switch,0.0,3.0,stop_signal_with_cued_task_switching,,,,,,,0.0-0.0-15.0,77.0,"[77, 90]",,877.0,white,1000.0,4.0,"<div class = upperbox><div class = center-text>Parity</div></div><div class = lowerbox><div class = gng_number><div class = cue-text><img class = center src=""/static/experiments/stop_signal_with_cued_task_switching/images/4.png""></img></div></div></div>",,go,parity,switch,,363068,0.0,practice_trial,15,stop-signal,
16,,,,,,,,,500.0,,,,,,,,stop_signal_with_cued_task_switching,,,,,,,0.0-0.0-16.0,-1.0,none,,-1.0,,500.0,,<div class = fb_box><div class = center-text><font size = 20>Correct!</font></div></div>,,,,,,363570,0.0,practice-stop-feedback,16,poldrack-single-stim,
17,,,,,,,,,,,,,,,,,stop_signal_with_cued_task_switching,,,,,,,0.0-0.0-17.0,,,,,,,,,,,,,,363571,,set_stims,17,call-function,
18,,,,,,,,,500.0,,,,,,,,stop_signal_with_cued_task_switching,practice,,,,,,0.0-0.0-18.0,-1.0,none,,-1.0,,500.0,,<div class = upperbox><div class = fixation>+</div></div><div class = lowerbox><div class = fixation>+</div></div>,,,,,,364075,0.0,fixation,18,poldrack-single-stim,
19,150.0,350.0,350.0,,,,,,150.0,,,,Odd-Even,switch,0.0,4.0,stop_signal_with_cued_task_switching,practice,,,,,,0.0-0.0-19.0,-1.0,none,,-1.0,white,150.0,7.0,<div class = upperbox><div class = center-text>Odd-Even</div></div><div class = lowerbox><div class = fixation>+</div></div>,,go,parity,stay,,364227,0.0,cue,19,poldrack-single-stim,
20,150.0,350.0,350.0,350.0,500.0,"<div class = starbox><img class = star src=""/static/experiments/stop_signal_with_cued_task_switching/images/stop.png""></img></div>",go,,2000.0,,90.0,1.0,Odd-Even,switch,0.0,4.0,stop_signal_with_cued_task_switching,,,,,,,0.0-0.0-20.0,90.0,"[77, 90]",,748.0,white,1000.0,7.0,"<div class = upperbox><div class = center-text>Odd-Even</div></div><div class = lowerbox><div class = gng_number><div class = cue-text><img class = center src=""/static/experiments/stop_signal_with_cued_task_switching/images/7.png""></img></div></div></div>",,go,parity,stay,,366229,0.0,practice_trial,20,stop-signal,
21,,,,,,,,,500.0,,,,,,,,stop_signal_with_cued_task_switching,,,,,,,0.0-0.0-21.0,-1.0,none,,-1.0,,500.0,,<div class = fb_box><div class = center-text><font size = 20>Correct!</font></div></div>,,,,,,366731,0.0,practice-stop-feedback,21,poldrack-single-stim,
22,,,,,,,,,,,,,,,,,stop_signal_with_cued_task_switching,,,,,,,0.0-0.0-22.0,,,,,,,,,,,,,,366732,,set_stims,22,call-function,
23,,,,,,,,,500.0,,,,,,,,stop_signal_with_cued_task_switching,practice,,,,,,0.0-0.0-23.0,-1.0,none,,-1.0,,500.0,,<div class = upperbox><div class = fixation>+</div></div><div class = lowerbox><div class = fixation>+</div></div>,,,,,,367236,0.0,fixation,23,poldrack-single-stim,
24,150.0,350.0,350.0,,,,,,150.0,,,,Odd-Even,stay,0.0,5.0,stop_signal_with_cued_task_switching,practice,,,,,,0.0-0.0-24.0,-1.0,none,,-1.0,white,150.0,2.0,<div class = upperbox><div class = center-text>Odd-Even</div></div><div class = lowerbox><div class = fixation>+</div></div>,,stop,parity,stay,,367388,0.0,cue,24,poldrack-single-stim,
25,150.0,350.0,350.0,350.0,500.0,"<div class = starbox><img class = star src=""/static/experiments/stop_signal_with_cued_task_switching/images/stop.png""></img></div>",stop,,2000.0,,-1.0,0.0,Odd-Even,stay,0.0,5.0,stop_signal_with_cued_task_switching,,,,,,,0.0-0.0-25.0,77.0,"[77, 90]",,754.0,white,1000.0,2.0,"<div class = upperbox><div class = center-text>Odd-Even</div></div><div class = lowerbox><div class = gng_number><div class = cue-text><img class = center src=""/static/experiments/stop_signal_with_cued_task_switching/images/2.png""></img></div></div></div>",0.0,stop,parity,stay,,369392,0.0,practice_trial,25,stop-signal,
26,,,,,,,,,500.0,,,,,,,,stop_signal_with_cued_task_switching,,,,,,,0.0-0.0-26.0,-1.0,none,,-1.0,,500.0,,<div class = fb_box><div class = center-text><font size = 20>There was a star.</font></div></div>,,,,,,369894,0.0,practice-stop-feedback,26,poldrack-single-stim,
27,,,,,,,,,,,,,,,,,stop_signal_with_cued_task_switching,,,,,,,0.0-0.0-27.0,,,,,,,,,,,,,,369895,,set_stims,27,call-function,
28,,,,,,,,,500.0,,,,,,,,stop_signal_with_cued_task_switching,practice,,,,,,0.0-0.0-28.0,-1.0,none,,-1.0,,500.0,,<div class = upperbox><div class = fixation>+</div></div><div class = lowerbox><div class = fixation>+</div></div>,,,,,,370399,0.0,fixation,28,poldrack-single-stim,
29,150.0,300.0,350.0,,,,,,150.0,,,,High-Low,switch,0.0,6.0,stop_signal_with_cued_task_switching,practice,,,,,,0.0-0.0-29.0,-1.0,none,,-1.0,white,150.0,7.0,<div class = upperbox><div class = center-text>High-Low</div></div><div class = lowerbox><div class = fixation>+</div></div>,,go,magnitude,switch,,370551,0.0,cue,29,poldrack-single-stim,
30,150.0,300.0,350.0,350.0,500.0,"<div class = starbox><img class = star src=""/static/experiments/stop_signal_with_cued_task_switching/images/stop.png""></img></div>",go,,2000.0,,77.0,1.0,High-Low,switch,0.0,6.0,stop_signal_with_cued_task_switching,,,,,,,0.0-0.0-30.0,77.0,"[77, 90]",,912.0,white,1000.0,7.0,"<div class = upperbox><div class = center-text>High-Low</div></div><div class = lowerbox><div class = gng_number><div class = cue-text><img class = center src=""/static/experiments/stop_signal_with_cued_task_switching/images/7.png""></img></div></div></div>",,go,magnitude,switch,,372553,0.0,practice_trial,30,stop-signal,
31,,,,,,,,,500.0,,,,,,,,stop_signal_with_cued_task_switching,,,,,,,0.0-0.0-31.0,-1.0,none,,-1.0,,500.0,,<div class = fb_box><div class = center-text><font size = 20>Correct!</font></div></div>,,,,,,373055,0.0,practice-stop-feedback,31,poldrack-single-stim,
32,,,,,,,,,,,,,,,,,stop_signal_with_cued_task_switching,,,,,,,0.0-0.0-32.0,,,,,,,,,,,,,,373056,,set_stims,32,call-function,
33,,,,,,,,,500.0,,,,,,,,stop_signal_with_cued_task_switching,practice,,,,,,0.0-0.0-33.0,-1.0,none,,-1.0,,500.0,,<div class = upperbox><div class = fixation>+</div></div><div class = lowerbox><div class = fixation>+</div></div>,,,,,,373561,0.0,fixation,33,poldrack-single-stim,
34,150.0,300.0,350.0,,,,,,150.0,,,,Odd-Even,switch,0.0,7.0,stop_signal_with_cued_task_switching,practice,,,,,,0.0-0.0-34.0,-1.0,none,,-1.0,white,150.0,7.0,<div class = upperbox><div class = center-text>Odd-Even</div></div><div class = lowerbox><div class = fixation>+</div></div>,,go,parity,switch,,373712,0.0,cue,34,poldrack-single-stim,
35,150.0,300.0,350.0,350.0,500.0,"<div class = starbox><img class = star src=""/static/experiments/stop_signal_with_cued_task_switching/images/stop.png""></img></div>",go,,2000.0,,90.0,1.0,Odd-Even,switch,0.0,7.0,stop_signal_with_cued_task_switching,,,,,,,0.0-0.0-35.0,90.0,"[77, 90]",,767.0,white,1000.0,7.0,"<div class = upperbox><div class = center-text>Odd-Even</div></div><div class = lowerbox><div class = gng_number><div class = cue-text><img class = center src=""/static/experiments/stop_signal_with_cued_task_switching/images/7.png""></img></div></div></div>",,go,parity,switch,,375714,0.0,practice_trial,35,stop-signal,
36,,,,,,,,,500.0,,,,,,,,stop_signal_with_cued_task_switching,,,,,,,0.0-0.0-36.0,-1.0,none,,-1.0,,500.0,,<div class = fb_box><div class = center-text><font size = 20>Correct!</font></div></div>,,,,,,376216,0.0,practice-stop-feedback,36,poldrack-single-stim,
37,,,,,,,,,,,,,,,,,stop_signal_with_cued_task_switching,,,,,,,0.0-0.0-37.0,,,,,,,,,,,,,,376217,,set_stims,37,call-function,
38,,,,,,,,,500.0,,,,,,,,stop_signal_with_cued_task_switching,practice,,,,,,0.0-0.0-38.0,-1.0,none,,-1.0,,500.0,,<div class = upperbox><div class = fixation>+</div></div><div class = lowerbox><div class = fixation>+</div></div>,,,,,,376720,0.0,fixation,38,poldrack-single-stim,
39,150.0,300.0,350.0,,,,,,150.0,,,,High-Low,switch,0.0,8.0,stop_signal_with_cued_task_switching,practice,,,,,,0.0-0.0-39.0,-1.0,none,,-1.0,white,150.0,7.0,<div class = upperbox><div class = center-text>High-Low</div></div><div class = lowerbox><div class = fixation>+</div></div>,,stop,magnitude,switch,,376872,0.0,cue,39,poldrack-single-stim,
40,150.0,300.0,350.0,350.0,500.0,"<div class = starbox><img class = star src=""/static/experiments/stop_signal_with_cued_task_switching/images/stop.png""></img></div>",stop,,2000.0,,-1.0,1.0,High-Low,switch,0.0,8.0,stop_signal_with_cued_task_switching,,,,,,,0.0-0.0-40.0,-1.0,"[77, 90]",,-1.0,white,1000.0,7.0,"<div class = upperbox><div class = center-text>High-Low</div></div><div class = lowerbox><div class = gng_number><div class = cue-text><img class = center src=""/static/experiments/stop_signal_with_cued_task_switching/images/7.png""></img></div></div></div>",1.0,stop,magnitude,switch,,378875,0.0,practice_trial,40,stop-signal,
41,,,,,,,,,500.0,,,,,,,,stop_signal_with_cued_task_switching,,,,,,,0.0-0.0-41.0,-1.0,none,,-1.0,,500.0,,<div class = fb_box><div class = center-text><font size = 20>Correct!</font></div></div>,,,,,,379377,0.0,practice-stop-feedback,41,poldrack-single-stim,
42,,,,,,,,,,,,,,,,,stop_signal_with_cued_task_switching,,,,,,,0.0-0.0-42.0,,,,,,,,,,,,,,379378,,set_stims,42,call-function,
43,,,,,,,,,500.0,,,,,,,,stop_signal_with_cued_task_switching,practice,,,,,,0.0-0.0-43.0,-1.0,none,,-1.0,,500.0,,<div class = upperbox><div class = fixation>+</div></div><div class = lowerbox><div class = fixation>+</div></div>,,,,,,379881,0.0,fixation,43,poldrack-single-stim,
44,150.0,300.0,400.0,,,,,,150.0,,,,Magnitude,switch,0.0,9.0,stop_signal_with_cued_task_switching,practice,,,,,,0.0-0.0-44.0,-1.0,none,,-1.0,white,150.0,6.0,<div class = upperbox><div class = center-text>Magnitude</div></div><div class = lowerbox><div class = fixation>+</div></div>,,go,magnitude,stay,,380034,0.0,cue,44,poldrack-single-stim,
45,150.0,300.0,400.0,300.0,500.0,"<div class = starbox><img class = star src=""/static/experiments/stop_signal_with_cued_task_switching/images/stop.png""></img></div>",go,,2000.0,,77.0,1.0,Magnitude,switch,0.0,9.0,stop_signal_with_cued_task_switching,,,,,,,0.0-0.0-45.0,77.0,"[77, 90]",,622.0,white,1000.0,6.0,"<div class = upperbox><div class = center-text>Magnitude</div></div><div class = lowerbox><div class = gng_number><div class = cue-text><img class = center src=""/static/experiments/stop_signal_with_cued_task_switching/images/6.png""></img></div></div></div>",,go,magnitude,stay,,382036,0.0,practice_trial,45,stop-signal,
46,,,,,,,,,500.0,,,,,,,,stop_signal_with_cued_task_switching,,,,,,,0.0-0.0-46.0,-1.0,none,,-1.0,,500.0,,<div class = fb_box><div class = center-text><font size = 20>Correct!</font></div></div>,,,,,,382538,0.0,practice-stop-feedback,46,poldrack-single-stim,
47,,,,,,,,,,,,,,,,,stop_signal_with_cued_task_switching,,,,,,,0.0-0.0-47.0,,,,,,,,,,,,,,382539,,set_stims,47,call-function,
48,,,,,,,,,500.0,,,,,,,,stop_signal_with_cued_task_switching,practice,,,,,,0.0-0.0-48.0,-1.0,none,,-1.0,,500.0,,<div class = upperbox><div class = fixation>+</div></div><div class = lowerbox><div class = fixation>+</div></div>,,,,,,383042,0.0,fixation,48,poldrack-single-stim,
49,150.0,300.0,400.0,,,,,,150.0,,,,Magnitude,stay,0.0,10.0,stop_signal_with_cued_task_switching,practice,,,,,,0.0-0.0-49.0,-1.0,none,,-1.0,white,150.0,4.0,<div class = upperbox><div class = center-text>Magnitude</div></div><div class = lowerbox><div class = fixation>+</div></div>,,stop,magnitude,stay,,383194,0.0,cue,49,poldrack-single-stim,
50,150.0,300.0,400.0,300.0,500.0,"<div class = starbox><img class = star src=""/static/experiments/stop_signal_with_cued_task_switching/images/stop.png""></img></div>",stop,,2000.0,,-1.0,0.0,Magnitude,stay,0.0,10.0,stop_signal_with_cued_task_switching,,,,,,,0.0-0.0-50.0,90.0,"[77, 90]",,709.0,white,1000.0,4.0,"<div class = upperbox><div class = center-text>Magnitude</div></div><div class = lowerbox><div class = gng_number><div class = cue-text><img class = center src=""/static/experiments/stop_signal_with_cued_task_switching/images/4.png""></img></div></div></div>",0.0,stop,magnitude,stay,,385196,0.0,practice_trial,50,stop-signal,
51,,,,,,,,,500.0,,,,,,,,stop_signal_with_cued_task_switching,,,,,,,0.0-0.0-51.0,-1.0,none,,-1.0,,500.0,,<div class = fb_box><div class = center-text><font size = 20>There was a star.</font></div></div>,,,,,,385698,0.0,practice-stop-feedback,51,poldrack-single-stim,
52,,,,,,,,,,,,,,,,,stop_signal_with_cued_task_switching,,,,,,,0.0-0.0-52.0,,,,,,,,,,,,,,385699,,set_stims,52,call-function,
53,,,,,,,,,500.0,,,,,,,,stop_signal_with_cued_task_switching,practice,,,,,,0.0-0.0-53.0,-1.0,none,,-1.0,,500.0,,<div class = upperbox><div class = fixation>+</div></div><div class = lowerbox><div class = fixation>+</div></div>,,,,,,386202,0.0,fixation,53,poldrack-single-stim,
54,150.0,250.0,400.0,,,,,,150.0,,,,Magnitude,stay,0.0,11.0,stop_signal_with_cued_task_switching,practice,,,,,,0.0-0.0-54.0,-1.0,none,,-1.0,white,150.0,6.0,<div class = upperbox><div class = center-text>Magnitude</div></div><div class = lowerbox><div class = fixation>+</div></div>,,go,magnitude,stay,,386354,0.0,cue,54,poldrack-single-stim,
55,150.0,250.0,400.0,250.0,500.0,"<div class = starbox><img class = star src=""/static/experiments/stop_signal_with_cued_task_switching/images/stop.png""></img></div>",go,,2000.0,,77.0,1.0,Magnitude,stay,0.0,11.0,stop_signal_with_cued_task_switching,,,,,,,0.0-0.0-55.0,77.0,"[77, 90]",,605.0,white,1000.0,6.0,"<div class = upperbox><div class = center-text>Magnitude</div></div><div class = lowerbox><div class = gng_number><div class = cue-text><img class = center src=""/static/experiments/stop_signal_with_cued_task_switching/images/6.png""></img></div></div></div>",,go,magnitude,stay,,388356,0.0,practice_trial,55,stop-signal,
56,,,,,,,,,500.0,,,,,,,,stop_signal_with_cued_task_switching,,,,,,,0.0-0.0-56.0,-1.0,none,,-1.0,,500.0,,<div class = fb_box><div class = center-text><font size = 20>Correct!</font></div></div>,,,,,,388858,0.0,practice-stop-feedback,56,poldrack-single-stim,
57,,,,,,,,,,,,,,,,,stop_signal_with_cued_task_switching,,,,,,,0.0-0.0-57.0,,,,,,,,,,,,,,388859,,set_stims,57,call-function,
58,,,,,,,,,500.0,,,,,,,,stop_signal_with_cued_task_switching,practice,,,,,,0.0-0.0-58.0,-1.0,none,,-1.0,,500.0,,<div class = upperbox><div class = fixation>+</div></div><div class = lowerbox><div class = fixation>+</div></div>,,,,,,389364,0.0,fixation,58,poldrack-single-stim,
59,150.0,250.0,400.0,,,,,,150.0,,,,High-Low,switch,0.0,12.0,stop_signal_with_cued_task_switching,practice,,,,,,0.0-0.0-59.0,-1.0,none,,-1.0,white,150.0,8.0,<div class = upperbox><div class = center-text>High-Low</div></div><div class = lowerbox><div class = fixation>+</div></div>,,go,magnitude,stay,,389516,0.0,cue,59,poldrack-single-stim,
60,150.0,250.0,400.0,250.0,500.0,"<div class = starbox><img class = star src=""/static/experiments/stop_signal_with_cued_task_switching/images/stop.png""></img></div>",go,,2000.0,,77.0,1.0,High-Low,switch,0.0,12.0,stop_signal_with_cued_task_switching,,,,,,,0.0-0.0-60.0,77.0,"[77, 90]",,619.0,white,1000.0,8.0,"<div class = upperbox><div class = center-text>High-Low</div></div><div class = lowerbox><div class = gng_number><div class = cue-text><img class = center src=""/static/experiments/stop_signal_with_cued_task_switching/images/8.png""></img></div></div></div>",,go,magnitude,stay,,391518,0.0,practice_trial,60,stop-signal,
61,,,,,,,,,500.0,,,,,,,,stop_signal_with_cued_task_switching,,,,,,,0.0-0.0-61.0,-1.0,none,,-1.0,,500.0,,<div class = fb_box><div class = center-text><font size = 20>Correct!</font></div></div>,,,,,,392020,0.0,practice-stop-feedback,61,poldrack-single-stim,
62,,,,,,,,,,,,,,,,,stop_signal_with_cued_task_switching,,,,,,,0.0-0.0-62.0,,,,,,,,,,,,,,392021,,set_stims,62,call-function,
63,,,,,,,,,500.0,,,,,,,,stop_signal_with_cued_task_switching,practice,,,,,,0.0-0.0-63.0,-1.0,none,,-1.0,,500.0,,<div class = upperbox><div class = fixation>+</div></div><div class = lowerbox><div class = fixation>+</div></div>,,,,,,392525,0.0,fixation,63,poldrack-single-stim,
64,150.0,250.0,400.0,,,,,,150.0,,,,High-Low,stay,0.0,13.0,stop_signal_with_cued_task_switching,practice,,,,,,0.0-0.0-64.0,-1.0,none,,-1.0,white,150.0,6.0,<div class = upperbox><div class = center-text>High-Low</div></div><div class = lowerbox><div class = fixation>+</div></div>,,go,magnitude,stay,,392677,0.0,cue,64,poldrack-single-stim,
65,150.0,250.0,400.0,250.0,500.0,"<div class = starbox><img class = star src=""/static/experiments/stop_signal_with_cued_task_switching/images/stop.png""></img></div>",go,,2000.0,,77.0,1.0,High-Low,stay,0.0,13.0,stop_signal_with_cued_task_switching,,,,,,,0.0-0.0-65.0,77.0,"[77, 90]",,554.0,white,1000.0,6.0,"<div class = upperbox><div class = center-text>High-Low</div></div><div class = lowerbox><div class = gng_number><div class = cue-text><img class = center src=""/static/experiments/stop_signal_with_cued_task_switching/images/6.png""></img></div></div></div>",,go,magnitude,stay,,394679,0.0,practice_trial,65,stop-signal,
66,,,,,,,,,500.0,,,,,,,,stop_signal_with_cued_task_switching,,,,,,,0.0-0.0-66.0,-1.0,none,,-1.0,,500.0,,<div class = fb_box><div class = center-text><font size = 20>Correct!</font></div></div>,,,,,,395181,0.0,practice-stop-feedback,66,poldrack-single-stim,
67,,,,,,,,,,,,,,,,,stop_signal_with_cued_task_switching,,,,,,,0.0-0.0-67.0,,,,,,,,,,,,,,395182,,set_stims,67,call-function,
68,,,,,,,,,500.0,,,,,,,,stop_signal_with_cued_task_switching,practice,,,,,,0.0-0.0-68.0,-1.0,none,,-1.0,,500.0,,<div class = upperbox><div class = fixation>+</div></div><div class = lowerbox><div class = fixation>+</div></div>,,,,,,395686,0.0,fixation,68,poldrack-single-stim,
69,150.0,250.0,400.0,,,,,,150.0,,,,Odd-Even,switch,0.0,14.0,stop_signal_with_cued_task_switching,practice,,,,,,0.0-0.0-69.0,-1.0,none,,-1.0,white,150.0,4.0,<div class = upperbox><div class = center-text>Odd-Even</div></div><div class = lowerbox><div class = fixation>+</div></div>,,stop,parity,switch,,395838,0.0,cue,69,poldrack-single-stim,
70,150.0,250.0,400.0,400.0,500.0,"<div class = starbox><img class = star src=""/static/experiments/stop_signal_with_cued_task_switching/images/stop.png""></img></div>",stop,,2000.0,,-1.0,1.0,Odd-Even,switch,0.0,14.0,stop_signal_with_cued_task_switching,,,,,,,0.0-0.0-70.0,-1.0,"[77, 90]",,-1.0,white,1000.0,4.0,"<div class = upperbox><div class = center-text>Odd-Even</div></div><div class = lowerbox><div class = gng_number><div class = cue-text><img class = center src=""/static/experiments/stop_signal_with_cued_task_switching/images/4.png""></img></div></div></div>",1.0,stop,parity,switch,,397840,0.0,practice_trial,70,stop-signal,
71,,,,,,,,,500.0,,,,,,,,stop_signal_with_cued_task_switching,,,,,,,0.0-0.0-71.0,-1.0,none,,-1.0,,500.0,,<div class = fb_box><div class = center-text><font size = 20>Correct!</font></div></div>,,,,,,398346,0.0,practice-stop-feedback,71,poldrack-single-stim,
72,,,,,,,,,,,,,,,,,stop_signal_with_cued_task_switching,,,,,,,0.0-0.0-72.0,,,,,,,,,,,,,,398347,,set_stims,72,call-function,
73,,,,,,,,,500.0,,,,,,,,stop_signal_with_cued_task_switching,practice,,,,,,0.0-0.0-73.0,-1.0,none,,-1.0,,500.0,,<div class = upperbox><div class = fixation>+</div></div><div class = lowerbox><div class = fixation>+</div></div>,,,,,,398850,0.0,fixation,73,poldrack-single-stim,
74,150.0,250.0,450.0,,,,,,150.0,,,,Parity,switch,0.0,15.0,stop_signal_with_cued_task_switching,practice,,,,,,0.0-0.0-74.0,-1.0,none,,-1.0,white,150.0,4.0,<div class = upperbox><div class = center-text>Parity</div></div><div class = lowerbox><div class = fixation>+</div></div>,,stop,parity,stay,,399002,0.0,cue,74,poldrack-single-stim,
75,150.0,250.0,450.0,250.0,500.0,"<div class = starbox><img class = star src=""/static/experiments/stop_signal_with_cued_task_switching/images/stop.png""></img></div>",stop,,2000.0,,-1.0,1.0,Parity,switch,0.0,15.0,stop_signal_with_cued_task_switching,,,,,,,0.0-0.0-75.0,-1.0,"[77, 90]",,-1.0,white,1000.0,4.0,"<div class = upperbox><div class = center-text>Parity</div></div><div class = lowerbox><div class = gng_number><div class = cue-text><img class = center src=""/static/experiments/stop_signal_with_cued_task_switching/images/4.png""></img></div></div></div>",1.0,stop,parity,stay,,401004,0.0,practice_trial,75,stop-signal,
76,,,,,,,,,500.0,,,,,,,,stop_signal_with_cued_task_switching,,,,,,,0.0-0.0-76.0,-1.0,none,,-1.0,,500.0,,<div class = fb_box><div class = center-text><font size = 20>Correct!</font></div></div>,,,,,,401506,0.0,practice-stop-feedback,76,poldrack-single-stim,
77,,,,,,,,,,,,,,,,,stop_signal_with_cued_task_switching,,,,,,,0.0-0.0-77.0,,,,,,,,,,,,,,401507,,set_stims,77,call-function,
78,,,,,,,,,500.0,,,,,,,,stop_signal_with_cued_task_switching,practice,,,,,,0.0-0.0-78.0,-1.0,none,,-1.0,,500.0,,<div class = upperbox><div class = fixation>+</div></div><div class = lowerbox><div class = fixation>+</div></div>,,,,,,402010,0.0,fixation,78,poldrack-single-stim,
79,150.0,300.0,450.0,,,,,,150.0,,,,Odd-Even,switch,0.0,16.0,stop_signal_with_cued_task_switching,practice,,,,,,0.0-0.0-79.0,-1.0,none,,-1.0,white,150.0,1.0,<div class = upperbox><div class = center-text>Odd-Even</div></div><div class = lowerbox><div class = fixation>+</div></div>,,go,parity,stay,,402161,0.0,cue,79,poldrack-single-stim,
80,150.0,300.0,450.0,300.0,500.0,"<div class = starbox><img class = star src=""/static/experiments/stop_signal_with_cued_task_switching/images/stop.png""></img></div>",go,,2000.0,,90.0,1.0,Odd-Even,switch,0.0,16.0,stop_signal_with_cued_task_switching,,,,,,,0.0-0.0-80.0,90.0,"[77, 90]",,630.0,white,1000.0,1.0,"<div class = upperbox><div class = center-text>Odd-Even</div></div><div class = lowerbox><div class = gng_number><div class = cue-text><img class = center src=""/static/experiments/stop_signal_with_cued_task_switching/images/1.png""></img></div></div></div>",,go,parity,stay,,404164,0.0,practice_trial,80,stop-signal,
81,,,,,,,,,500.0,,,,,,,,stop_signal_with_cued_task_switching,,,,,,,0.0-0.0-81.0,-1.0,none,,-1.0,,500.0,,<div class = fb_box><div class = center-text><font size = 20>Correct!</font></div></div>,,,,,,404666,0.0,practice-stop-feedback,81,poldrack-single-stim,
82,,,,,,,,,,,,,,,,,stop_signal_with_cued_task_switching,,,,,,,0.0-0.0-82.0,,,,,,,,,,,,,,404667,,set_stims,82,call-function,
83,,,,,,,,,500.0,,,,,,,,stop_signal_with_cued_task_switching,practice,,,,,,0.0-0.0-83.0,-1.0,none,,-1.0,,500.0,,<div class = upperbox><div class = fixation>+</div></div><div class = lowerbox><div class = fixation>+</div></div>,,,,,,405171,0.0,fixation,83,poldrack-single-stim,
84,150.0,300.0,450.0,,,,,,150.0,,,,High-Low,switch,0.0,17.0,stop_signal_with_cued_task_switching,practice,,,,,,0.0-0.0-84.0,-1.0,none,,-1.0,white,150.0,4.0,<div class = upperbox><div class = center-text>High-Low</div></div><div class = lowerbox><div class = fixation>+</div></div>,,go,magnitude,switch,,405323,0.0,cue,84,poldrack-single-stim,
85,150.0,300.0,450.0,450.0,500.0,"<div class = starbox><img class = star src=""/static/experiments/stop_signal_with_cued_task_switching/images/stop.png""></img></div>",go,,2000.0,,90.0,0.0,High-Low,switch,0.0,17.0,stop_signal_with_cued_task_switching,,,,,,,0.0-0.0-85.0,77.0,"[77, 90]",,765.0,white,1000.0,4.0,"<div class = upperbox><div class = center-text>High-Low</div></div><div class = lowerbox><div class = gng_number><div class = cue-text><img class = center src=""/static/experiments/stop_signal_with_cued_task_switching/images/4.png""></img></div></div></div>",,go,magnitude,switch,,407325,0.0,practice_trial,85,stop-signal,
86,,,,,,,,,500.0,,,,,,,,stop_signal_with_cued_task_switching,,,,,,,0.0-0.0-86.0,-1.0,none,,-1.0,,500.0,,<div class = fb_box><div class = center-text><font size = 20>Incorrect</font></div></div>,,,,,,407827,0.0,practice-stop-feedback,86,poldrack-single-stim,
87,,,,,,,,,,,,,,,,,stop_signal_with_cued_task_switching,,,,,,,0.0-0.0-87.0,,,,,,,,,,,,,,407828,,set_stims,87,call-function,
88,,,,,,,,,500.0,,,,,,,,stop_signal_with_cued_task_switching,practice,,,,,,0.0-0.0-88.0,-1.0,none,,-1.0,,500.0,,<div class = upperbox><div class = fixation>+</div></div><div class = lowerbox><div class = fixation>+</div></div>,,,,,,408331,0.0,fixation,88,poldrack-single-stim,
89,150.0,300.0,450.0,,,,,,150.0,,,,Parity,switch,0.0,18.0,stop_signal_with_cued_task_switching,practice,,,,,,0.0-0.0-89.0,-1.0,none,,-1.0,white,150.0,6.0,<div class = upperbox><div class = center-text>Parity</div></div><div class = lowerbox><div class = fixation>+</div></div>,,go,parity,switch,,408483,0.0,cue,89,poldrack-single-stim,
90,150.0,300.0,450.0,450.0,500.0,"<div class = starbox><img class = star src=""/static/experiments/stop_signal_with_cued_task_switching/images/stop.png""></img></div>",go,,2000.0,,77.0,1.0,Parity,switch,0.0,18.0,stop_signal_with_cued_task_switching,,,,,,,0.0-0.0-90.0,77.0,"[77, 90]",,828.0,white,1000.0,6.0,"<div class = upperbox><div class = center-text>Parity</div></div><div class = lowerbox><div class = gng_number><div class = cue-text><img class = center src=""/static/experiments/stop_signal_with_cued_task_switching/images/6.png""></img></div></div></div>",,go,parity,switch,,410486,0.0,practice_trial,90,stop-signal,
91,,,,,,,,,500.0,,,,,,,,stop_signal_with_cued_task_switching,,,,,,,0.0-0.0-91.0,-1.0,none,,-1.0,,500.0,,<div class = fb_box><div class = center-text><font size = 20>Correct!</font></div></div>,,,,,,410988,0.0,practice-stop-feedback,91,poldrack-single-stim,
92,,,,,,,,,,,,,,,,,stop_signal_with_cued_task_switching,,,,,,,0.0-0.0-92.0,,,,,,,,,,,,,,410989,,set_stims,92,call-function,
93,,,,,,,,,500.0,,,,,,,,stop_signal_with_cued_task_switching,practice,,,,,,0.0-0.0-93.0,-1.0,none,,-1.0,,500.0,,<div class = upperbox><div class = fixation>+</div></div><div class = lowerbox><div class = fixation>+</div></div>,,,,,,411492,0.0,fixation,93,poldrack-single-stim,
94,150.0,300.0,450.0,,,,,,150.0,,,,Parity,stay,0.0,19.0,stop_signal_with_cued_task_switching,practice,,,,,,0.0-0.0-94.0,-1.0,none,,-1.0,white,150.0,1.0,<div class = upperbox><div class = center-text>Parity</div></div><div class = lowerbox><div class = fixation>+</div></div>,,go,parity,stay,,411644,0.0,cue,94,poldrack-single-stim,
95,150.0,300.0,450.0,300.0,500.0,"<div class = starbox><img class = star src=""/static/experiments/stop_signal_with_cued_task_switching/images/stop.png""></img></div>",go,,2000.0,,90.0,1.0,Parity,stay,0.0,19.0,stop_signal_with_cued_task_switching,,,,,,,0.0-0.0-95.0,90.0,"[77, 90]",,675.0,white,1000.0,1.0,"<div class = upperbox><div class = center-text>Parity</div></div><div class = lowerbox><div class = gng_number><div class = cue-text><img class = center src=""/static/experiments/stop_signal_with_cued_task_switching/images/1.png""></img></div></div></div>",,go,parity,stay,,413646,0.0,practice_trial,95,stop-signal,
96,,,,,,,,,500.0,,,,,,,,stop_signal_with_cued_task_switching,,,,,,,0.0-0.0-96.0,-1.0,none,,-1.0,,500.0,,<div class = fb_box><div class = center-text><font size = 20>Correct!</font></div></div>,,,,,,414148,0.0,practice-stop-feedback,96,poldrack-single-stim,
97,,,,,,,,,,,,,,,,,stop_signal_with_cued_task_switching,,,,,,,0.0-0.0-97.0,,,,,,,,,,,,,,414149,,set_stims,97,call-function,
98,,,,,,,,,500.0,,,,,,,,stop_signal_with_cued_task_switching,practice,,,,,,0.0-0.0-98.0,-1.0,none,,-1.0,,500.0,,<div class = upperbox><div class = fixation>+</div></div><div class = lowerbox><div class = fixation>+</div></div>,,,,,,414652,0.0,fixation,98,poldrack-single-stim,
99,150.0,300.0,450.0,,,,,,150.0,,,,High-Low,switch,0.0,20.0,stop_signal_with_cued_task_switching,practice,,,,,,0.0-0.0-99.0,-1.0,none,,-1.0,white,150.0,1.0,<div class = upperbox><div class = center-text>High-Low</div></div><div class = lowerbox><div class = fixation>+</div></div>,,stop,magnitude,switch,,414804,0.0,cue,99,poldrack-single-stim,
100,150.0,300.0,450.0,450.0,500.0,"<div class = starbox><img class = star src=""/static/experiments/stop_signal_with_cued_task_switching/images/stop.png""></img></div>",stop,,2000.0,,-1.0,1.0,High-Low,switch,0.0,20.0,stop_signal_with_cued_task_switching,,,,,,,0.0-0.0-100.0,-1.0,"[77, 90]",,-1.0,white,1000.0,1.0,"<div class = upperbox><div class = center-text>High-Low</div></div><div class = lowerbox><div class = gng_number><div class = cue-text><img class = center src=""/static/experiments/stop_signal_with_cued_task_switching/images/1.png""></img></div></div></div>",1.0,stop,magnitude,switch,,416806,0.0,practice_trial,100,stop-signal,
101,,,,,,,,,500.0,,,,,,,,stop_signal_with_cued_task_switching,,,,,,,0.0-0.0-101.0,-1.0,none,,-1.0,,500.0,,<div class = fb_box><div class = center-text><font size = 20>Correct!</font></div></div>,,,,,,417308,0.0,practice-stop-feedback,101,poldrack-single-stim,
102,,,,,,,,,,,,,,,,,stop_signal_with_cued_task_switching,,,,,,,0.0-0.0-102.0,,,,,,,,,,,,,,417309,,set_stims,102,call-function,
103,,,,,,,,,500.0,,,,,,,,stop_signal_with_cued_task_switching,practice,,,,,,0.0-0.0-103.0,-1.0,none,,-1.0,,500.0,,<div class = upperbox><div class = fixation>+</div></div><div class = lowerbox><div class = fixation>+</div></div>,,,,,,417813,0.0,fixation,103,poldrack-single-stim,
104,150.0,300.0,500.0,,,,,,150.0,,,,Odd-Even,switch,0.0,21.0,stop_signal_with_cued_task_switching,practice,,,,,,0.0-0.0-104.0,-1.0,none,,-1.0,white,150.0,6.0,<div class = upperbox><div class = center-text>Odd-Even</div></div><div class = lowerbox><div class = fixation>+</div></div>,,go,parity,switch,,417965,0.0,cue,104,poldrack-single-stim,
105,150.0,300.0,500.0,500.0,500.0,"<div class = starbox><img class = star src=""/static/experiments/stop_signal_with_cued_task_switching/images/stop.png""></img></div>",go,,2000.0,,77.0,1.0,Odd-Even,switch,0.0,21.0,stop_signal_with_cued_task_switching,,,,,,,0.0-0.0-105.0,77.0,"[77, 90]",,995.0,white,1000.0,6.0,"<div class = upperbox><div class = center-text>Odd-Even</div></div><div class = lowerbox><div class = gng_number><div class = cue-text><img class = center src=""/static/experiments/stop_signal_with_cued_task_switching/images/6.png""></img></div></div></div>",,go,parity,switch,,419967,0.0,practice_trial,105,stop-signal,
106,,,,,,,,,500.0,,,,,,,,stop_signal_with_cued_task_switching,,,,,,,0.0-0.0-106.0,-1.0,none,,-1.0,,500.0,,<div class = fb_box><div class = center-text><font size = 20>Correct!</font></div></div>,,,,,,420469,0.0,practice-stop-feedback,106,poldrack-single-stim,
107,,,,,,,,,,,,,,,,,stop_signal_with_cued_task_switching,,,,,,,0.0-0.0-107.0,,,,,,,,,,,,,,420470,,set_stims,107,call-function,
108,,,,,,,,,500.0,,,,,,,,stop_signal_with_cued_task_switching,practice,,,,,,0.0-0.0-108.0,-1.0,none,,-1.0,,500.0,,<div class = upperbox><div class = fixation>+</div></div><div class = lowerbox><div class = fixation>+</div></div>,,,,,,420974,0.0,fixation,108,poldrack-single-stim,
109,150.0,300.0,500.0,,,,,,150.0,,,,Magnitude,switch,0.0,22.0,stop_signal_with_cued_task_switching,practice,,,,,,0.0-0.0-109.0,-1.0,none,,-1.0,white,150.0,3.0,<div class = upperbox><div class = center-text>Magnitude</div></div><div class = lowerbox><div class = fixation>+</div></div>,,go,magnitude,switch,,421127,0.0,cue,109,poldrack-single-stim,
110,150.0,300.0,500.0,500.0,500.0,"<div class = starbox><img class = star src=""/static/experiments/stop_signal_with_cued_task_switching/images/stop.png""></img></div>",go,,2000.0,,90.0,1.0,Magnitude,switch,0.0,22.0,stop_signal_with_cued_task_switching,,,,,,,0.0-0.0-110.0,90.0,"[77, 90]",,664.0,white,1000.0,3.0,"<div class = upperbox><div class = center-text>Magnitude</div></div><div class = lowerbox><div class = gng_number><div class = cue-text><img class = center src=""/static/experiments/stop_signal_with_cued_task_switching/images/3.png""></img></div></div></div>",,go,magnitude,switch,,423129,0.0,practice_trial,110,stop-signal,
111,,,,,,,,,500.0,,,,,,,,stop_signal_with_cued_task_switching,,,,,,,0.0-0.0-111.0,-1.0,none,,-1.0,,500.0,,<div class = fb_box><div class = center-text><font size = 20>Correct!</font></div></div>,,,,,,423631,0.0,practice-stop-feedback,111,poldrack-single-stim,
112,,,,,,,,,,,,,,,,,stop_signal_with_cued_task_switching,,,,,,,0.0-0.0-112.0,,,,,,,,,,,,,,423632,,set_stims,112,call-function,
113,,,,,,,,,500.0,,,,,,,,stop_signal_with_cued_task_switching,practice,,,,,,0.0-0.0-113.0,-1.0,none,,-1.0,,500.0,,<div class = upperbox><div class = fixation>+</div></div><div class = lowerbox><div class = fixation>+</div></div>,,,,,,424135,0.0,fixation,113,poldrack-single-stim,
114,150.0,300.0,500.0,,,,,,150.0,,,,Odd-Even,switch,0.0,23.0,stop_signal_with_cued_task_switching,practice,,,,,,0.0-0.0-114.0,-1.0,none,,-1.0,white,150.0,1.0,<div class = upperbox><div class = center-text>Odd-Even</div></div><div class = lowerbox><div class = fixation>+</div></div>,,go,parity,switch,,424287,0.0,cue,114,poldrack-single-stim,
115,150.0,300.0,500.0,500.0,500.0,"<div class = starbox><img class = star src=""/static/experiments/stop_signal_with_cued_task_switching/images/stop.png""></img></div>",go,,2000.0,,90.0,1.0,Odd-Even,switch,0.0,23.0,stop_signal_with_cued_task_switching,,,,,,,0.0-0.0-115.0,90.0,"[77, 90]",,624.0,white,1000.0,1.0,"<div class = upperbox><div class = center-text>Odd-Even</div></div><div class = lowerbox><div class = gng_number><div class = cue-text><img class = center src=""/static/experiments/stop_signal_with_cued_task_switching/images/1.png""></img></div></div></div>",,go,parity,switch,,426289,0.0,practice_trial,115,stop-signal,
116,,,,,,,,,500.0,,,,,,,,stop_signal_with_cued_task_switching,,,,,,,0.0-0.0-116.0,-1.0,none,,-1.0,,500.0,,<div class = fb_box><div class = center-text><font size = 20>Correct!</font></div></div>,,,,,,426791,0.0,practice-stop-feedback,116,poldrack-single-stim,
117,,,,,,,,,,,,,,,,,stop_signal_with_cued_task_switching,,,,,,,0.0-0.0-117.0,,,,,,,,,,,,,,426792,,set_stims,117,call-function,
118,,,,,,,,,500.0,,,,,,,,stop_signal_with_cued_task_switching,practice,,,,,,0.0-0.0-118.0,-1.0,none,,-1.0,,500.0,,<div class = upperbox><div class = fixation>+</div></div><div class = lowerbox><div class = fixation>+</div></div>,,,,,,427298,0.0,fixation,118,poldrack-single-stim,
119,150.0,300.0,500.0,,,,,,150.0,,,,Magnitude,switch,0.0,24.0,stop_signal_with_cued_task_switching,practice,,,,,,0.0-0.0-119.0,-1.0,none,,-1.0,white,150.0,1.0,<div class = upperbox><div class = center-text>Magnitude</div></div><div class = lowerbox><div class = fixation>+</div></div>,,stop,magnitude,switch,,427451,0.0,cue,119,poldrack-single-stim,
120,150.0,300.0,500.0,500.0,500.0,"<div class = starbox><img class = star src=""/static/experiments/stop_signal_with_cued_task_switching/images/stop.png""></img></div>",stop,,2000.0,,-1.0,0.0,Magnitude,switch,0.0,24.0,stop_signal_with_cued_task_switching,,,,,,,0.0-0.0-120.0,90.0,"[77, 90]",,633.0,white,1000.0,1.0,"<div class = upperbox><div class = center-text>Magnitude</div></div><div class = lowerbox><div class = gng_number><div class = cue-text><img class = center src=""/static/experiments/stop_signal_with_cued_task_switching/images/1.png""></img></div></div></div>",0.0,stop,magnitude,switch,,429456,0.0,practice_trial,120,stop-signal,
121,,,,,,,,,500.0,,,,,,,,stop_signal_with_cued_task_switching,,,,,,,0.0-0.0-121.0,-1.0,none,,-1.0,,500.0,,<div class = fb_box><div class = center-text><font size = 20>There was a star.</font></div></div>,,,,,,429958,0.0,practice-stop-feedback,121,poldrack-single-stim,
122,,,,,,,,,,,,,,,,,stop_signal_with_cued_task_switching,,,,,,,0.0-0.0-122.0,,,,,,,,,,,,,,429959,,set_stims,122,call-function,
123,,,,,,,,,500.0,,,,,,,,stop_signal_with_cued_task_switching,practice,,,,,,0.0-0.0-123.0,-1.0,none,,-1.0,,500.0,,<div class = upperbox><div class = fixation>+</div></div><div class = lowerbox><div class = fixation>+</div></div>,,,,,,430462,0.0,fixation,123,poldrack-single-stim,
124,150.0,300.0,450.0,,,,,,150.0,,,,High-Low,switch,0.0,25.0,stop_signal_with_cued_task_switching,practice,,,,,,0.0-0.0-124.0,-1.0,none,,-1.0,white,150.0,8.0,<div class = upperbox><div class = center-text>High-Low</div></div><div class = lowerbox><div class = fixation>+</div></div>,,stop,magnitude,stay,,430614,0.0,cue,124,poldrack-single-stim,
125,150.0,300.0,450.0,300.0,500.0,"<div class = starbox><img class = star src=""/static/experiments/stop_signal_with_cued_task_switching/images/stop.png""></img></div>",stop,,2000.0,,-1.0,1.0,High-Low,switch,0.0,25.0,stop_signal_with_cued_task_switching,,,,,,,0.0-0.0-125.0,-1.0,"[77, 90]",,-1.0,white,1000.0,8.0,"<div class = upperbox><div class = center-text>High-Low</div></div><div class = lowerbox><div class = gng_number><div class = cue-text><img class = center src=""/static/experiments/stop_signal_with_cued_task_switching/images/8.png""></img></div></div></div>",1.0,stop,magnitude,stay,,432616,0.0,practice_trial,125,stop-signal,
126,,,,,,,,,500.0,,,,,,,,stop_signal_with_cued_task_switching,,,,,,,0.0-0.0-126.0,-1.0,none,,-1.0,,500.0,,<div class = fb_box><div class = center-text><font size = 20>Correct!</font></div></div>,,,,,,433119,0.0,practice-stop-feedback,126,poldrack-single-stim,
127,,,,,,,,,8596.0,,,,,,,,stop_signal_with_cued_task_switching,,,,,,,0.0-1.0,13.0,[13],,8596.0,,8596.0,,"<div class = bigbox><div class = picture_box><p class = block-text><font color=""white""><br>Please take this time to read your feedback and to take a short break! Press enter to continue</p><p class = block-text>Done with this practice. Press Enter to continue.</font></p></div></div>",,,,,,441723,0.0,practice-stop-feedback,127,poldrack-single-stim,
128,,,,,,,,,28022.0,,,,,,,,stop_signal_with_cued_task_switching,,,,,,,0.0-2.0,13.0,,,28022.0,,,,,,,,,"<div class = centerbox><p class = block-text>Practice completed. Starting test.</p><p class = block-text>The cue before the number will be a word indicating the task. There will be four different cues indicating 2 different tasks. The cues and tasks are described below:</p><ul style = ""font-size: 23px""><li><i>Odd-Even</i> or <i>Parity</i>: Z if odd and M if even.</li><li><i>High-Low</i> or <i>Magnitude</i>: Z if <5 and M if >5.</li></ul><p class = block-text>Do not make a response if a star appears.</p><p class = block-text>Press <i>enter</i> to begin.</p></div>",469746,1000.0,test_intro,128,poldrack-text,
129,,,,,,,,,23237.0,,,,,,,,stop_signal_with_cued_task_switching,,,,,,,0.0-3.0-0.0,13.0,[13],,23237.0,,23237.0,,"<div class = bigbox><div class = picture_box><p class = block-text><font color=""white"">Starting a test block.</font></p></div></div>",,,,,,493986,0.0,practice-stop-feedback,129,poldrack-single-stim,
130,,,,,,,,,11630.0,True,69.0,,,,,,stop_signal_with_cued_task_switching,,,,,,,0.0-3.0-1.0-0.0,69.0,[],,11630.0,,11630.0,,"<p>If (7+1+4) is even, press the ""E"" key. Otherwise press the ""O"" key. </p>",,,,,,505619,200.0,attention_check,130,attention-check,
131,,,,,,,,,,,,,,,,,stop_signal_with_cued_task_switching,,,,,,,0.0-3.0-2.0,,,,,,,,,,,,,,505820,,set_stims,131,call-function,
132,,,,,,,,,500.0,,,,,,,,stop_signal_with_cued_task_switching,practice,,,,,,0.0-3.0-3.0,-1.0,none,,-1.0,,500.0,,<div class = upperbox><div class = fixation>+</div></div><div class = lowerbox><div class = fixation>+</div></div>,,,,,,506321,0.0,fixation,132,poldrack-single-stim,
133,150.0,350.0,450.0,,,,,,150.0,,,,Magnitude,na,0.0,1.0,stop_signal_with_cued_task_switching,practice,,,,,,0.0-3.0-4.0,-1.0,none,,-1.0,white,150.0,7.0,<div class = upperbox><div class = center-text>Magnitude</div></div><div class = lowerbox><div class = fixation>+</div></div>,,go,magnitude,na,,506473,0.0,cue,133,poldrack-single-stim,
134,150.0,350.0,450.0,,500.0,"<div class = starbox><img class = star src=""/static/experiments/stop_signal_with_cued_task_switching/images/stop.png""></img></div>",go,,2000.0,True,77.0,0.0,Magnitude,na,0.0,1.0,stop_signal_with_cued_task_switching,test,,,,,,0.0-3.0-5.0,77.0,"[77, 90]",,814.0,white,1000.0,7.0,"<div class = upperbox><div class = center-text>Magnitude</div></div><div class = lowerbox><div class = gng_number><div class = cue-text><img class = center src=""/static/experiments/stop_signal_with_cued_task_switching/images/7.png""></img></div></div></div>",,go,magnitude,na,,508475,0.0,test_trial,134,stop-signal,
135,,,,,,,,,,,,,,,,,stop_signal_with_cued_task_switching,,,,,,,0.0-3.0-6.0,,,,,,,,,,,,,,508476,,set_stims,135,call-function,
136,,,,,,,,,500.0,,,,,,,,stop_signal_with_cued_task_switching,practice,,,,,,0.0-3.0-7.0,-1.0,none,,-1.0,,500.0,,<div class = upperbox><div class = fixation>+</div></div><div class = lowerbox><div class = fixation>+</div></div>,,,,,,508978,0.0,fixation,136,poldrack-single-stim,
137,150.0,350.0,450.0,,,,,,150.0,,,,Parity,switch,0.0,2.0,stop_signal_with_cued_task_switching,practice,,,,,,0.0-3.0-8.0,-1.0,none,,-1.0,white,150.0,1.0,<div class = upperbox><div class = center-text>Parity</div></div><div class = lowerbox><div class = fixation>+</div></div>,,go,parity,switch,,509129,0.0,cue,137,poldrack-single-stim,
138,150.0,350.0,450.0,450.0,500.0,"<div class = starbox><img class = star src=""/static/experiments/stop_signal_with_cued_task_switching/images/stop.png""></img></div>",go,,2000.0,True,90.0,0.0,Parity,switch,0.0,2.0,stop_signal_with_cued_task_switching,test,,,,,,0.0-3.0-9.0,90.0,"[77, 90]",,695.0,white,1000.0,1.0,"<div class = upperbox><div class = center-text>Parity</div></div><div class = lowerbox><div class = gng_number><div class = cue-text><img class = center src=""/static/experiments/stop_signal_with_cued_task_switching/images/1.png""></img></div></div></div>",,go,parity,switch,,511131,0.0,test_trial,138,stop-signal,
139,,,,,,,,,,,,,,,,,stop_signal_with_cued_task_switching,,,,,,,0.0-3.0-10.0,,,,,,,,,,,,,,511132,,set_stims,139,call-function,
140,,,,,,,,,500.0,,,,,,,,stop_signal_with_cued_task_switching,practice,,,,,,0.0-3.0-11.0,-1.0,none,,-1.0,,500.0,,<div class = upperbox><div class = fixation>+</div></div><div class = lowerbox><div class = fixation>+</div></div>,,,,,,511636,0.0,fixation,140,poldrack-single-stim,
141,150.0,350.0,450.0,,,,,,150.0,,,,Parity,stay,0.0,3.0,stop_signal_with_cued_task_switching,practice,,,,,,0.0-3.0-12.0,-1.0,none,,-1.0,white,150.0,3.0,<div class = upperbox><div class = center-text>Parity</div></div><div class = lowerbox><div class = fixation>+</div></div>,,stop,parity,stay,,511787,0.0,cue,141,poldrack-single-stim,
142,150.0,350.0,450.0,350.0,500.0,"<div class = starbox><img class = star src=""/static/experiments/stop_signal_with_cued_task_switching/images/stop.png""></img></div>",stop,,2000.0,False,-1.0,1.0,Parity,stay,0.0,3.0,stop_signal_with_cued_task_switching,test,,,,,,0.0-3.0-13.0,90.0,"[77, 90]",,646.0,white,1000.0,3.0,"<div class = upperbox><div class = center-text>Parity</div></div><div class = lowerbox><div class = gng_number><div class = cue-text><img class = center src=""/static/experiments/stop_signal_with_cued_task_switching/images/3.png""></img></div></div></div>",0.0,stop,parity,stay,,513788,0.0,test_trial,142,stop-signal,
143,,,,,,,,,,,,,,,,,stop_signal_with_cued_task_switching,,,,,,,0.0-3.0-14.0,,,,,,,,,,,,,,513789,,set_stims,143,call-function,
144,,,,,,,,,500.0,,,,,,,,stop_signal_with_cued_task_switching,practice,,,,,,0.0-3.0-15.0,-1.0,none,,-1.0,,500.0,,<div class = upperbox><div class = fixation>+</div></div><div class = lowerbox><div class = fixation>+</div></div>,,,,,,514290,0.0,fixation,144,poldrack-single-stim,
145,150.0,300.0,450.0,,,,,,150.0,,,,Magnitude,switch,0.0,4.0,stop_signal_with_cued_task_switching,practice,,,,,,0.0-3.0-16.0,-1.0,none,,-1.0,white,150.0,6.0,<div class = upperbox><div class = center-text>Magnitude</div></div><div class = lowerbox><div class = fixation>+</div></div>,,go,magnitude,switch,,514442,0.0,cue,145,poldrack-single-stim,
146,150.0,300.0,450.0,450.0,500.0,"<div class = starbox><img class = star src=""/static/experiments/stop_signal_with_cued_task_switching/images/stop.png""></img></div>",go,,2000.0,True,77.0,0.0,Magnitude,switch,0.0,4.0,stop_signal_with_cued_task_switching,test,,,,,,0.0-3.0-17.0,77.0,"[77, 90]",,557.0,white,1000.0,6.0,"<div class = upperbox><div class = center-text>Magnitude</div></div><div class = lowerbox><div class = gng_number><div class = cue-text><img class = center src=""/static/experiments/stop_signal_with_cued_task_switching/images/6.png""></img></div></div></div>",,go,magnitude,switch,,516446,0.0,test_trial,146,stop-signal,
147,,,,,,,,,,,,,,,,,stop_signal_with_cued_task_switching,,,,,,,0.0-3.0-18.0,,,,,,,,,,,,,,516447,,set_stims,147,call-function,
148,,,,,,,,,500.0,,,,,,,,stop_signal_with_cued_task_switching,practice,,,,,,0.0-3.0-19.0,-1.0,none,,-1.0,,500.0,,<div class = upperbox><div class = fixation>+</div></div><div class = lowerbox><div class = fixation>+</div></div>,,,,,,516949,0.0,fixation,148,poldrack-single-stim,
149,150.0,300.0,450.0,,,,,,150.0,,,,Odd-Even,switch,0.0,5.0,stop_signal_with_cued_task_switching,practice,,,,,,0.0-3.0-20.0,-1.0,none,,-1.0,white,150.0,1.0,<div class = upperbox><div class = center-text>Odd-Even</div></div><div class = lowerbox><div class = fixation>+</div></div>,,go,parity,switch,,517100,0.0,cue,149,poldrack-single-stim,
150,150.0,300.0,450.0,450.0,500.0,"<div class = starbox><img class = star src=""/static/experiments/stop_signal_with_cued_task_switching/images/stop.png""></img></div>",go,,2000.0,True,90.0,0.0,Odd-Even,switch,0.0,5.0,stop_signal_with_cued_task_switching,test,,,,,,0.0-3.0-21.0,90.0,"[77, 90]",,660.0,white,1000.0,1.0,"<div class = upperbox><div class = center-text>Odd-Even</div></div><div class = lowerbox><div class = gng_number><div class = cue-text><img class = center src=""/static/experiments/stop_signal_with_cued_task_switching/images/1.png""></img></div></div></div>",,go,parity,switch,,519102,0.0,test_trial,150,stop-signal,
151,,,,,,,,,,,,,,,,,stop_signal_with_cued_task_switching,,,,,,,0.0-3.0-22.0,,,,,,,,,,,,,,519103,,set_stims,151,call-function,
152,,,,,,,,,500.0,,,,,,,,stop_signal_with_cued_task_switching,practice,,,,,,0.0-3.0-23.0,-1.0,none,,-1.0,,500.0,,<div class = upperbox><div class = fixation>+</div></div><div class = lowerbox><div class = fixation>+</div></div>,,,,,,519607,0.0,fixation,152,poldrack-single-stim,
153,150.0,300.0,450.0,,,,,,150.0,,,,Odd-Even,stay,0.0,6.0,stop_signal_with_cued_task_switching,practice,,,,,,0.0-3.0-24.0,-1.0,none,,-1.0,white,150.0,3.0,<div class = upperbox><div class = center-text>Odd-Even</div></div><div class = lowerbox><div class = fixation>+</div></div>,,go,parity,stay,,519758,0.0,cue,153,poldrack-single-stim,
154,150.0,300.0,450.0,300.0,500.0,"<div class = starbox><img class = star src=""/static/experiments/stop_signal_with_cued_task_switching/images/stop.png""></img></div>",go,,2000.0,True,90.0,1.0,Odd-Even,stay,0.0,6.0,stop_signal_with_cued_task_switching,test,,,,,,0.0-3.0-25.0,90.0,"[77, 90]",,650.0,white,1000.0,3.0,"<div class = upperbox><div class = center-text>Odd-Even</div></div><div class = lowerbox><div class = gng_number><div class = cue-text><img class = center src=""/static/experiments/stop_signal_with_cued_task_switching/images/3.png""></img></div></div></div>",,go,parity,stay,,521760,0.0,test_trial,154,stop-signal,
155,,,,,,,,,,,,,,,,,stop_signal_with_cued_task_switching,,,,,,,0.0-3.0-26.0,,,,,,,,,,,,,,521762,,set_stims,155,call-function,
156,,,,,,,,,500.0,,,,,,,,stop_signal_with_cued_task_switching,practice,,,,,,0.0-3.0-27.0,-1.0,none,,-1.0,,500.0,,<div class = upperbox><div class = fixation>+</div></div><div class = lowerbox><div class = fixation>+</div></div>,,,,,,522265,0.0,fixation,156,poldrack-single-stim,
157,150.0,300.0,450.0,,,,,,150.0,,,,Odd-Even,stay,0.0,7.0,stop_signal_with_cued_task_switching,practice,,,,,,0.0-3.0-28.0,-1.0,none,,-1.0,white,150.0,4.0,<div class = upperbox><div class = center-text>Odd-Even</div></div><div class = lowerbox><div class = fixation>+</div></div>,,go,parity,stay,,522416,0.0,cue,157,poldrack-single-stim,
158,150.0,300.0,450.0,300.0,500.0,"<div class = starbox><img class = star src=""/static/experiments/stop_signal_with_cued_task_switching/images/stop.png""></img></div>",go,,2000.0,True,77.0,0.0,Odd-Even,stay,0.0,7.0,stop_signal_with_cued_task_switching,test,,,,,,0.0-3.0-29.0,77.0,"[77, 90]",,680.0,white,1000.0,4.0,"<div class = upperbox><div class = center-text>Odd-Even</div></div><div class = lowerbox><div class = gng_number><div class = cue-text><img class = center src=""/static/experiments/stop_signal_with_cued_task_switching/images/4.png""></img></div></div></div>",,go,parity,stay,,524418,0.0,test_trial,158,stop-signal,
159,,,,,,,,,,,,,,,,,stop_signal_with_cued_task_switching,,,,,,,0.0-3.0-30.0,,,,,,,,,,,,,,524420,,set_stims,159,call-function,
160,,,,,,,,,500.0,,,,,,,,stop_signal_with_cued_task_switching,practice,,,,,,0.0-3.0-31.0,-1.0,none,,-1.0,,500.0,,<div class = upperbox><div class = fixation>+</div></div><div class = lowerbox><div class = fixation>+</div></div>,,,,,,524924,0.0,fixation,160,poldrack-single-stim,
161,150.0,300.0,450.0,,,,,,150.0,,,,Magnitude,switch,0.0,8.0,stop_signal_with_cued_task_switching,practice,,,,,,0.0-3.0-32.0,-1.0,none,,-1.0,white,150.0,9.0,<div class = upperbox><div class = center-text>Magnitude</div></div><div class = lowerbox><div class = fixation>+</div></div>,,stop,magnitude,switch,,525075,0.0,cue,161,poldrack-single-stim,
162,150.0,300.0,450.0,450.0,500.0,"<div class = starbox><img class = star src=""/static/experiments/stop_signal_with_cued_task_switching/images/stop.png""></img></div>",stop,,2000.0,False,-1.0,1.0,Magnitude,switch,0.0,8.0,stop_signal_with_cued_task_switching,test,,,,,,0.0-3.0-33.0,77.0,"[77, 90]",,708.0,white,1000.0,9.0,"<div class = upperbox><div class = center-text>Magnitude</div></div><div class = lowerbox><div class = gng_number><div class = cue-text><img class = center src=""/static/experiments/stop_signal_with_cued_task_switching/images/9.png""></img></div></div></div>",0.0,stop,magnitude,switch,,527077,0.0,test_trial,162,stop-signal,
163,,,,,,,,,,,,,,,,,stop_signal_with_cued_task_switching,,,,,,,0.0-3.0-34.0,,,,,,,,,,,,,,527078,,set_stims,163,call-function,
164,,,,,,,,,500.0,,,,,,,,stop_signal_with_cued_task_switching,practice,,,,,,0.0-3.0-35.0,-1.0,none,,-1.0,,500.0,,<div class = upperbox><div class = fixation>+</div></div><div class = lowerbox><div class = fixation>+</div></div>,,,,,,527579,0.0,fixation,164,poldrack-single-stim,
165,150.0,300.0,400.0,,,,,,150.0,,,,High-Low,switch,0.0,9.0,stop_signal_with_cued_task_switching,practice,,,,,,0.0-3.0-36.0,-1.0,none,,-1.0,white,150.0,1.0,<div class = upperbox><div class = center-text>High-Low</div></div><div class = lowerbox><div class = fixation>+</div></div>,,stop,magnitude,stay,,527730,0.0,cue,165,poldrack-single-stim,
166,150.0,300.0,400.0,300.0,500.0,"<div class = starbox><img class = star src=""/static/experiments/stop_signal_with_cued_task_switching/images/stop.png""></img></div>",stop,,2000.0,True,-1.0,1.0,High-Low,switch,0.0,9.0,stop_signal_with_cued_task_switching,test,,,,,,0.0-3.0-37.0,-1.0,"[77, 90]",,-1.0,white,1000.0,1.0,"<div class = upperbox><div class = center-text>High-Low</div></div><div class = lowerbox><div class = gng_number><div class = cue-text><img class = center src=""/static/experiments/stop_signal_with_cued_task_switching/images/1.png""></img></div></div></div>",1.0,stop,magnitude,stay,,529732,0.0,test_trial,166,stop-signal,
167,,,,,,,,,,,,,,,,,stop_signal_with_cued_task_switching,,,,,,,0.0-3.0-38.0,,,,,,,,,,,,,,529733,,set_stims,167,call-function,
168,,,,,,,,,500.0,,,,,,,,stop_signal_with_cued_task_switching,practice,,,,,,0.0-3.0-39.0,-1.0,none,,-1.0,,500.0,,<div class = upperbox><div class = fixation>+</div></div><div class = lowerbox><div class = fixation>+</div></div>,,,,,,530234,0.0,fixation,168,poldrack-single-stim,
169,150.0,350.0,400.0,,,,,,150.0,,,,Odd-Even,switch,0.0,10.0,stop_signal_with_cued_task_switching,practice,,,,,,0.0-3.0-40.0,-1.0,none,,-1.0,white,150.0,3.0,<div class = upperbox><div class = center-text>Odd-Even</div></div><div class = lowerbox><div class = fixation>+</div></div>,,go,parity,switch,,530385,0.0,cue,169,poldrack-single-stim,
170,150.0,350.0,400.0,400.0,500.0,"<div class = starbox><img class = star src=""/static/experiments/stop_signal_with_cued_task_switching/images/stop.png""></img></div>",go,,2000.0,True,90.0,0.0,Odd-Even,switch,0.0,10.0,stop_signal_with_cued_task_switching,test,,,,,,0.0-3.0-41.0,90.0,"[77, 90]",,680.0,white,1000.0,3.0,"<div class = upperbox><div class = center-text>Odd-Even</div></div><div class = lowerbox><div class = gng_number><div class = cue-text><img class = center src=""/static/experiments/stop_signal_with_cued_task_switching/images/3.png""></img></div></div></div>",,go,parity,switch,,532387,0.0,test_trial,170,stop-signal,
171,,,,,,,,,,,,,,,,,stop_signal_with_cued_task_switching,,,,,,,0.0-3.0-42.0,,,,,,,,,,,,,,532388,,set_stims,171,call-function,
172,,,,,,,,,500.0,,,,,,,,stop_signal_with_cued_task_switching,practice,,,,,,0.0-3.0-43.0,-1.0,none,,-1.0,,500.0,,<div class = upperbox><div class = fixation>+</div></div><div class = lowerbox><div class = fixation>+</div></div>,,,,,,532892,0.0,fixation,172,poldrack-single-stim,
173,150.0,350.0,400.0,,,,,,150.0,,,,Parity,switch,0.0,11.0,stop_signal_with_cued_task_switching,practice,,,,,,0.0-3.0-44.0,-1.0,none,,-1.0,white,150.0,7.0,<div class = upperbox><div class = center-text>Parity</div></div><div class = lowerbox><div class = fixation>+</div></div>,,stop,parity,stay,,533043,0.0,cue,173,poldrack-single-stim,
174,150.0,350.0,400.0,350.0,500.0,"<div class = starbox><img class = star src=""/static/experiments/stop_signal_with_cued_task_switching/images/stop.png""></img></div>",stop,,2000.0,True,-1.0,0.0,Parity,switch,0.0,11.0,stop_signal_with_cued_task_switching,test,,,,,,0.0-3.0-45.0,-1.0,"[77, 90]",,-1.0,white,1000.0,7.0,"<div class = upperbox><div class = center-text>Parity</div></div><div class = lowerbox><div class = gng_number><div class = cue-text><img class = center src=""/static/experiments/stop_signal_with_cued_task_switching/images/7.png""></img></div></div></div>",1.0,stop,parity,stay,,535045,0.0,test_trial,174,stop-signal,
175,,,,,,,,,,,,,,,,,stop_signal_with_cued_task_switching,,,,,,,0.0-3.0-46.0,,,,,,,,,,,,,,535046,,set_stims,175,call-function,
176,,,,,,,,,500.0,,,,,,,,stop_signal_with_cued_task_switching,practice,,,,,,0.0-3.0-47.0,-1.0,none,,-1.0,,500.0,,<div class = upperbox><div class = fixation>+</div></div><div class = lowerbox><div class = fixation>+</div></div>,,,,,,535547,0.0,fixation,176,poldrack-single-stim,
177,150.0,400.0,400.0,,,,,,150.0,,,,High-Low,switch,0.0,12.0,stop_signal_with_cued_task_switching,practice,,,,,,0.0-3.0-48.0,-1.0,none,,-1.0,white,150.0,6.0,<div class = upperbox><div class = center-text>High-Low</div></div><div class = lowerbox><div class = fixation>+</div></div>,,go,magnitude,switch,,535698,0.0,cue,177,poldrack-single-stim,
178,150.0,400.0,400.0,400.0,500.0,"<div class = starbox><img class = star src=""/static/experiments/stop_signal_with_cued_task_switching/images/stop.png""></img></div>",go,,2000.0,True,77.0,0.0,High-Low,switch,0.0,12.0,stop_signal_with_cued_task_switching,test,,,,,,0.0-3.0-49.0,77.0,"[77, 90]",,686.0,white,1000.0,6.0,"<div class = upperbox><div class = center-text>High-Low</div></div><div class = lowerbox><div class = gng_number><div class = cue-text><img class = center src=""/static/experiments/stop_signal_with_cued_task_switching/images/6.png""></img></div></div></div>",,go,magnitude,switch,,537700,0.0,test_trial,178,stop-signal,
179,,,,,,,,,,,,,,,,,stop_signal_with_cued_task_switching,,,,,,,0.0-3.0-50.0,,,,,,,,,,,,,,537701,,set_stims,179,call-function,
180,,,,,,,,,500.0,,,,,,,,stop_signal_with_cued_task_switching,practice,,,,,,0.0-3.0-51.0,-1.0,none,,-1.0,,500.0,,<div class = upperbox><div class = fixation>+</div></div><div class = lowerbox><div class = fixation>+</div></div>,,,,,,538202,0.0,fixation,180,poldrack-single-stim,
181,150.0,400.0,400.0,,,,,,150.0,,,,Parity,switch,0.0,13.0,stop_signal_with_cued_task_switching,practice,,,,,,0.0-3.0-52.0,-1.0,none,,-1.0,white,150.0,2.0,<div class = upperbox><div class = center-text>Parity</div></div><div class = lowerbox><div class = fixation>+</div></div>,,go,parity,switch,,538354,0.0,cue,181,poldrack-single-stim,
182,150.0,400.0,400.0,400.0,500.0,"<div class = starbox><img class = star src=""/static/experiments/stop_signal_with_cued_task_switching/images/stop.png""></img></div>",go,,2000.0,True,77.0,1.0,Parity,switch,0.0,13.0,stop_signal_with_cued_task_switching,test,,,,,,0.0-3.0-53.0,77.0,"[77, 90]",,958.0,white,1000.0,2.0,"<div class = upperbox><div class = center-text>Parity</div></div><div class = lowerbox><div class = gng_number><div class = cue-text><img class = center src=""/static/experiments/stop_signal_with_cued_task_switching/images/2.png""></img></div></div></div>",,go,parity,switch,,540355,0.0,test_trial,182,stop-signal,
183,,,,,,,,,,,,,,,,,stop_signal_with_cued_task_switching,,,,,,,0.0-3.0-54.0,,,,,,,,,,,,,,540356,,set_stims,183,call-function,
184,,,,,,,,,500.0,,,,,,,,stop_signal_with_cued_task_switching,practice,,,,,,0.0-3.0-55.0,-1.0,none,,-1.0,,500.0,,<div class = upperbox><div class = fixation>+</div></div><div class = lowerbox><div class = fixation>+</div></div>,,,,,,540857,0.0,fixation,184,poldrack-single-stim,
185,150.0,400.0,400.0,,,,,,150.0,,,,High-Low,switch,0.0,14.0,stop_signal_with_cued_task_switching,practice,,,,,,0.0-3.0-56.0,-1.0,none,,-1.0,white,150.0,7.0,<div class = upperbox><div class = center-text>High-Low</div></div><div class = lowerbox><div class = fixation>+</div></div>,,go,magnitude,switch,,541008,0.0,cue,185,poldrack-single-stim,
186,150.0,400.0,400.0,400.0,500.0,"<div class = starbox><img class = star src=""/static/experiments/stop_signal_with_cued_task_switching/images/stop.png""></img></div>",go,,2000.0,True,77.0,1.0,High-Low,switch,0.0,14.0,stop_signal_with_cued_task_switching,test,,,,,,0.0-3.0-57.0,77.0,"[77, 90]",,793.0,white,1000.0,7.0,"<div class = upperbox><div class = center-text>High-Low</div></div><div class = lowerbox><div class = gng_number><div class = cue-text><img class = center src=""/static/experiments/stop_signal_with_cued_task_switching/images/7.png""></img></div></div></div>",,go,magnitude,switch,,543010,0.0,test_trial,186,stop-signal,
187,,,,,,,,,,,,,,,,,stop_signal_with_cued_task_switching,,,,,,,0.0-3.0-58.0,,,,,,,,,,,,,,543011,,set_stims,187,call-function,
188,,,,,,,,,500.0,,,,,,,,stop_signal_with_cued_task_switching,practice,,,,,,0.0-3.0-59.0,-1.0,none,,-1.0,,500.0,,<div class = upperbox><div class = fixation>+</div></div><div class = lowerbox><div class = fixation>+</div></div>,,,,,,543512,0.0,fixation,188,poldrack-single-stim,
189,150.0,400.0,400.0,,,,,,150.0,,,,Magnitude,switch,0.0,15.0,stop_signal_with_cued_task_switching,practice,,,,,,0.0-3.0-60.0,-1.0,none,,-1.0,white,150.0,1.0,<div class = upperbox><div class = center-text>Magnitude</div></div><div class = lowerbox><div class = fixation>+</div></div>,,go,magnitude,stay,,543663,0.0,cue,189,poldrack-single-stim,
190,150.0,400.0,400.0,400.0,500.0,"<div class = starbox><img class = star src=""/static/experiments/stop_signal_with_cued_task_switching/images/stop.png""></img></div>",go,,2000.0,True,90.0,0.0,Magnitude,switch,0.0,15.0,stop_signal_with_cued_task_switching,test,,,,,,0.0-3.0-61.0,90.0,"[77, 90]",,1176.0,white,1000.0,1.0,"<div class = upperbox><div class = center-text>Magnitude</div></div><div class = lowerbox><div class = gng_number><div class = cue-text><img class = center src=""/static/experiments/stop_signal_with_cued_task_switching/images/1.png""></img></div></div></div>",,go,magnitude,stay,,545665,0.0,test_trial,190,stop-signal,
191,,,,,,,,,,,,,,,,,stop_signal_with_cued_task_switching,,,,,,,0.0-3.0-62.0,,,,,,,,,,,,,,545666,,set_stims,191,call-function,
192,,,,,,,,,500.0,,,,,,,,stop_signal_with_cued_task_switching,practice,,,,,,0.0-3.0-63.0,-1.0,none,,-1.0,,500.0,,<div class = upperbox><div class = fixation>+</div></div><div class = lowerbox><div class = fixation>+</div></div>,,,,,,546167,0.0,fixation,192,poldrack-single-stim,
193,150.0,400.0,400.0,,,,,,150.0,,,,Odd-Even,switch,0.0,16.0,stop_signal_with_cued_task_switching,practice,,,,,,0.0-3.0-64.0,-1.0,none,,-1.0,white,150.0,3.0,<div class = upperbox><div class = center-text>Odd-Even</div></div><div class = lowerbox><div class = fixation>+</div></div>,,stop,parity,switch,,546318,0.0,cue,193,poldrack-single-stim,
194,150.0,400.0,400.0,400.0,500.0,"<div class = starbox><img class = star src=""/static/experiments/stop_signal_with_cued_task_switching/images/stop.png""></img></div>",stop,,2000.0,True,-1.0,0.0,Odd-Even,switch,0.0,16.0,stop_signal_with_cued_task_switching,test,,,,,,0.0-3.0-65.0,-1.0,"[77, 90]",,-1.0,white,1000.0,3.0,"<div class = upperbox><div class = center-text>Odd-Even</div></div><div class = lowerbox><div class = gng_number><div class = cue-text><img class = center src=""/static/experiments/stop_signal_with_cued_task_switching/images/3.png""></img></div></div></div>",1.0,stop,parity,switch,,548320,0.0,test_trial,194,stop-signal,
195,,,,,,,,,,,,,,,,,stop_signal_with_cued_task_switching,,,,,,,0.0-3.0-66.0,,,,,,,,,,,,,,548321,,set_stims,195,call-function,
196,,,,,,,,,500.0,,,,,,,,stop_signal_with_cued_task_switching,practice,,,,,,0.0-3.0-67.0,-1.0,none,,-1.0,,500.0,,<div class = upperbox><div class = fixation>+</div></div><div class = lowerbox><div class = fixation>+</div></div>,,,,,,548822,0.0,fixation,196,poldrack-single-stim,
197,150.0,400.0,450.0,,,,,,150.0,,,,Odd-Even,stay,0.0,17.0,stop_signal_with_cued_task_switching,practice,,,,,,0.0-3.0-68.0,-1.0,none,,-1.0,white,150.0,6.0,<div class = upperbox><div class = center-text>Odd-Even</div></div><div class = lowerbox><div class = fixation>+</div></div>,,stop,parity,stay,,548974,0.0,cue,197,poldrack-single-stim,
198,150.0,400.0,450.0,400.0,500.0,"<div class = starbox><img class = star src=""/static/experiments/stop_signal_with_cued_task_switching/images/stop.png""></img></div>",stop,,2000.0,True,-1.0,1.0,Odd-Even,stay,0.0,17.0,stop_signal_with_cued_task_switching,test,,,,,,0.0-3.0-69.0,-1.0,"[77, 90]",,-1.0,white,1000.0,6.0,"<div class = upperbox><div class = center-text>Odd-Even</div></div><div class = lowerbox><div class = gng_number><div class = cue-text><img class = center src=""/static/experiments/stop_signal_with_cued_task_switching/images/6.png""></img></div></div></div>",1.0,stop,parity,stay,,550976,0.0,test_trial,198,stop-signal,
199,,,,,,,,,,,,,,,,,stop_signal_with_cued_task_switching,,,,,,,0.0-3.0-70.0,,,,,,,,,,,,,,550977,,set_stims,199,call-function,
200,,,,,,,,,500.0,,,,,,,,stop_signal_with_cued_task_switching,practice,,,,,,0.0-3.0-71.0,-1.0,none,,-1.0,,500.0,,<div class = upperbox><div class = fixation>+</div></div><div class = lowerbox><div class = fixation>+</div></div>,,,,,,551478,0.0,fixation,200,poldrack-single-stim,
201,150.0,450.0,450.0,,,,,,150.0,,,,High-Low,switch,0.0,18.0,stop_signal_with_cued_task_switching,practice,,,,,,0.0-3.0-72.0,-1.0,none,,-1.0,white,150.0,2.0,<div class = upperbox><div class = center-text>High-Low</div></div><div class = lowerbox><div class = fixation>+</div></div>,,stop,magnitude,switch,,551630,0.0,cue,201,poldrack-single-stim,
202,150.0,450.0,450.0,450.0,500.0,"<div class = starbox><img class = star src=""/static/experiments/stop_signal_with_cued_task_switching/images/stop.png""></img></div>",stop,,2000.0,True,-1.0,1.0,High-Low,switch,0.0,18.0,stop_signal_with_cued_task_switching,test,,,,,,0.0-3.0-73.0,-1.0,"[77, 90]",,-1.0,white,1000.0,2.0,"<div class = upperbox><div class = center-text>High-Low</div></div><div class = lowerbox><div class = gng_number><div class = cue-text><img class = center src=""/static/experiments/stop_signal_with_cued_task_switching/images/2.png""></img></div></div></div>",1.0,stop,magnitude,switch,,553632,0.0,test_trial,202,stop-signal,
203,,,,,,,,,,,,,,,,,stop_signal_with_cued_task_switching,,,,,,,0.0-3.0-74.0,,,,,,,,,,,,,,553633,,set_stims,203,call-function,
204,,,,,,,,,500.0,,,,,,,,stop_signal_with_cued_task_switching,practice,,,,,,0.0-3.0-75.0,-1.0,none,,-1.0,,500.0,,<div class = upperbox><div class = fixation>+</div></div><div class = lowerbox><div class = fixation>+</div></div>,,,,,,554136,0.0,fixation,204,poldrack-single-stim,
205,150.0,450.0,500.0,,,,,,150.0,,,,Odd-Even,switch,0.0,19.0,stop_signal_with_cued_task_switching,practice,,,,,,0.0-3.0-76.0,-1.0,none,,-1.0,white,150.0,8.0,<div class = upperbox><div class = center-text>Odd-Even</div></div><div class = lowerbox><div class = fixation>+</div></div>,,go,parity,switch,,554287,0.0,cue,205,poldrack-single-stim,
206,150.0,450.0,500.0,500.0,500.0,"<div class = starbox><img class = star src=""/static/experiments/stop_signal_with_cued_task_switching/images/stop.png""></img></div>",go,,2000.0,True,77.0,0.0,Odd-Even,switch,0.0,19.0,stop_signal_with_cued_task_switching,test,,,,,,0.0-3.0-77.0,77.0,"[77, 90]",,881.0,white,1000.0,8.0,"<div class = upperbox><div class = center-text>Odd-Even</div></div><div class = lowerbox><div class = gng_number><div class = cue-text><img class = center src=""/static/experiments/stop_signal_with_cued_task_switching/images/8.png""></img></div></div></div>",,go,parity,switch,,556290,0.0,test_trial,206,stop-signal,
207,,,,,,,,,,,,,,,,,stop_signal_with_cued_task_switching,,,,,,,0.0-3.0-78.0,,,,,,,,,,,,,,556293,,set_stims,207,call-function,
208,,,,,,,,,500.0,,,,,,,,stop_signal_with_cued_task_switching,practice,,,,,,0.0-3.0-79.0,-1.0,none,,-1.0,,500.0,,<div class = upperbox><div class = fixation>+</div></div><div class = lowerbox><div class = fixation>+</div></div>,,,,,,556794,0.0,fixation,208,poldrack-single-stim,
209,150.0,450.0,500.0,,,,,,150.0,,,,Magnitude,switch,0.0,20.0,stop_signal_with_cued_task_switching,practice,,,,,,0.0-3.0-80.0,-1.0,none,,-1.0,white,150.0,9.0,<div class = upperbox><div class = center-text>Magnitude</div></div><div class = lowerbox><div class = fixation>+</div></div>,,stop,magnitude,switch,,556945,0.0,cue,209,poldrack-single-stim,
210,150.0,450.0,500.0,500.0,500.0,"<div class = starbox><img class = star src=""/static/experiments/stop_signal_with_cued_task_switching/images/stop.png""></img></div>",stop,,2000.0,False,-1.0,1.0,Magnitude,switch,0.0,20.0,stop_signal_with_cued_task_switching,test,,,,,,0.0-3.0-81.0,77.0,"[77, 90]",,591.0,white,1000.0,9.0,"<div class = upperbox><div class = center-text>Magnitude</div></div><div class = lowerbox><div class = gng_number><div class = cue-text><img class = center src=""/static/experiments/stop_signal_with_cued_task_switching/images/9.png""></img></div></div></div>",0.0,stop,magnitude,switch,,558947,0.0,test_trial,210,stop-signal,
211,,,,,,,,,,,,,,,,,stop_signal_with_cued_task_switching,,,,,,,0.0-3.0-82.0,,,,,,,,,,,,,,558950,,set_stims,211,call-function,
212,,,,,,,,,500.0,,,,,,,,stop_signal_with_cued_task_switching,practice,,,,,,0.0-3.0-83.0,-1.0,none,,-1.0,,500.0,,<div class = upperbox><div class = fixation>+</div></div><div class = lowerbox><div class = fixation>+</div></div>,,,,,,559454,0.0,fixation,212,poldrack-single-stim,
213,150.0,450.0,450.0,,,,,,150.0,,,,Magnitude,stay,0.0,21.0,stop_signal_with_cued_task_switching,practice,,,,,,0.0-3.0-84.0,-1.0,none,,-1.0,white,150.0,8.0,<div class = upperbox><div class = center-text>Magnitude</div></div><div class = lowerbox><div class = fixation>+</div></div>,,go,magnitude,stay,,559605,0.0,cue,213,poldrack-single-stim,
214,150.0,450.0,450.0,450.0,500.0,"<div class = starbox><img class = star src=""/static/experiments/stop_signal_with_cued_task_switching/images/stop.png""></img></div>",go,,2000.0,True,77.0,0.0,Magnitude,stay,0.0,21.0,stop_signal_with_cued_task_switching,test,,,,,,0.0-3.0-85.0,77.0,"[77, 90]",,515.0,white,1000.0,8.0,"<div class = upperbox><div class = center-text>Magnitude</div></div><div class = lowerbox><div class = gng_number><div class = cue-text><img class = center src=""/static/experiments/stop_signal_with_cued_task_switching/images/8.png""></img></div></div></div>",,go,magnitude,stay,,561607,0.0,test_trial,214,stop-signal,
215,,,,,,,,,,,,,,,,,stop_signal_with_cued_task_switching,,,,,,,0.0-3.0-86.0,,,,,,,,,,,,,,561608,,set_stims,215,call-function,
216,,,,,,,,,500.0,,,,,,,,stop_signal_with_cued_task_switching,practice,,,,,,0.0-3.0-87.0,-1.0,none,,-1.0,,500.0,,<div class = upperbox><div class = fixation>+</div></div><div class = lowerbox><div class = fixation>+</div></div>,,,,,,562109,0.0,fixation,216,poldrack-single-stim,
217,150.0,450.0,450.0,,,,,,150.0,,,,High-Low,switch,0.0,22.0,stop_signal_with_cued_task_switching,practice,,,,,,0.0-3.0-88.0,-1.0,none,,-1.0,white,150.0,6.0,<div class = upperbox><div class = center-text>High-Low</div></div><div class = lowerbox><div class = fixation>+</div></div>,,go,magnitude,stay,,562260,0.0,cue,217,poldrack-single-stim,
218,150.0,450.0,450.0,450.0,500.0,"<div class = starbox><img class = star src=""/static/experiments/stop_signal_with_cued_task_switching/images/stop.png""></img></div>",go,,2000.0,True,77.0,1.0,High-Low,switch,0.0,22.0,stop_signal_with_cued_task_switching,test,,,,,,0.0-3.0-89.0,77.0,"[77, 90]",,579.0,white,1000.0,6.0,"<div class = upperbox><div class = center-text>High-Low</div></div><div class = lowerbox><div class = gng_number><div class = cue-text><img class = center src=""/static/experiments/stop_signal_with_cued_task_switching/images/6.png""></img></div></div></div>",,go,magnitude,stay,,564262,0.0,test_trial,218,stop-signal,
219,,,,,,,,,,,,,,,,,stop_signal_with_cued_task_switching,,,,,,,0.0-3.0-90.0,,,,,,,,,,,,,,564263,,set_stims,219,call-function,
220,,,,,,,,,500.0,,,,,,,,stop_signal_with_cued_task_switching,practice,,,,,,0.0-3.0-91.0,-1.0,none,,-1.0,,500.0,,<div class = upperbox><div class = fixation>+</div></div><div class = lowerbox><div class = fixation>+</div></div>,,,,,,564764,0.0,fixation,220,poldrack-single-stim,
221,150.0,450.0,450.0,,,,,,150.0,,,,Odd-Even,switch,0.0,23.0,stop_signal_with_cued_task_switching,practice,,,,,,0.0-3.0-92.0,-1.0,none,,-1.0,white,150.0,1.0,<div class = upperbox><div class = center-text>Odd-Even</div></div><div class = lowerbox><div class = fixation>+</div></div>,,stop,parity,switch,,564915,0.0,cue,221,poldrack-single-stim,
222,150.0,450.0,450.0,450.0,500.0,"<div class = starbox><img class = star src=""/static/experiments/stop_signal_with_cued_task_switching/images/stop.png""></img></div>",stop,,2000.0,False,-1.0,0.0,Odd-Even,switch,0.0,23.0,stop_signal_with_cued_task_switching,test,,,,,,0.0-3.0-93.0,90.0,"[77, 90]",,637.0,white,1000.0,1.0,"<div class = upperbox><div class = center-text>Odd-Even</div></div><div class = lowerbox><div class = gng_number><div class = cue-text><img class = center src=""/static/experiments/stop_signal_with_cued_task_switching/images/1.png""></img></div></div></div>",0.0,stop,parity,switch,,566916,0.0,test_trial,222,stop-signal,
223,,,,,,,,,,,,,,,,,stop_signal_with_cued_task_switching,,,,,,,0.0-3.0-94.0,,,,,,,,,,,,,,566921,,set_stims,223,call-function,
224,,,,,,,,,500.0,,,,,,,,stop_signal_with_cued_task_switching,practice,,,,,,0.0-3.0-95.0,-1.0,none,,-1.0,,500.0,,<div class = upperbox><div class = fixation>+</div></div><div class = lowerbox><div class = fixation>+</div></div>,,,,,,567422,0.0,fixation,224,poldrack-single-stim,
225,150.0,450.0,400.0,,,,,,150.0,,,,High-Low,switch,0.0,24.0,stop_signal_with_cued_task_switching,practice,,,,,,0.0-3.0-96.0,-1.0,none,,-1.0,white,150.0,2.0,<div class = upperbox><div class = center-text>High-Low</div></div><div class = lowerbox><div class = fixation>+</div></div>,,go,magnitude,switch,,567576,0.0,cue,225,poldrack-single-stim,
226,150.0,450.0,400.0,400.0,500.0,"<div class = starbox><img class = star src=""/static/experiments/stop_signal_with_cued_task_switching/images/stop.png""></img></div>",go,,2000.0,True,90.0,0.0,High-Low,switch,0.0,24.0,stop_signal_with_cued_task_switching,test,,,,,,0.0-3.0-97.0,90.0,"[77, 90]",,855.0,white,1000.0,2.0,"<div class = upperbox><div class = center-text>High-Low</div></div><div class = lowerbox><div class = gng_number><div class = cue-text><img class = center src=""/static/experiments/stop_signal_with_cued_task_switching/images/2.png""></img></div></div></div>",,go,magnitude,switch,,569578,0.0,test_trial,226,stop-signal,
227,,,,,,,,,,,,,,,,,stop_signal_with_cued_task_switching,,,,,,,0.0-3.0-98.0,,,,,,,,,,,,,,569579,,set_stims,227,call-function,
228,,,,,,,,,500.0,,,,,,,,stop_signal_with_cued_task_switching,practice,,,,,,0.0-3.0-99.0,-1.0,none,,-1.0,,500.0,,<div class = upperbox><div class = fixation>+</div></div><div class = lowerbox><div class = fixation>+</div></div>,,,,,,570080,0.0,fixation,228,poldrack-single-stim,
229,150.0,450.0,400.0,,,,,,150.0,,,,Odd-Even,switch,0.0,25.0,stop_signal_with_cued_task_switching,practice,,,,,,0.0-3.0-100.0,-1.0,none,,-1.0,white,150.0,9.0,<div class = upperbox><div class = center-text>Odd-Even</div></div><div class = lowerbox><div class = fixation>+</div></div>,,go,parity,switch,,570231,0.0,cue,229,poldrack-single-stim,
230,150.0,450.0,400.0,400.0,500.0,"<div class = starbox><img class = star src=""/static/experiments/stop_signal_with_cued_task_switching/images/stop.png""></img></div>",go,,2000.0,True,90.0,1.0,Odd-Even,switch,0.0,25.0,stop_signal_with_cued_task_switching,test,,,,,,0.0-3.0-101.0,90.0,"[77, 90]",,745.0,white,1000.0,9.0,"<div class = upperbox><div class = center-text>Odd-Even</div></div><div class = lowerbox><div class = gng_number><div class = cue-text><img class = center src=""/static/experiments/stop_signal_with_cued_task_switching/images/9.png""></img></div></div></div>",,go,parity,switch,,572234,0.0,test_trial,230,stop-signal,
231,,,,,,,,,,,,,,,,,stop_signal_with_cued_task_switching,,,,,,,0.0-3.0-102.0,,,,,,,,,,,,,,572235,,set_stims,231,call-function,
232,,,,,,,,,500.0,,,,,,,,stop_signal_with_cued_task_switching,practice,,,,,,0.0-3.0-103.0,-1.0,none,,-1.0,,500.0,,<div class = upperbox><div class = fixation>+</div></div><div class = lowerbox><div class = fixation>+</div></div>,,,,,,572739,0.0,fixation,232,poldrack-single-stim,
233,150.0,450.0,400.0,,,,,,150.0,,,,Magnitude,switch,0.0,26.0,stop_signal_with_cued_task_switching,practice,,,,,,0.0-3.0-104.0,-1.0,none,,-1.0,white,150.0,8.0,<div class = upperbox><div class = center-text>Magnitude</div></div><div class = lowerbox><div class = fixation>+</div></div>,,go,magnitude,switch,,572890,0.0,cue,233,poldrack-single-stim,
234,150.0,450.0,400.0,400.0,500.0,"<div class = starbox><img class = star src=""/static/experiments/stop_signal_with_cued_task_switching/images/stop.png""></img></div>",go,,2000.0,True,77.0,0.0,Magnitude,switch,0.0,26.0,stop_signal_with_cued_task_switching,test,,,,,,0.0-3.0-105.0,77.0,"[77, 90]",,670.0,white,1000.0,8.0,"<div class = upperbox><div class = center-text>Magnitude</div></div><div class = lowerbox><div class = gng_number><div class = cue-text><img class = center src=""/static/experiments/stop_signal_with_cued_task_switching/images/8.png""></img></div></div></div>",,go,magnitude,switch,,574892,0.0,test_trial,234,stop-signal,
235,,,,,,,,,,,,,,,,,stop_signal_with_cued_task_switching,,,,,,,0.0-3.0-106.0,,,,,,,,,,,,,,574893,,set_stims,235,call-function,
236,,,,,,,,,500.0,,,,,,,,stop_signal_with_cued_task_switching,practice,,,,,,0.0-3.0-107.0,-1.0,none,,-1.0,,500.0,,<div class = upperbox><div class = fixation>+</div></div><div class = lowerbox><div class = fixation>+</div></div>,,,,,,575395,0.0,fixation,236,poldrack-single-stim,
237,150.0,450.0,400.0,,,,,,150.0,,,,High-Low,switch,0.0,27.0,stop_signal_with_cued_task_switching,practice,,,,,,0.0-3.0-108.0,-1.0,none,,-1.0,white,150.0,8.0,<div class = upperbox><div class = center-text>High-Low</div></div><div class = lowerbox><div class = fixation>+</div></div>,,go,magnitude,stay,,575546,0.0,cue,237,poldrack-single-stim,
238,150.0,450.0,400.0,450.0,500.0,"<div class = starbox><img class = star src=""/static/experiments/stop_signal_with_cued_task_switching/images/stop.png""></img></div>",go,,2000.0,True,77.0,1.0,High-Low,switch,0.0,27.0,stop_signal_with_cued_task_switching,test,,,,,,0.0-3.0-109.0,77.0,"[77, 90]",,695.0,white,1000.0,8.0,"<div class = upperbox><div class = center-text>High-Low</div></div><div class = lowerbox><div class = gng_number><div class = cue-text><img class = center src=""/static/experiments/stop_signal_with_cued_task_switching/images/8.png""></img></div></div></div>",,go,magnitude,stay,,577548,0.0,test_trial,238,stop-signal,
239,,,,,,,,,,,,,,,,,stop_signal_with_cued_task_switching,,,,,,,0.0-3.0-110.0,,,,,,,,,,,,,,577550,,set_stims,239,call-function,
240,,,,,,,,,500.0,,,,,,,,stop_signal_with_cued_task_switching,practice,,,,,,0.0-3.0-111.0,-1.0,none,,-1.0,,500.0,,<div class = upperbox><div class = fixation>+</div></div><div class = lowerbox><div class = fixation>+</div></div>,,,,,,578053,0.0,fixation,240,poldrack-single-stim,
241,150.0,450.0,400.0,,,,,,150.0,,,,Odd-Even,switch,0.0,28.0,stop_signal_with_cued_task_switching,practice,,,,,,0.0-3.0-112.0,-1.0,none,,-1.0,white,150.0,9.0,<div class = upperbox><div class = center-text>Odd-Even</div></div><div class = lowerbox><div class = fixation>+</div></div>,,go,parity,switch,,578204,0.0,cue,241,poldrack-single-stim,
242,150.0,450.0,400.0,400.0,500.0,"<div class = starbox><img class = star src=""/static/experiments/stop_signal_with_cued_task_switching/images/stop.png""></img></div>",go,,2000.0,True,90.0,0.0,Odd-Even,switch,0.0,28.0,stop_signal_with_cued_task_switching,test,,,,,,0.0-3.0-113.0,90.0,"[77, 90]",,668.0,white,1000.0,9.0,"<div class = upperbox><div class = center-text>Odd-Even</div></div><div class = lowerbox><div class = gng_number><div class = cue-text><img class = center src=""/static/experiments/stop_signal_with_cued_task_switching/images/9.png""></img></div></div></div>",,go,parity,switch,,580205,0.0,test_trial,242,stop-signal,
243,,,,,,,,,,,,,,,,,stop_signal_with_cued_task_switching,,,,,,,0.0-3.0-114.0,,,,,,,,,,,,,,580206,,set_stims,243,call-function,
244,,,,,,,,,500.0,,,,,,,,stop_signal_with_cued_task_switching,practice,,,,,,0.0-3.0-115.0,-1.0,none,,-1.0,,500.0,,<div class = upperbox><div class = fixation>+</div></div><div class = lowerbox><div class = fixation>+</div></div>,,,,,,580707,0.0,fixation,244,poldrack-single-stim,
245,150.0,450.0,400.0,,,,,,150.0,,,,Parity,switch,0.0,29.0,stop_signal_with_cued_task_switching,practice,,,,,,0.0-3.0-116.0,-1.0,none,,-1.0,white,150.0,3.0,<div class = upperbox><div class = center-text>Parity</div></div><div class = lowerbox><div class = fixation>+</div></div>,,go,parity,stay,,580859,0.0,cue,245,poldrack-single-stim,
246,150.0,450.0,400.0,450.0,500.0,"<div class = starbox><img class = star src=""/static/experiments/stop_signal_with_cued_task_switching/images/stop.png""></img></div>",go,,2000.0,True,90.0,1.0,Parity,switch,0.0,29.0,stop_signal_with_cued_task_switching,test,,,,,,0.0-3.0-117.0,90.0,"[77, 90]",,546.0,white,1000.0,3.0,"<div class = upperbox><div class = center-text>Parity</div></div><div class = lowerbox><div class = gng_number><div class = cue-text><img class = center src=""/static/experiments/stop_signal_with_cued_task_switching/images/3.png""></img></div></div></div>",,go,parity,stay,,582864,0.0,test_trial,246,stop-signal,
247,,,,,,,,,,,,,,,,,stop_signal_with_cued_task_switching,,,,,,,0.0-3.0-118.0,,,,,,,,,,,,,,582865,,set_stims,247,call-function,
248,,,,,,,,,500.0,,,,,,,,stop_signal_with_cued_task_switching,practice,,,,,,0.0-3.0-119.0,-1.0,none,,-1.0,,500.0,,<div class = upperbox><div class = fixation>+</div></div><div class = lowerbox><div class = fixation>+</div></div>,,,,,,583366,0.0,fixation,248,poldrack-single-stim,
249,150.0,450.0,400.0,,,,,,150.0,,,,High-Low,switch,0.0,30.0,stop_signal_with_cued_task_switching,practice,,,,,,0.0-3.0-120.0,-1.0,none,,-1.0,white,150.0,4.0,<div class = upperbox><div class = center-text>High-Low</div></div><div class = lowerbox><div class = fixation>+</div></div>,,stop,magnitude,switch,,583517,0.0,cue,249,poldrack-single-stim,
250,150.0,450.0,400.0,400.0,500.0,"<div class = starbox><img class = star src=""/static/experiments/stop_signal_with_cued_task_switching/images/stop.png""></img></div>",stop,,2000.0,True,-1.0,0.0,High-Low,switch,0.0,30.0,stop_signal_with_cued_task_switching,test,,,,,,0.0-3.0-121.0,-1.0,"[77, 90]",,-1.0,white,1000.0,4.0,"<div class = upperbox><div class = center-text>High-Low</div></div><div class = lowerbox><div class = gng_number><div class = cue-text><img class = center src=""/static/experiments/stop_signal_with_cued_task_switching/images/4.png""></img></div></div></div>",1.0,stop,magnitude,switch,,585519,0.0,test_trial,250,stop-signal,
251,,,,,,,,,,,,,,,,,stop_signal_with_cued_task_switching,,,,,,,0.0-3.0-122.0,,,,,,,,,,,,,,585520,,set_stims,251,call-function,
252,,,,,,,,,500.0,,,,,,,,stop_signal_with_cued_task_switching,practice,,,,,,0.0-3.0-123.0,-1.0,none,,-1.0,,500.0,,<div class = upperbox><div class = fixation>+</div></div><div class = lowerbox><div class = fixation>+</div></div>,,,,,,586021,0.0,fixation,252,poldrack-single-stim,
253,150.0,450.0,450.0,,,,,,150.0,,,,Magnitude,switch,0.0,31.0,stop_signal_with_cued_task_switching,practice,,,,,,0.0-3.0-124.0,-1.0,none,,-1.0,white,150.0,9.0,<div class = upperbox><div class = center-text>Magnitude</div></div><div class = lowerbox><div class = fixation>+</div></div>,,go,magnitude,stay,,586172,0.0,cue,253,poldrack-single-stim,
254,150.0,450.0,450.0,450.0,500.0,"<div class = starbox><img class = star src=""/static/experiments/stop_signal_with_cued_task_switching/images/stop.png""></img></div>",go,,2000.0,True,77.0,0.0,Magnitude,switch,0.0,31.0,stop_signal_with_cued_task_switching,test,,,,,,0.0-3.0-125.0,77.0,"[77, 90]",,619.0,white,1000.0,9.0,"<div class = upperbox><div class = center-text>Magnitude</div></div><div class = lowerbox><div class = gng_number><div class = cue-text><img class = center src=""/static/experiments/stop_signal_with_cued_task_switching/images/9.png""></img></div></div></div>",,go,magnitude,stay,,588174,0.0,test_trial,254,stop-signal,
255,,,,,,,,,,,,,,,,,stop_signal_with_cued_task_switching,,,,,,,0.0-3.0-126.0,,,,,,,,,,,,,,588175,,set_stims,255,call-function,
256,,,,,,,,,500.0,,,,,,,,stop_signal_with_cued_task_switching,practice,,,,,,0.0-3.0-127.0,-1.0,none,,-1.0,,500.0,,<div class = upperbox><div class = fixation>+</div></div><div class = lowerbox><div class = fixation>+</div></div>,,,,,,588676,0.0,fixation,256,poldrack-single-stim,
257,150.0,450.0,450.0,,,,,,150.0,,,,Odd-Even,switch,0.0,32.0,stop_signal_with_cued_task_switching,practice,,,,,,0.0-3.0-128.0,-1.0,none,,-1.0,white,150.0,4.0,<div class = upperbox><div class = center-text>Odd-Even</div></div><div class = lowerbox><div class = fixation>+</div></div>,,go,parity,switch,,588827,0.0,cue,257,poldrack-single-stim,
258,150.0,450.0,450.0,450.0,500.0,"<div class = starbox><img class = star src=""/static/experiments/stop_signal_with_cued_task_switching/images/stop.png""></img></div>",go,,2000.0,True,77.0,1.0,Odd-Even,switch,0.0,32.0,stop_signal_with_cued_task_switching,test,,,,,,0.0-3.0-129.0,77.0,"[77, 90]",,733.0,white,1000.0,4.0,"<div class = upperbox><div class = center-text>Odd-Even</div></div><div class = lowerbox><div class = gng_number><div class = cue-text><img class = center src=""/static/experiments/stop_signal_with_cued_task_switching/images/4.png""></img></div></div></div>",,go,parity,switch,,590829,0.0,test_trial,258,stop-signal,
259,,,,,,,,,,,,,,,,,stop_signal_with_cued_task_switching,,,,,,,0.0-3.0-130.0,,,,,,,,,,,,,,590830,,set_stims,259,call-function,
260,,,,,,,,,500.0,,,,,,,,stop_signal_with_cued_task_switching,practice,,,,,,0.0-3.0-131.0,-1.0,none,,-1.0,,500.0,,<div class = upperbox><div class = fixation>+</div></div><div class = lowerbox><div class = fixation>+</div></div>,,,,,,591331,0.0,fixation,260,poldrack-single-stim,
261,150.0,450.0,450.0,,,,,,150.0,,,,Magnitude,switch,0.0,33.0,stop_signal_with_cued_task_switching,practice,,,,,,0.0-3.0-132.0,-1.0,none,,-1.0,white,150.0,4.0,<div class = upperbox><div class = center-text>Magnitude</div></div><div class = lowerbox><div class = fixation>+</div></div>,,go,magnitude,switch,,591482,0.0,cue,261,poldrack-single-stim,
262,150.0,450.0,450.0,450.0,500.0,"<div class = starbox><img class = star src=""/static/experiments/stop_signal_with_cued_task_switching/images/stop.png""></img></div>",go,,2000.0,False,90.0,1.0,Magnitude,switch,0.0,33.0,stop_signal_with_cued_task_switching,test,,,,,,0.0-3.0-133.0,77.0,"[77, 90]",,669.0,white,1000.0,4.0,"<div class = upperbox><div class = center-text>Magnitude</div></div><div class = lowerbox><div class = gng_number><div class = cue-text><img class = center src=""/static/experiments/stop_signal_with_cued_task_switching/images/4.png""></img></div></div></div>",,go,magnitude,switch,,593484,0.0,test_trial,262,stop-signal,
263,,,,,,,,,,,,,,,,,stop_signal_with_cued_task_switching,,,,,,,0.0-3.0-134.0,,,,,,,,,,,,,,593485,,set_stims,263,call-function,
264,,,,,,,,,500.0,,,,,,,,stop_signal_with_cued_task_switching,practice,,,,,,0.0-3.0-135.0,-1.0,none,,-1.0,,500.0,,<div class = upperbox><div class = fixation>+</div></div><div class = lowerbox><div class = fixation>+</div></div>,,,,,,593986,0.0,fixation,264,poldrack-single-stim,
265,150.0,450.0,450.0,,,,,,150.0,,,,High-Low,switch,0.0,34.0,stop_signal_with_cued_task_switching,practice,,,,,,0.0-3.0-136.0,-1.0,none,,-1.0,white,150.0,7.0,<div class = upperbox><div class = center-text>High-Low</div></div><div class = lowerbox><div class = fixation>+</div></div>,,go,magnitude,stay,,594137,0.0,cue,265,poldrack-single-stim,
266,150.0,450.0,450.0,450.0,500.0,"<div class = starbox><img class = star src=""/static/experiments/stop_signal_with_cued_task_switching/images/stop.png""></img></div>",go,,2000.0,True,77.0,0.0,High-Low,switch,0.0,34.0,stop_signal_with_cued_task_switching,test,,,,,,0.0-3.0-137.0,77.0,"[77, 90]",,703.0,white,1000.0,7.0,"<div class = upperbox><div class = center-text>High-Low</div></div><div class = lowerbox><div class = gng_number><div class = cue-text><img class = center src=""/static/experiments/stop_signal_with_cued_task_switching/images/7.png""></img></div></div></div>",,go,magnitude,stay,,596139,0.0,test_trial,266,stop-signal,
267,,,,,,,,,,,,,,,,,stop_signal_with_cued_task_switching,,,,,,,0.0-3.0-138.0,,,,,,,,,,,,,,596140,,set_stims,267,call-function,
268,,,,,,,,,500.0,,,,,,,,stop_signal_with_cued_task_switching,practice,,,,,,0.0-3.0-139.0,-1.0,none,,-1.0,,500.0,,<div class = upperbox><div class = fixation>+</div></div><div class = lowerbox><div class = fixation>+</div></div>,,,,,,596641,0.0,fixation,268,poldrack-single-stim,
269,150.0,450.0,450.0,,,,,,150.0,,,,Odd-Even,switch,0.0,35.0,stop_signal_with_cued_task_switching,practice,,,,,,0.0-3.0-140.0,-1.0,none,,-1.0,white,150.0,1.0,<div class = upperbox><div class = center-text>Odd-Even</div></div><div class = lowerbox><div class = fixation>+</div></div>,,go,parity,switch,,596792,0.0,cue,269,poldrack-single-stim,
270,150.0,450.0,450.0,450.0,500.0,"<div class = starbox><img class = star src=""/static/experiments/stop_signal_with_cued_task_switching/images/stop.png""></img></div>",go,,2000.0,True,90.0,0.0,Odd-Even,switch,0.0,35.0,stop_signal_with_cued_task_switching,test,,,,,,0.0-3.0-141.0,90.0,"[77, 90]",,640.0,white,1000.0,1.0,"<div class = upperbox><div class = center-text>Odd-Even</div></div><div class = lowerbox><div class = gng_number><div class = cue-text><img class = center src=""/static/experiments/stop_signal_with_cued_task_switching/images/1.png""></img></div></div></div>",,go,parity,switch,,598794,0.0,test_trial,270,stop-signal,
271,,,,,,,,,,,,,,,,,stop_signal_with_cued_task_switching,,,,,,,0.0-3.0-142.0,,,,,,,,,,,,,,598795,,set_stims,271,call-function,
272,,,,,,,,,500.0,,,,,,,,stop_signal_with_cued_task_switching,practice,,,,,,0.0-3.0-143.0,-1.0,none,,-1.0,,500.0,,<div class = upperbox><div class = fixation>+</div></div><div class = lowerbox><div class = fixation>+</div></div>,,,,,,599298,0.0,fixation,272,poldrack-single-stim,
273,150.0,450.0,450.0,,,,,,150.0,,,,Odd-Even,stay,0.0,36.0,stop_signal_with_cued_task_switching,practice,,,,,,0.0-3.0-144.0,-1.0,none,,-1.0,white,150.0,3.0,<div class = upperbox><div class = center-text>Odd-Even</div></div><div class = lowerbox><div class = fixation>+</div></div>,,go,parity,stay,,599449,0.0,cue,273,poldrack-single-stim,
274,150.0,450.0,450.0,450.0,500.0,"<div class = starbox><img class = star src=""/static/experiments/stop_signal_with_cued_task_switching/images/stop.png""></img></div>",go,,2000.0,True,90.0,1.0,Odd-Even,stay,0.0,36.0,stop_signal_with_cued_task_switching,test,,,,,,0.0-3.0-145.0,90.0,"[77, 90]",,710.0,white,1000.0,3.0,"<div class = upperbox><div class = center-text>Odd-Even</div></div><div class = lowerbox><div class = gng_number><div class = cue-text><img class = center src=""/static/experiments/stop_signal_with_cued_task_switching/images/3.png""></img></div></div></div>",,go,parity,stay,,601451,0.0,test_trial,274,stop-signal,
275,,,,,,,,,,,,,,,,,stop_signal_with_cued_task_switching,,,,,,,0.0-3.0-146.0,,,,,,,,,,,,,,601458,,set_stims,275,call-function,
276,,,,,,,,,500.0,,,,,,,,stop_signal_with_cued_task_switching,practice,,,,,,0.0-3.0-147.0,-1.0,none,,-1.0,,500.0,,<div class = upperbox><div class = fixation>+</div></div><div class = lowerbox><div class = fixation>+</div></div>,,,,,,601960,0.0,fixation,276,poldrack-single-stim,
277,150.0,450.0,450.0,,,,,,150.0,,,,Odd-Even,stay,0.0,37.0,stop_signal_with_cued_task_switching,practice,,,,,,0.0-3.0-148.0,-1.0,none,,-1.0,white,150.0,8.0,<div class = upperbox><div class = center-text>Odd-Even</div></div><div class = lowerbox><div class = fixation>+</div></div>,,stop,parity,stay,,602114,0.0,cue,277,poldrack-single-stim,
278,150.0,450.0,450.0,450.0,500.0,"<div class = starbox><img class = star src=""/static/experiments/stop_signal_with_cued_task_switching/images/stop.png""></img></div>",stop,,2000.0,True,-1.0,0.0,Odd-Even,stay,0.0,37.0,stop_signal_with_cued_task_switching,test,,,,,,0.0-3.0-149.0,-1.0,"[77, 90]",,-1.0,white,1000.0,8.0,"<div class = upperbox><div class = center-text>Odd-Even</div></div><div class = lowerbox><div class = gng_number><div class = cue-text><img class = center src=""/static/experiments/stop_signal_with_cued_task_switching/images/8.png""></img></div></div></div>",1.0,stop,parity,stay,,604117,0.0,test_trial,278,stop-signal,
279,,,,,,,,,,,,,,,,,stop_signal_with_cued_task_switching,,,,,,,0.0-3.0-150.0,,,,,,,,,,,,,,604118,,set_stims,279,call-function,
280,,,,,,,,,500.0,,,,,,,,stop_signal_with_cued_task_switching,practice,,,,,,0.0-3.0-151.0,-1.0,none,,-1.0,,500.0,,<div class = upperbox><div class = fixation>+</div></div><div class = lowerbox><div class = fixation>+</div></div>,,,,,,604622,0.0,fixation,280,poldrack-single-stim,
281,150.0,500.0,450.0,,,,,,150.0,,,,Odd-Even,stay,0.0,38.0,stop_signal_with_cued_task_switching,practice,,,,,,0.0-3.0-152.0,-1.0,none,,-1.0,white,150.0,8.0,<div class = upperbox><div class = center-text>Odd-Even</div></div><div class = lowerbox><div class = fixation>+</div></div>,,go,parity,stay,,604773,0.0,cue,281,poldrack-single-stim,
282,150.0,500.0,450.0,500.0,500.0,"<div class = starbox><img class = star src=""/static/experiments/stop_signal_with_cued_task_switching/images/stop.png""></img></div>",go,,2000.0,True,77.0,0.0,Odd-Even,stay,0.0,38.0,stop_signal_with_cued_task_switching,test,,,,,,0.0-3.0-153.0,77.0,"[77, 90]",,731.0,white,1000.0,8.0,"<div class = upperbox><div class = center-text>Odd-Even</div></div><div class = lowerbox><div class = gng_number><div class = cue-text><img class = center src=""/static/experiments/stop_signal_with_cued_task_switching/images/8.png""></img></div></div></div>",,go,parity,stay,,606775,0.0,test_trial,282,stop-signal,
283,,,,,,,,,,,,,,,,,stop_signal_with_cued_task_switching,,,,,,,0.0-3.0-154.0,,,,,,,,,,,,,,606776,,set_stims,283,call-function,
284,,,,,,,,,500.0,,,,,,,,stop_signal_with_cued_task_switching,practice,,,,,,0.0-3.0-155.0,-1.0,none,,-1.0,,500.0,,<div class = upperbox><div class = fixation>+</div></div><div class = lowerbox><div class = fixation>+</div></div>,,,,,,607278,0.0,fixation,284,poldrack-single-stim,
285,150.0,500.0,450.0,,,,,,150.0,,,,Magnitude,switch,0.0,39.0,stop_signal_with_cued_task_switching,practice,,,,,,0.0-3.0-156.0,-1.0,none,,-1.0,white,150.0,8.0,<div class = upperbox><div class = center-text>Magnitude</div></div><div class = lowerbox><div class = fixation>+</div></div>,,stop,magnitude,switch,,607431,0.0,cue,285,poldrack-single-stim,
286,150.0,500.0,450.0,450.0,500.0,"<div class = starbox><img class = star src=""/static/experiments/stop_signal_with_cued_task_switching/images/stop.png""></img></div>",stop,,2000.0,False,-1.0,1.0,Magnitude,switch,0.0,39.0,stop_signal_with_cued_task_switching,test,,,,,,0.0-3.0-157.0,77.0,"[77, 90]",,626.0,white,1000.0,8.0,"<div class = upperbox><div class = center-text>Magnitude</div></div><div class = lowerbox><div class = gng_number><div class = cue-text><img class = center src=""/static/experiments/stop_signal_with_cued_task_switching/images/8.png""></img></div></div></div>",0.0,stop,magnitude,switch,,609432,0.0,test_trial,286,stop-signal,
287,,,,,,,,,,,,,,,,,stop_signal_with_cued_task_switching,,,,,,,0.0-3.0-158.0,,,,,,,,,,,,,,609433,,set_stims,287,call-function,
288,,,,,,,,,500.0,,,,,,,,stop_signal_with_cued_task_switching,practice,,,,,,0.0-3.0-159.0,-1.0,none,,-1.0,,500.0,,<div class = upperbox><div class = fixation>+</div></div><div class = lowerbox><div class = fixation>+</div></div>,,,,,,609934,0.0,fixation,288,poldrack-single-stim,
289,150.0,500.0,400.0,,,,,,150.0,,,,Magnitude,stay,0.0,40.0,stop_signal_with_cued_task_switching,practice,,,,,,0.0-3.0-160.0,-1.0,none,,-1.0,white,150.0,3.0,<div class = upperbox><div class = center-text>Magnitude</div></div><div class = lowerbox><div class = fixation>+</div></div>,,go,magnitude,stay,,610085,0.0,cue,289,poldrack-single-stim,
290,150.0,500.0,400.0,500.0,500.0,"<div class = starbox><img class = star src=""/static/experiments/stop_signal_with_cued_task_switching/images/stop.png""></img></div>",go,,2000.0,True,90.0,0.0,Magnitude,stay,0.0,40.0,stop_signal_with_cued_task_switching,test,,,,,,0.0-3.0-161.0,90.0,"[77, 90]",,915.0,white,1000.0,3.0,"<div class = upperbox><div class = center-text>Magnitude</div></div><div class = lowerbox><div class = gng_number><div class = cue-text><img class = center src=""/static/experiments/stop_signal_with_cued_task_switching/images/3.png""></img></div></div></div>",,go,magnitude,stay,,612087,0.0,test_trial,290,stop-signal,
291,,,,,,,,,,,,,,,,,stop_signal_with_cued_task_switching,,,,,,,0.0-3.0-162.0,,,,,,,,,,,,,,612088,,set_stims,291,call-function,
292,,,,,,,,,500.0,,,,,,,,stop_signal_with_cued_task_switching,practice,,,,,,0.0-3.0-163.0,-1.0,none,,-1.0,,500.0,,<div class = upperbox><div class = fixation>+</div></div><div class = lowerbox><div class = fixation>+</div></div>,,,,,,612589,0.0,fixation,292,poldrack-single-stim,
