,SSD_congruent,SSD_incongruent,SS_delay,SS_duration,SS_stimulus,SS_trial_type,att_check_percent,block_duration,center_letter,correct,correct_response,correct_trial,current_block,current_trial,exp_id,final_accuracy,final_avg_rt,final_credit_var,final_missed_percent,final_responses_ok,flanker_condition,flanker_letter,internal_node_id,key_press,possible_responses,responses,rt,stim_duration,stimulus,stop_acc,stop_signal_condition,text,time_elapsed,timing_post_trial,trial_id,trial_index,trial_type,view_history
0,,,,,,,,1687.0,,,,,,,stop_signal_with_flanker,,,,,,,,0.0-0.0-0.0,13.0,[13],,1687,1687.0,<div class = bigbox><div class = picture_box><p class = block-text>Welcome to the experiment. This experiment will take around 10 minutes. Press <i>enter</i> to begin.</p></div></div>,,,,1690,0.0,feedback_block,0,poldrack-single-stim,
1,,,,,,,,,,,,,,,stop_signal_with_flanker,,,,,,,,0.0-0.0-1.0,,,,312633,,,,,,314326,,instruction,1,poldrack-instructions,"[{""page_index"":0,""viewing_time"":269867},{""page_index"":1,""viewing_time"":38572},{""page_index"":2,""viewing_time"":4193}]"
2,,,,,,,,500.0,,,,,,,stop_signal_with_flanker,,,,,,,,0.0-0.0-2.0,-1.0,none,,-1,500.0,<div class = centerbox><div class = fixation>+</div></div>,,,,315832,0.0,practice_fixation,2,poldrack-single-stim,
3,350.0,350.0,350.0,500.0,"<div class = bigbox><div class = centerbox><div class = starbox><img class = star src=""/static/experiments/stop_signal_with_flanker/images/stopSignal.png""></img></div></div></div>",go,,2000.0,F,,70.0,1.0,0.0,1.0,stop_signal_with_flanker,,,,,,F_congruent,F,0.0-0.0-3.0,70.0,"[70, 72]",,806,1000.0,"<div class = bigbox><div class = centerbox><div class = flankerLeft_2><div class = cue-text><img class = center src=""/static/experiments/stop_signal_with_flanker/images/F.png""></img></div></div><div class = flankerLeft_1><div class = cue-text><img class = center src=""/static/experiments/stop_signal_with_flanker/images/F.png""></img></div></div><div class = flankerMiddle><div class = cue-text><img class = center src=""/static/experiments/stop_signal_with_flanker/images/F.png""></img></div></div><div class = flankerRight_1><div class = cue-text><img class = center src=""/static/experiments/stop_signal_with_flanker/images/F.png""></img></div></div><div class = flankerRight_2><div class = cue-text><img class = center src=""/static/experiments/stop_signal_with_flanker/images/F.png""></img>",,go,,317905,0.0,practice_trial,3,stop-signal,
4,,,,,,,,500.0,,,,,,,stop_signal_with_flanker,,,,,,,,0.0-0.0-4.0,-1.0,none,,-1,500.0,"<div class = fb_box><div class = center-text><font size = 20>Correct!</font></div></div><ul style = ""text-align:left;""><font color=white><li>Indicate the identity of the middle letter</li><li>Do not respond if you see a star around the letters!</li><li>Do not slow down your responses to the letter to wait for the star.</li></font></ul>",,,,318409,0.0,practice-stop-feedback,4,poldrack-single-stim,
5,,,,,,,,500.0,,,,,,,stop_signal_with_flanker,,,,,,,,0.0-0.0-5.0,-1.0,none,,-1,500.0,<div class = centerbox><div class = fixation>+</div></div>,,,,318920,0.0,practice_fixation,5,poldrack-single-stim,
6,350.0,350.0,350.0,500.0,"<div class = bigbox><div class = centerbox><div class = starbox><img class = star src=""/static/experiments/stop_signal_with_flanker/images/stopSignal.png""></img></div></div></div>",go,,2000.0,F,,70.0,1.0,0.0,2.0,stop_signal_with_flanker,,,,,,F_incongruent,H,0.0-0.0-6.0,70.0,"[70, 72]",,686,1000.0,"<div class = bigbox><div class = centerbox><div class = flankerLeft_2><div class = cue-text><img class = center src=""/static/experiments/stop_signal_with_flanker/images/H.png""></img></div></div><div class = flankerLeft_1><div class = cue-text><img class = center src=""/static/experiments/stop_signal_with_flanker/images/H.png""></img></div></div><div class = flankerMiddle><div class = cue-text><img class = center src=""/static/experiments/stop_signal_with_flanker/images/F.png""></img></div></div><div class = flankerRight_1><div class = cue-text><img class = center src=""/static/experiments/stop_signal_with_flanker/images/H.png""></img></div></div><div class = flankerRight_2><div class = cue-text><img class = center src=""/static/experiments/stop_signal_with_flanker/images/H.png""></img>",,go,,320932,0.0,practice_trial,6,stop-signal,
7,,,,,,,,500.0,,,,,,,stop_signal_with_flanker,,,,,,,,0.0-0.0-7.0,-1.0,none,,-1,500.0,"<div class = fb_box><div class = center-text><font size = 20>Correct!</font></div></div><ul style = ""text-align:left;""><font color=white><li>Indicate the identity of the middle letter</li><li>Do not respond if you see a star around the letters!</li><li>Do not slow down your responses to the letter to wait for the star.</li></font></ul>",,,,321437,0.0,practice-stop-feedback,7,poldrack-single-stim,
8,,,,,,,,500.0,,,,,,,stop_signal_with_flanker,,,,,,,,0.0-0.0-8.0,-1.0,none,,-1,500.0,<div class = centerbox><div class = fixation>+</div></div>,,,,321942,0.0,practice_fixation,8,poldrack-single-stim,
9,350.0,350.0,350.0,500.0,"<div class = bigbox><div class = centerbox><div class = starbox><img class = star src=""/static/experiments/stop_signal_with_flanker/images/stopSignal.png""></img></div></div></div>",stop,,2000.0,H,,-1.0,0.0,0.0,3.0,stop_signal_with_flanker,,,,,,H_congruent,H,0.0-0.0-9.0,72.0,"[70, 72]",,462,1000.0,"<div class = bigbox><div class = centerbox><div class = flankerLeft_2><div class = cue-text><img class = center src=""/static/experiments/stop_signal_with_flanker/images/H.png""></img></div></div><div class = flankerLeft_1><div class = cue-text><img class = center src=""/static/experiments/stop_signal_with_flanker/images/H.png""></img></div></div><div class = flankerMiddle><div class = cue-text><img class = center src=""/static/experiments/stop_signal_with_flanker/images/H.png""></img></div></div><div class = flankerRight_1><div class = cue-text><img class = center src=""/static/experiments/stop_signal_with_flanker/images/H.png""></img></div></div><div class = flankerRight_2><div class = cue-text><img class = center src=""/static/experiments/stop_signal_with_flanker/images/H.png""></img>",0.0,stop,,323950,0.0,practice_trial,9,stop-signal,
10,,,,,,,,500.0,,,,,,,stop_signal_with_flanker,,,,,,,,0.0-0.0-10.0,-1.0,none,,-1,500.0,"<div class = fb_box><div class = center-text><font size = 20>There was a star.</font></div></div><ul style = ""text-align:left;""><font color=white><li>Indicate the identity of the middle letter</li><li>Do not respond if you see a star around the letters!</li><li>Do not slow down your responses to the letter to wait for the star.</li></font></ul>",,,,324455,0.0,practice-stop-feedback,10,poldrack-single-stim,
11,,,,,,,,500.0,,,,,,,stop_signal_with_flanker,,,,,,,,0.0-0.0-11.0,-1.0,none,,-1,500.0,<div class = centerbox><div class = fixation>+</div></div>,,,,324960,0.0,practice_fixation,11,poldrack-single-stim,
12,300.0,350.0,300.0,500.0,"<div class = bigbox><div class = centerbox><div class = starbox><img class = star src=""/static/experiments/stop_signal_with_flanker/images/stopSignal.png""></img></div></div></div>",stop,,2000.0,F,,-1.0,0.0,0.0,4.0,stop_signal_with_flanker,,,,,,F_congruent,F,0.0-0.0-12.0,70.0,"[70, 72]",,582,1000.0,"<div class = bigbox><div class = centerbox><div class = flankerLeft_2><div class = cue-text><img class = center src=""/static/experiments/stop_signal_with_flanker/images/F.png""></img></div></div><div class = flankerLeft_1><div class = cue-text><img class = center src=""/static/experiments/stop_signal_with_flanker/images/F.png""></img></div></div><div class = flankerMiddle><div class = cue-text><img class = center src=""/static/experiments/stop_signal_with_flanker/images/F.png""></img></div></div><div class = flankerRight_1><div class = cue-text><img class = center src=""/static/experiments/stop_signal_with_flanker/images/F.png""></img></div></div><div class = flankerRight_2><div class = cue-text><img class = center src=""/static/experiments/stop_signal_with_flanker/images/F.png""></img>",0.0,stop,,326971,0.0,practice_trial,12,stop-signal,
13,,,,,,,,500.0,,,,,,,stop_signal_with_flanker,,,,,,,,0.0-0.0-13.0,-1.0,none,,-1,500.0,"<div class = fb_box><div class = center-text><font size = 20>There was a star.</font></div></div><ul style = ""text-align:left;""><font color=white><li>Indicate the identity of the middle letter</li><li>Do not respond if you see a star around the letters!</li><li>Do not slow down your responses to the letter to wait for the star.</li></font></ul>",,,,327475,0.0,practice-stop-feedback,13,poldrack-single-stim,
14,,,,,,,,500.0,,,,,,,stop_signal_with_flanker,,,,,,,,0.0-0.0-14.0,-1.0,none,,-1,500.0,<div class = centerbox><div class = fixation>+</div></div>,,,,327977,0.0,practice_fixation,14,poldrack-single-stim,
15,250.0,350.0,350.0,500.0,"<div class = bigbox><div class = centerbox><div class = starbox><img class = star src=""/static/experiments/stop_signal_with_flanker/images/stopSignal.png""></img></div></div></div>",go,,2000.0,F,,70.0,1.0,0.0,5.0,stop_signal_with_flanker,,,,,,F_incongruent,H,0.0-0.0-15.0,70.0,"[70, 72]",,568,1000.0,"<div class = bigbox><div class = centerbox><div class = flankerLeft_2><div class = cue-text><img class = center src=""/static/experiments/stop_signal_with_flanker/images/H.png""></img></div></div><div class = flankerLeft_1><div class = cue-text><img class = center src=""/static/experiments/stop_signal_with_flanker/images/H.png""></img></div></div><div class = flankerMiddle><div class = cue-text><img class = center src=""/static/experiments/stop_signal_with_flanker/images/F.png""></img></div></div><div class = flankerRight_1><div class = cue-text><img class = center src=""/static/experiments/stop_signal_with_flanker/images/H.png""></img></div></div><div class = flankerRight_2><div class = cue-text><img class = center src=""/static/experiments/stop_signal_with_flanker/images/H.png""></img>",,go,,329991,0.0,practice_trial,15,stop-signal,
16,,,,,,,,500.0,,,,,,,stop_signal_with_flanker,,,,,,,,0.0-0.0-16.0,-1.0,none,,-1,500.0,"<div class = fb_box><div class = center-text><font size = 20>Correct!</font></div></div><ul style = ""text-align:left;""><font color=white><li>Indicate the identity of the middle letter</li><li>Do not respond if you see a star around the letters!</li><li>Do not slow down your responses to the letter to wait for the star.</li></font></ul>",,,,330496,0.0,practice-stop-feedback,16,poldrack-single-stim,
17,,,,,,,,500.0,,,,,,,stop_signal_with_flanker,,,,,,,,0.0-0.0-17.0,-1.0,none,,-1,500.0,<div class = centerbox><div class = fixation>+</div></div>,,,,330999,0.0,practice_fixation,17,poldrack-single-stim,
18,250.0,350.0,250.0,500.0,"<div class = bigbox><div class = centerbox><div class = starbox><img class = star src=""/static/experiments/stop_signal_with_flanker/images/stopSignal.png""></img></div></div></div>",go,,2000.0,H,,72.0,1.0,0.0,6.0,stop_signal_with_flanker,,,,,,H_congruent,H,0.0-0.0-18.0,72.0,"[70, 72]",,501,1000.0,"<div class = bigbox><div class = centerbox><div class = flankerLeft_2><div class = cue-text><img class = center src=""/static/experiments/stop_signal_with_flanker/images/H.png""></img></div></div><div class = flankerLeft_1><div class = cue-text><img class = center src=""/static/experiments/stop_signal_with_flanker/images/H.png""></img></div></div><div class = flankerMiddle><div class = cue-text><img class = center src=""/static/experiments/stop_signal_with_flanker/images/H.png""></img></div></div><div class = flankerRight_1><div class = cue-text><img class = center src=""/static/experiments/stop_signal_with_flanker/images/H.png""></img></div></div><div class = flankerRight_2><div class = cue-text><img class = center src=""/static/experiments/stop_signal_with_flanker/images/H.png""></img>",,go,,333008,0.0,practice_trial,18,stop-signal,
19,,,,,,,,500.0,,,,,,,stop_signal_with_flanker,,,,,,,,0.0-0.0-19.0,-1.0,none,,-1,500.0,"<div class = fb_box><div class = center-text><font size = 20>Correct!</font></div></div><ul style = ""text-align:left;""><font color=white><li>Indicate the identity of the middle letter</li><li>Do not respond if you see a star around the letters!</li><li>Do not slow down your responses to the letter to wait for the star.</li></font></ul>",,,,333510,0.0,practice-stop-feedback,19,poldrack-single-stim,
20,,,,,,,,500.0,,,,,,,stop_signal_with_flanker,,,,,,,,0.0-0.0-20.0,-1.0,none,,-1,500.0,<div class = centerbox><div class = fixation>+</div></div>,,,,334016,0.0,practice_fixation,20,poldrack-single-stim,
21,250.0,350.0,350.0,500.0,"<div class = bigbox><div class = centerbox><div class = starbox><img class = star src=""/static/experiments/stop_signal_with_flanker/images/stopSignal.png""></img></div></div></div>",go,,2000.0,H,,72.0,1.0,0.0,7.0,stop_signal_with_flanker,,,,,,H_incongruent,F,0.0-0.0-21.0,72.0,"[70, 72]",,547,1000.0,"<div class = bigbox><div class = centerbox><div class = flankerLeft_2><div class = cue-text><img class = center src=""/static/experiments/stop_signal_with_flanker/images/F.png""></img></div></div><div class = flankerLeft_1><div class = cue-text><img class = center src=""/static/experiments/stop_signal_with_flanker/images/F.png""></img></div></div><div class = flankerMiddle><div class = cue-text><img class = center src=""/static/experiments/stop_signal_with_flanker/images/H.png""></img></div></div><div class = flankerRight_1><div class = cue-text><img class = center src=""/static/experiments/stop_signal_with_flanker/images/F.png""></img></div></div><div class = flankerRight_2><div class = cue-text><img class = center src=""/static/experiments/stop_signal_with_flanker/images/F.png""></img>",,go,,336019,0.0,practice_trial,21,stop-signal,
22,,,,,,,,500.0,,,,,,,stop_signal_with_flanker,,,,,,,,0.0-0.0-22.0,-1.0,none,,-1,500.0,"<div class = fb_box><div class = center-text><font size = 20>Correct!</font></div></div><ul style = ""text-align:left;""><font color=white><li>Indicate the identity of the middle letter</li><li>Do not respond if you see a star around the letters!</li><li>Do not slow down your responses to the letter to wait for the star.</li></font></ul>",,,,336523,0.0,practice-stop-feedback,22,poldrack-single-stim,
23,,,,,,,,500.0,,,,,,,stop_signal_with_flanker,,,,,,,,0.0-0.0-23.0,-1.0,none,,-1,500.0,<div class = centerbox><div class = fixation>+</div></div>,,,,337028,0.0,practice_fixation,23,poldrack-single-stim,
24,250.0,350.0,250.0,500.0,"<div class = bigbox><div class = centerbox><div class = starbox><img class = star src=""/static/experiments/stop_signal_with_flanker/images/stopSignal.png""></img></div></div></div>",go,,2000.0,F,,70.0,1.0,0.0,8.0,stop_signal_with_flanker,,,,,,F_congruent,F,0.0-0.0-24.0,70.0,"[70, 72]",,419,1000.0,"<div class = bigbox><div class = centerbox><div class = flankerLeft_2><div class = cue-text><img class = center src=""/static/experiments/stop_signal_with_flanker/images/F.png""></img></div></div><div class = flankerLeft_1><div class = cue-text><img class = center src=""/static/experiments/stop_signal_with_flanker/images/F.png""></img></div></div><div class = flankerMiddle><div class = cue-text><img class = center src=""/static/experiments/stop_signal_with_flanker/images/F.png""></img></div></div><div class = flankerRight_1><div class = cue-text><img class = center src=""/static/experiments/stop_signal_with_flanker/images/F.png""></img></div></div><div class = flankerRight_2><div class = cue-text><img class = center src=""/static/experiments/stop_signal_with_flanker/images/F.png""></img>",,go,,339042,0.0,practice_trial,24,stop-signal,
25,,,,,,,,500.0,,,,,,,stop_signal_with_flanker,,,,,,,,0.0-0.0-25.0,-1.0,none,,-1,500.0,"<div class = fb_box><div class = center-text><font size = 20>Correct!</font></div></div><ul style = ""text-align:left;""><font color=white><li>Indicate the identity of the middle letter</li><li>Do not respond if you see a star around the letters!</li><li>Do not slow down your responses to the letter to wait for the star.</li></font></ul>",,,,339550,0.0,practice-stop-feedback,25,poldrack-single-stim,
26,,,,,,,,500.0,,,,,,,stop_signal_with_flanker,,,,,,,,0.0-0.0-26.0,-1.0,none,,-1,500.0,<div class = centerbox><div class = fixation>+</div></div>,,,,340055,0.0,practice_fixation,26,poldrack-single-stim,
27,250.0,350.0,250.0,500.0,"<div class = bigbox><div class = centerbox><div class = starbox><img class = star src=""/static/experiments/stop_signal_with_flanker/images/stopSignal.png""></img></div></div></div>",go,,2000.0,H,,72.0,1.0,0.0,9.0,stop_signal_with_flanker,,,,,,H_congruent,H,0.0-0.0-27.0,72.0,"[70, 72]",,445,1000.0,"<div class = bigbox><div class = centerbox><div class = flankerLeft_2><div class = cue-text><img class = center src=""/static/experiments/stop_signal_with_flanker/images/H.png""></img></div></div><div class = flankerLeft_1><div class = cue-text><img class = center src=""/static/experiments/stop_signal_with_flanker/images/H.png""></img></div></div><div class = flankerMiddle><div class = cue-text><img class = center src=""/static/experiments/stop_signal_with_flanker/images/H.png""></img></div></div><div class = flankerRight_1><div class = cue-text><img class = center src=""/static/experiments/stop_signal_with_flanker/images/H.png""></img></div></div><div class = flankerRight_2><div class = cue-text><img class = center src=""/static/experiments/stop_signal_with_flanker/images/H.png""></img>",,go,,342058,0.0,practice_trial,27,stop-signal,
28,,,,,,,,500.0,,,,,,,stop_signal_with_flanker,,,,,,,,0.0-0.0-28.0,-1.0,none,,-1,500.0,"<div class = fb_box><div class = center-text><font size = 20>Correct!</font></div></div><ul style = ""text-align:left;""><font color=white><li>Indicate the identity of the middle letter</li><li>Do not respond if you see a star around the letters!</li><li>Do not slow down your responses to the letter to wait for the star.</li></font></ul>",,,,342562,0.0,practice-stop-feedback,28,poldrack-single-stim,
29,,,,,,,,500.0,,,,,,,stop_signal_with_flanker,,,,,,,,0.0-0.0-29.0,-1.0,none,,-1,500.0,<div class = centerbox><div class = fixation>+</div></div>,,,,343065,0.0,practice_fixation,29,poldrack-single-stim,
30,250.0,350.0,350.0,500.0,"<div class = bigbox><div class = centerbox><div class = starbox><img class = star src=""/static/experiments/stop_signal_with_flanker/images/stopSignal.png""></img></div></div></div>",go,,2000.0,H,,72.0,1.0,0.0,10.0,stop_signal_with_flanker,,,,,,H_incongruent,F,0.0-0.0-30.0,72.0,"[70, 72]",,454,1000.0,"<div class = bigbox><div class = centerbox><div class = flankerLeft_2><div class = cue-text><img class = center src=""/static/experiments/stop_signal_with_flanker/images/F.png""></img></div></div><div class = flankerLeft_1><div class = cue-text><img class = center src=""/static/experiments/stop_signal_with_flanker/images/F.png""></img></div></div><div class = flankerMiddle><div class = cue-text><img class = center src=""/static/experiments/stop_signal_with_flanker/images/H.png""></img></div></div><div class = flankerRight_1><div class = cue-text><img class = center src=""/static/experiments/stop_signal_with_flanker/images/F.png""></img></div></div><div class = flankerRight_2><div class = cue-text><img class = center src=""/static/experiments/stop_signal_with_flanker/images/F.png""></img>",,go,,345077,0.0,practice_trial,30,stop-signal,
31,,,,,,,,500.0,,,,,,,stop_signal_with_flanker,,,,,,,,0.0-0.0-31.0,-1.0,none,,-1,500.0,"<div class = fb_box><div class = center-text><font size = 20>Correct!</font></div></div><ul style = ""text-align:left;""><font color=white><li>Indicate the identity of the middle letter</li><li>Do not respond if you see a star around the letters!</li><li>Do not slow down your responses to the letter to wait for the star.</li></font></ul>",,,,345582,0.0,practice-stop-feedback,31,poldrack-single-stim,
32,,,,,,,,500.0,,,,,,,stop_signal_with_flanker,,,,,,,,0.0-0.0-32.0,-1.0,none,,-1,500.0,<div class = centerbox><div class = fixation>+</div></div>,,,,346085,0.0,practice_fixation,32,poldrack-single-stim,
33,250.0,350.0,350.0,500.0,"<div class = bigbox><div class = centerbox><div class = starbox><img class = star src=""/static/experiments/stop_signal_with_flanker/images/stopSignal.png""></img></div></div></div>",stop,,2000.0,H,,-1.0,0.0,0.0,11.0,stop_signal_with_flanker,,,,,,H_incongruent,F,0.0-0.0-33.0,72.0,"[70, 72]",,429,1000.0,"<div class = bigbox><div class = centerbox><div class = flankerLeft_2><div class = cue-text><img class = center src=""/static/experiments/stop_signal_with_flanker/images/F.png""></img></div></div><div class = flankerLeft_1><div class = cue-text><img class = center src=""/static/experiments/stop_signal_with_flanker/images/F.png""></img></div></div><div class = flankerMiddle><div class = cue-text><img class = center src=""/static/experiments/stop_signal_with_flanker/images/H.png""></img></div></div><div class = flankerRight_1><div class = cue-text><img class = center src=""/static/experiments/stop_signal_with_flanker/images/F.png""></img></div></div><div class = flankerRight_2><div class = cue-text><img class = center src=""/static/experiments/stop_signal_with_flanker/images/F.png""></img>",0.0,stop,,348123,0.0,practice_trial,33,stop-signal,
34,,,,,,,,500.0,,,,,,,stop_signal_with_flanker,,,,,,,,0.0-0.0-34.0,-1.0,none,,-1,500.0,"<div class = fb_box><div class = center-text><font size = 20>There was a star.</font></div></div><ul style = ""text-align:left;""><font color=white><li>Indicate the identity of the middle letter</li><li>Do not respond if you see a star around the letters!</li><li>Do not slow down your responses to the letter to wait for the star.</li></font></ul>",,,,348625,0.0,practice-stop-feedback,34,poldrack-single-stim,
35,,,,,,,,500.0,,,,,,,stop_signal_with_flanker,,,,,,,,0.0-0.0-35.0,-1.0,none,,-1,500.0,<div class = centerbox><div class = fixation>+</div></div>,,,,349134,0.0,practice_fixation,35,poldrack-single-stim,
36,250.0,300.0,300.0,500.0,"<div class = bigbox><div class = centerbox><div class = starbox><img class = star src=""/static/experiments/stop_signal_with_flanker/images/stopSignal.png""></img></div></div></div>",stop,,2000.0,F,,-1.0,0.0,0.0,12.0,stop_signal_with_flanker,,,,,,F_incongruent,H,0.0-0.0-36.0,70.0,"[70, 72]",,527,1000.0,"<div class = bigbox><div class = centerbox><div class = flankerLeft_2><div class = cue-text><img class = center src=""/static/experiments/stop_signal_with_flanker/images/H.png""></img></div></div><div class = flankerLeft_1><div class = cue-text><img class = center src=""/static/experiments/stop_signal_with_flanker/images/H.png""></img></div></div><div class = flankerMiddle><div class = cue-text><img class = center src=""/static/experiments/stop_signal_with_flanker/images/F.png""></img></div></div><div class = flankerRight_1><div class = cue-text><img class = center src=""/static/experiments/stop_signal_with_flanker/images/H.png""></img></div></div><div class = flankerRight_2><div class = cue-text><img class = center src=""/static/experiments/stop_signal_with_flanker/images/H.png""></img>",0.0,stop,,351209,0.0,practice_trial,36,stop-signal,
37,,,,,,,,500.0,,,,,,,stop_signal_with_flanker,,,,,,,,0.0-0.0-37.0,-1.0,none,,-1,500.0,"<div class = fb_box><div class = center-text><font size = 20>There was a star.</font></div></div><ul style = ""text-align:left;""><font color=white><li>Indicate the identity of the middle letter</li><li>Do not respond if you see a star around the letters!</li><li>Do not slow down your responses to the letter to wait for the star.</li></font></ul>",,,,351712,0.0,practice-stop-feedback,37,poldrack-single-stim,
38,,,,,,,,4871.0,,,,,,,stop_signal_with_flanker,,,,,,,,0.0-0.1-0.1,13.0,[13],,4871,4871.0,<div class = bigbox><div class = picture_box><p class = block-text><br>Please take this time to read your feedback and to take a short break! Press enter to continue.</p><p class = block-text>You have not been stopping your response when stars are present.  Please try your best to stop your response if you see a star.</p><p class = block-text>Redoing this practice. Press Enter to continue.</p></div></div>,,,,356589,0.0,feedback_block,38,poldrack-single-stim,
39,,,,,,,,,,,,,,,stop_signal_with_flanker,,,,,,,,0.0-0.1-1.1,,,,4103,,,,,,360693,,instruction,39,poldrack-instructions,"[{""page_index"":0,""viewing_time"":2321},{""page_index"":1,""viewing_time"":856},{""page_index"":2,""viewing_time"":926}]"
40,,,,,,,,500.0,,,,,,,stop_signal_with_flanker,,,,,,,,0.0-0.1-2.1,-1.0,none,,-1,500.0,<div class = centerbox><div class = fixation>+</div></div>,,,,362197,0.0,practice_fixation,40,poldrack-single-stim,
41,250.0,250.0,250.0,500.0,"<div class = bigbox><div class = centerbox><div class = starbox><img class = star src=""/static/experiments/stop_signal_with_flanker/images/stopSignal.png""></img></div></div></div>",go,,2000.0,H,,72.0,1.0,1.0,1.0,stop_signal_with_flanker,,,,,,H_congruent,H,0.0-0.1-3.1,72.0,"[70, 72]",,492,1000.0,"<div class = bigbox><div class = centerbox><div class = flankerLeft_2><div class = cue-text><img class = center src=""/static/experiments/stop_signal_with_flanker/images/H.png""></img></div></div><div class = flankerLeft_1><div class = cue-text><img class = center src=""/static/experiments/stop_signal_with_flanker/images/H.png""></img></div></div><div class = flankerMiddle><div class = cue-text><img class = center src=""/static/experiments/stop_signal_with_flanker/images/H.png""></img></div></div><div class = flankerRight_1><div class = cue-text><img class = center src=""/static/experiments/stop_signal_with_flanker/images/H.png""></img></div></div><div class = flankerRight_2><div class = cue-text><img class = center src=""/static/experiments/stop_signal_with_flanker/images/H.png""></img>",,go,,364200,0.0,practice_trial,41,stop-signal,
42,,,,,,,,500.0,,,,,,,stop_signal_with_flanker,,,,,,,,0.0-0.1-4.1,-1.0,none,,-1,500.0,"<div class = fb_box><div class = center-text><font size = 20>Correct!</font></div></div><ul style = ""text-align:left;""><font color=white><li>Indicate the identity of the middle letter</li><li>Do not respond if you see a star around the letters!</li><li>Do not slow down your responses to the letter to wait for the star.</li></font></ul>",,,,364702,0.0,practice-stop-feedback,42,poldrack-single-stim,
43,,,,,,,,500.0,,,,,,,stop_signal_with_flanker,,,,,,,,0.0-0.1-5.1,-1.0,none,,-1,500.0,<div class = centerbox><div class = fixation>+</div></div>,,,,365205,0.0,practice_fixation,43,poldrack-single-stim,
44,250.0,250.0,250.0,500.0,"<div class = bigbox><div class = centerbox><div class = starbox><img class = star src=""/static/experiments/stop_signal_with_flanker/images/stopSignal.png""></img></div></div></div>",go,,2000.0,F,,70.0,1.0,1.0,2.0,stop_signal_with_flanker,,,,,,F_incongruent,H,0.0-0.1-6.1,70.0,"[70, 72]",,555,1000.0,"<div class = bigbox><div class = centerbox><div class = flankerLeft_2><div class = cue-text><img class = center src=""/static/experiments/stop_signal_with_flanker/images/H.png""></img></div></div><div class = flankerLeft_1><div class = cue-text><img class = center src=""/static/experiments/stop_signal_with_flanker/images/H.png""></img></div></div><div class = flankerMiddle><div class = cue-text><img class = center src=""/static/experiments/stop_signal_with_flanker/images/F.png""></img></div></div><div class = flankerRight_1><div class = cue-text><img class = center src=""/static/experiments/stop_signal_with_flanker/images/H.png""></img></div></div><div class = flankerRight_2><div class = cue-text><img class = center src=""/static/experiments/stop_signal_with_flanker/images/H.png""></img>",,go,,367209,0.0,practice_trial,44,stop-signal,
45,,,,,,,,500.0,,,,,,,stop_signal_with_flanker,,,,,,,,0.0-0.1-7.1,-1.0,none,,-1,500.0,"<div class = fb_box><div class = center-text><font size = 20>Correct!</font></div></div><ul style = ""text-align:left;""><font color=white><li>Indicate the identity of the middle letter</li><li>Do not respond if you see a star around the letters!</li><li>Do not slow down your responses to the letter to wait for the star.</li></font></ul>",,,,367715,0.0,practice-stop-feedback,45,poldrack-single-stim,
46,,,,,,,,500.0,,,,,,,stop_signal_with_flanker,,,,,,,,0.0-0.1-8.1,-1.0,none,,-1,500.0,<div class = centerbox><div class = fixation>+</div></div>,,,,368220,0.0,practice_fixation,46,poldrack-single-stim,
47,250.0,250.0,250.0,500.0,"<div class = bigbox><div class = centerbox><div class = starbox><img class = star src=""/static/experiments/stop_signal_with_flanker/images/stopSignal.png""></img></div></div></div>",go,,2000.0,H,,72.0,1.0,1.0,3.0,stop_signal_with_flanker,,,,,,H_incongruent,F,0.0-0.1-9.1,72.0,"[70, 72]",,479,1000.0,"<div class = bigbox><div class = centerbox><div class = flankerLeft_2><div class = cue-text><img class = center src=""/static/experiments/stop_signal_with_flanker/images/F.png""></img></div></div><div class = flankerLeft_1><div class = cue-text><img class = center src=""/static/experiments/stop_signal_with_flanker/images/F.png""></img></div></div><div class = flankerMiddle><div class = cue-text><img class = center src=""/static/experiments/stop_signal_with_flanker/images/H.png""></img></div></div><div class = flankerRight_1><div class = cue-text><img class = center src=""/static/experiments/stop_signal_with_flanker/images/F.png""></img></div></div><div class = flankerRight_2><div class = cue-text><img class = center src=""/static/experiments/stop_signal_with_flanker/images/F.png""></img>",,go,,370226,0.0,practice_trial,47,stop-signal,
48,,,,,,,,500.0,,,,,,,stop_signal_with_flanker,,,,,,,,0.0-0.1-10.1,-1.0,none,,-1,500.0,"<div class = fb_box><div class = center-text><font size = 20>Correct!</font></div></div><ul style = ""text-align:left;""><font color=white><li>Indicate the identity of the middle letter</li><li>Do not respond if you see a star around the letters!</li><li>Do not slow down your responses to the letter to wait for the star.</li></font></ul>",,,,370730,0.0,practice-stop-feedback,48,poldrack-single-stim,
49,,,,,,,,500.0,,,,,,,stop_signal_with_flanker,,,,,,,,0.0-0.1-11.1,-1.0,none,,-1,500.0,<div class = centerbox><div class = fixation>+</div></div>,,,,371235,0.0,practice_fixation,49,poldrack-single-stim,
50,250.0,250.0,250.0,500.0,"<div class = bigbox><div class = centerbox><div class = starbox><img class = star src=""/static/experiments/stop_signal_with_flanker/images/stopSignal.png""></img></div></div></div>",stop,,2000.0,F,,-1.0,0.0,1.0,4.0,stop_signal_with_flanker,,,,,,F_incongruent,H,0.0-0.1-12.1,70.0,"[70, 72]",,538,1000.0,"<div class = bigbox><div class = centerbox><div class = flankerLeft_2><div class = cue-text><img class = center src=""/static/experiments/stop_signal_with_flanker/images/H.png""></img></div></div><div class = flankerLeft_1><div class = cue-text><img class = center src=""/static/experiments/stop_signal_with_flanker/images/H.png""></img></div></div><div class = flankerMiddle><div class = cue-text><img class = center src=""/static/experiments/stop_signal_with_flanker/images/F.png""></img></div></div><div class = flankerRight_1><div class = cue-text><img class = center src=""/static/experiments/stop_signal_with_flanker/images/H.png""></img></div></div><div class = flankerRight_2><div class = cue-text><img class = center src=""/static/experiments/stop_signal_with_flanker/images/H.png""></img>",0.0,stop,,373242,0.0,practice_trial,50,stop-signal,
51,,,,,,,,500.0,,,,,,,stop_signal_with_flanker,,,,,,,,0.0-0.1-13.1,-1.0,none,,-1,500.0,"<div class = fb_box><div class = center-text><font size = 20>There was a star.</font></div></div><ul style = ""text-align:left;""><font color=white><li>Indicate the identity of the middle letter</li><li>Do not respond if you see a star around the letters!</li><li>Do not slow down your responses to the letter to wait for the star.</li></font></ul>",,,,373749,0.0,practice-stop-feedback,51,poldrack-single-stim,
52,,,,,,,,500.0,,,,,,,stop_signal_with_flanker,,,,,,,,0.0-0.1-14.1,-1.0,none,,-1,500.0,<div class = centerbox><div class = fixation>+</div></div>,,,,374254,0.0,practice_fixation,52,poldrack-single-stim,
53,250.0,200.0,200.0,500.0,"<div class = bigbox><div class = centerbox><div class = starbox><img class = star src=""/static/experiments/stop_signal_with_flanker/images/stopSignal.png""></img></div></div></div>",stop,,2000.0,H,,-1.0,1.0,1.0,5.0,stop_signal_with_flanker,,,,,,H_incongruent,F,0.0-0.1-15.1,-1.0,"[70, 72]",,-1,1000.0,"<div class = bigbox><div class = centerbox><div class = flankerLeft_2><div class = cue-text><img class = center src=""/static/experiments/stop_signal_with_flanker/images/F.png""></img></div></div><div class = flankerLeft_1><div class = cue-text><img class = center src=""/static/experiments/stop_signal_with_flanker/images/F.png""></img></div></div><div class = flankerMiddle><div class = cue-text><img class = center src=""/static/experiments/stop_signal_with_flanker/images/H.png""></img></div></div><div class = flankerRight_1><div class = cue-text><img class = center src=""/static/experiments/stop_signal_with_flanker/images/F.png""></img></div></div><div class = flankerRight_2><div class = cue-text><img class = center src=""/static/experiments/stop_signal_with_flanker/images/F.png""></img>",1.0,stop,,376258,0.0,practice_trial,53,stop-signal,
54,,,,,,,,500.0,,,,,,,stop_signal_with_flanker,,,,,,,,0.0-0.1-16.1,-1.0,none,,-1,500.0,"<div class = fb_box><div class = center-text><font size = 20>Correct!</font></div></div><ul style = ""text-align:left;""><font color=white><li>Indicate the identity of the middle letter</li><li>Do not respond if you see a star around the letters!</li><li>Do not slow down your responses to the letter to wait for the star.</li></font></ul>",,,,376761,0.0,practice-stop-feedback,54,poldrack-single-stim,
55,,,,,,,,500.0,,,,,,,stop_signal_with_flanker,,,,,,,,0.0-0.1-17.1,-1.0,none,,-1,500.0,<div class = centerbox><div class = fixation>+</div></div>,,,,377271,0.0,practice_fixation,55,poldrack-single-stim,
56,250.0,250.0,250.0,500.0,"<div class = bigbox><div class = centerbox><div class = starbox><img class = star src=""/static/experiments/stop_signal_with_flanker/images/stopSignal.png""></img></div></div></div>",go,,2000.0,H,,72.0,1.0,1.0,6.0,stop_signal_with_flanker,,,,,,H_congruent,H,0.0-0.1-18.1,72.0,"[70, 72]",,553,1000.0,"<div class = bigbox><div class = centerbox><div class = flankerLeft_2><div class = cue-text><img class = center src=""/static/experiments/stop_signal_with_flanker/images/H.png""></img></div></div><div class = flankerLeft_1><div class = cue-text><img class = center src=""/static/experiments/stop_signal_with_flanker/images/H.png""></img></div></div><div class = flankerMiddle><div class = cue-text><img class = center src=""/static/experiments/stop_signal_with_flanker/images/H.png""></img></div></div><div class = flankerRight_1><div class = cue-text><img class = center src=""/static/experiments/stop_signal_with_flanker/images/H.png""></img></div></div><div class = flankerRight_2><div class = cue-text><img class = center src=""/static/experiments/stop_signal_with_flanker/images/H.png""></img>",,go,,379279,0.0,practice_trial,56,stop-signal,
57,,,,,,,,500.0,,,,,,,stop_signal_with_flanker,,,,,,,,0.0-0.1-19.1,-1.0,none,,-1,500.0,"<div class = fb_box><div class = center-text><font size = 20>Correct!</font></div></div><ul style = ""text-align:left;""><font color=white><li>Indicate the identity of the middle letter</li><li>Do not respond if you see a star around the letters!</li><li>Do not slow down your responses to the letter to wait for the star.</li></font></ul>",,,,379783,0.0,practice-stop-feedback,57,poldrack-single-stim,
58,,,,,,,,500.0,,,,,,,stop_signal_with_flanker,,,,,,,,0.0-0.1-20.1,-1.0,none,,-1,500.0,<div class = centerbox><div class = fixation>+</div></div>,,,,380285,0.0,practice_fixation,58,poldrack-single-stim,
59,250.0,250.0,250.0,500.0,"<div class = bigbox><div class = centerbox><div class = starbox><img class = star src=""/static/experiments/stop_signal_with_flanker/images/stopSignal.png""></img></div></div></div>",stop,,2000.0,H,,-1.0,1.0,1.0,7.0,stop_signal_with_flanker,,,,,,H_congruent,H,0.0-0.1-21.1,-1.0,"[70, 72]",,-1,1000.0,"<div class = bigbox><div class = centerbox><div class = flankerLeft_2><div class = cue-text><img class = center src=""/static/experiments/stop_signal_with_flanker/images/H.png""></img></div></div><div class = flankerLeft_1><div class = cue-text><img class = center src=""/static/experiments/stop_signal_with_flanker/images/H.png""></img></div></div><div class = flankerMiddle><div class = cue-text><img class = center src=""/static/experiments/stop_signal_with_flanker/images/H.png""></img></div></div><div class = flankerRight_1><div class = cue-text><img class = center src=""/static/experiments/stop_signal_with_flanker/images/H.png""></img></div></div><div class = flankerRight_2><div class = cue-text><img class = center src=""/static/experiments/stop_signal_with_flanker/images/H.png""></img>",1.0,stop,,382291,0.0,practice_trial,59,stop-signal,
60,,,,,,,,500.0,,,,,,,stop_signal_with_flanker,,,,,,,,0.0-0.1-22.1,-1.0,none,,-1,500.0,"<div class = fb_box><div class = center-text><font size = 20>Correct!</font></div></div><ul style = ""text-align:left;""><font color=white><li>Indicate the identity of the middle letter</li><li>Do not respond if you see a star around the letters!</li><li>Do not slow down your responses to the letter to wait for the star.</li></font></ul>",,,,382801,0.0,practice-stop-feedback,60,poldrack-single-stim,
61,,,,,,,,500.0,,,,,,,stop_signal_with_flanker,,,,,,,,0.0-0.1-23.1,-1.0,none,,-1,500.0,<div class = centerbox><div class = fixation>+</div></div>,,,,383333,0.0,practice_fixation,61,poldrack-single-stim,
62,300.0,250.0,300.0,500.0,"<div class = bigbox><div class = centerbox><div class = starbox><img class = star src=""/static/experiments/stop_signal_with_flanker/images/stopSignal.png""></img></div></div></div>",go,,2000.0,F,,70.0,1.0,1.0,8.0,stop_signal_with_flanker,,,,,,F_congruent,F,0.0-0.1-24.1,70.0,"[70, 72]",,435,1000.0,"<div class = bigbox><div class = centerbox><div class = flankerLeft_2><div class = cue-text><img class = center src=""/static/experiments/stop_signal_with_flanker/images/F.png""></img></div></div><div class = flankerLeft_1><div class = cue-text><img class = center src=""/static/experiments/stop_signal_with_flanker/images/F.png""></img></div></div><div class = flankerMiddle><div class = cue-text><img class = center src=""/static/experiments/stop_signal_with_flanker/images/F.png""></img></div></div><div class = flankerRight_1><div class = cue-text><img class = center src=""/static/experiments/stop_signal_with_flanker/images/F.png""></img></div></div><div class = flankerRight_2><div class = cue-text><img class = center src=""/static/experiments/stop_signal_with_flanker/images/F.png""></img>",,go,,385339,0.0,practice_trial,62,stop-signal,
63,,,,,,,,500.0,,,,,,,stop_signal_with_flanker,,,,,,,,0.0-0.1-25.1,-1.0,none,,-1,500.0,"<div class = fb_box><div class = center-text><font size = 20>Correct!</font></div></div><ul style = ""text-align:left;""><font color=white><li>Indicate the identity of the middle letter</li><li>Do not respond if you see a star around the letters!</li><li>Do not slow down your responses to the letter to wait for the star.</li></font></ul>",,,,385844,0.0,practice-stop-feedback,63,poldrack-single-stim,
64,,,,,,,,500.0,,,,,,,stop_signal_with_flanker,,,,,,,,0.0-0.1-26.1,-1.0,none,,-1,500.0,<div class = centerbox><div class = fixation>+</div></div>,,,,386347,0.0,practice_fixation,64,poldrack-single-stim,
65,300.0,250.0,300.0,500.0,"<div class = bigbox><div class = centerbox><div class = starbox><img class = star src=""/static/experiments/stop_signal_with_flanker/images/stopSignal.png""></img></div></div></div>",go,,2000.0,F,,70.0,1.0,1.0,9.0,stop_signal_with_flanker,,,,,,F_congruent,F,0.0-0.1-27.1,70.0,"[70, 72]",,567,1000.0,"<div class = bigbox><div class = centerbox><div class = flankerLeft_2><div class = cue-text><img class = center src=""/static/experiments/stop_signal_with_flanker/images/F.png""></img></div></div><div class = flankerLeft_1><div class = cue-text><img class = center src=""/static/experiments/stop_signal_with_flanker/images/F.png""></img></div></div><div class = flankerMiddle><div class = cue-text><img class = center src=""/static/experiments/stop_signal_with_flanker/images/F.png""></img></div></div><div class = flankerRight_1><div class = cue-text><img class = center src=""/static/experiments/stop_signal_with_flanker/images/F.png""></img></div></div><div class = flankerRight_2><div class = cue-text><img class = center src=""/static/experiments/stop_signal_with_flanker/images/F.png""></img>",,go,,388364,0.0,practice_trial,65,stop-signal,
66,,,,,,,,500.0,,,,,,,stop_signal_with_flanker,,,,,,,,0.0-0.1-28.1,-1.0,none,,-1,500.0,"<div class = fb_box><div class = center-text><font size = 20>Correct!</font></div></div><ul style = ""text-align:left;""><font color=white><li>Indicate the identity of the middle letter</li><li>Do not respond if you see a star around the letters!</li><li>Do not slow down your responses to the letter to wait for the star.</li></font></ul>",,,,388866,0.0,practice-stop-feedback,66,poldrack-single-stim,
67,,,,,,,,500.0,,,,,,,stop_signal_with_flanker,,,,,,,,0.0-0.1-29.1,-1.0,none,,-1,500.0,<div class = centerbox><div class = fixation>+</div></div>,,,,389392,0.0,practice_fixation,67,poldrack-single-stim,
68,300.0,250.0,250.0,500.0,"<div class = bigbox><div class = centerbox><div class = starbox><img class = star src=""/static/experiments/stop_signal_with_flanker/images/stopSignal.png""></img></div></div></div>",go,,2000.0,H,,72.0,1.0,1.0,10.0,stop_signal_with_flanker,,,,,,H_incongruent,F,0.0-0.1-30.1,72.0,"[70, 72]",,473,1000.0,"<div class = bigbox><div class = centerbox><div class = flankerLeft_2><div class = cue-text><img class = center src=""/static/experiments/stop_signal_with_flanker/images/F.png""></img></div></div><div class = flankerLeft_1><div class = cue-text><img class = center src=""/static/experiments/stop_signal_with_flanker/images/F.png""></img></div></div><div class = flankerMiddle><div class = cue-text><img class = center src=""/static/experiments/stop_signal_with_flanker/images/H.png""></img></div></div><div class = flankerRight_1><div class = cue-text><img class = center src=""/static/experiments/stop_signal_with_flanker/images/F.png""></img></div></div><div class = flankerRight_2><div class = cue-text><img class = center src=""/static/experiments/stop_signal_with_flanker/images/F.png""></img>",,go,,391405,0.0,practice_trial,68,stop-signal,
69,,,,,,,,500.0,,,,,,,stop_signal_with_flanker,,,,,,,,0.0-0.1-31.1,-1.0,none,,-1,500.0,"<div class = fb_box><div class = center-text><font size = 20>Correct!</font></div></div><ul style = ""text-align:left;""><font color=white><li>Indicate the identity of the middle letter</li><li>Do not respond if you see a star around the letters!</li><li>Do not slow down your responses to the letter to wait for the star.</li></font></ul>",,,,391908,0.0,practice-stop-feedback,69,poldrack-single-stim,
70,,,,,,,,500.0,,,,,,,stop_signal_with_flanker,,,,,,,,0.0-0.1-32.1,-1.0,none,,-1,500.0,<div class = centerbox><div class = fixation>+</div></div>,,,,392412,0.0,practice_fixation,70,poldrack-single-stim,
71,300.0,250.0,300.0,500.0,"<div class = bigbox><div class = centerbox><div class = starbox><img class = star src=""/static/experiments/stop_signal_with_flanker/images/stopSignal.png""></img></div></div></div>",stop,,2000.0,F,,-1.0,0.0,1.0,11.0,stop_signal_with_flanker,,,,,,F_congruent,F,0.0-0.1-33.1,70.0,"[70, 72]",,463,1000.0,"<div class = bigbox><div class = centerbox><div class = flankerLeft_2><div class = cue-text><img class = center src=""/static/experiments/stop_signal_with_flanker/images/F.png""></img></div></div><div class = flankerLeft_1><div class = cue-text><img class = center src=""/static/experiments/stop_signal_with_flanker/images/F.png""></img></div></div><div class = flankerMiddle><div class = cue-text><img class = center src=""/static/experiments/stop_signal_with_flanker/images/F.png""></img></div></div><div class = flankerRight_1><div class = cue-text><img class = center src=""/static/experiments/stop_signal_with_flanker/images/F.png""></img></div></div><div class = flankerRight_2><div class = cue-text><img class = center src=""/static/experiments/stop_signal_with_flanker/images/F.png""></img>",0.0,stop,,394418,0.0,practice_trial,71,stop-signal,
72,,,,,,,,500.0,,,,,,,stop_signal_with_flanker,,,,,,,,0.0-0.1-34.1,-1.0,none,,-1,500.0,"<div class = fb_box><div class = center-text><font size = 20>There was a star.</font></div></div><ul style = ""text-align:left;""><font color=white><li>Indicate the identity of the middle letter</li><li>Do not respond if you see a star around the letters!</li><li>Do not slow down your responses to the letter to wait for the star.</li></font></ul>",,,,394923,0.0,practice-stop-feedback,72,poldrack-single-stim,
73,,,,,,,,500.0,,,,,,,stop_signal_with_flanker,,,,,,,,0.0-0.1-35.1,-1.0,none,,-1,500.0,<div class = centerbox><div class = fixation>+</div></div>,,,,395429,0.0,practice_fixation,73,poldrack-single-stim,
74,250.0,250.0,250.0,500.0,"<div class = bigbox><div class = centerbox><div class = starbox><img class = star src=""/static/experiments/stop_signal_with_flanker/images/stopSignal.png""></img></div></div></div>",go,,2000.0,F,,70.0,1.0,1.0,12.0,stop_signal_with_flanker,,,,,,F_incongruent,H,0.0-0.1-36.1,70.0,"[70, 72]",,805,1000.0,"<div class = bigbox><div class = centerbox><div class = flankerLeft_2><div class = cue-text><img class = center src=""/static/experiments/stop_signal_with_flanker/images/H.png""></img></div></div><div class = flankerLeft_1><div class = cue-text><img class = center src=""/static/experiments/stop_signal_with_flanker/images/H.png""></img></div></div><div class = flankerMiddle><div class = cue-text><img class = center src=""/static/experiments/stop_signal_with_flanker/images/F.png""></img></div></div><div class = flankerRight_1><div class = cue-text><img class = center src=""/static/experiments/stop_signal_with_flanker/images/H.png""></img></div></div><div class = flankerRight_2><div class = cue-text><img class = center src=""/static/experiments/stop_signal_with_flanker/images/H.png""></img>",,go,,397436,0.0,practice_trial,74,stop-signal,
75,,,,,,,,500.0,,,,,,,stop_signal_with_flanker,,,,,,,,0.0-0.1-37.1,-1.0,none,,-1,500.0,"<div class = fb_box><div class = center-text><font size = 20>Correct!</font></div></div><ul style = ""text-align:left;""><font color=white><li>Indicate the identity of the middle letter</li><li>Do not respond if you see a star around the letters!</li><li>Do not slow down your responses to the letter to wait for the star.</li></font></ul>",,,,397939,0.0,practice-stop-feedback,75,poldrack-single-stim,
76,,,,,,,,5607.0,,,,,,,stop_signal_with_flanker,,,,,,,,0.0-1.0,13.0,[13],,5607,5607.0,<div class = bigbox><div class = picture_box><p class = block-text><br>Please take this time to read your feedback and to take a short break! Press enter to continue.</p><p class = block-text>Done with this practice. Press Enter to continue.</p></div></div>,,,,403548,0.0,feedback_block,76,poldrack-single-stim,
77,,,,,,,,2815.0,,,,,,,stop_signal_with_flanker,,,,,,,,0.0-2.0,13.0,,,2815,,,,,"<div class = centerbox><p class = block-text>We will now start the test portion. In this experiment you will see a row of letters. If the middle letter is H, please press the H Key.  If the middle letter is F, press the F Key. Respond as quickly and accurately as possible. Ignore the letters not in the middle!</p> <p class = block-text>On some trials, you will see a star appear with or shortly after the letters. Do not respond if you see a star.  Do not slow down your responses to the letter in order to wait for the star.</p><p class = block-text>Press Enter to continue.</p></div>",406365,1000.0,instruction,77,poldrack-text,
78,,,,,,,,1144.0,,,,,,,stop_signal_with_flanker,,,,,,,,0.0-3.0-0.0,13.0,[13],,1144,1144.0,<div class = bigbox><div class = picture_box><p class = block-text>We will now start the test portion. Press enter to begin.</p></div></div>,,,,408511,0.0,feedback_block,78,poldrack-single-stim,
79,,,,,,,,2209.0,,True,49.0,,,,stop_signal_with_flanker,,,,,,,,0.0-3.0-1.0-0.0,49.0,[],,2209,2209.0,<p>Press the number corresponding to the number of moons that Earth has orbiting it.<p>,,,,410724,200.0,attention_check,79,attention-check,
80,,,,,,,,500.0,,,,,,,stop_signal_with_flanker,,,,,,,,0.0-3.0-2.0,-1.0,none,,-1,500.0,<div class = centerbox><div class = fixation>+</div></div>,,,,411447,0.0,test_fixation,80,poldrack-single-stim,
81,250.0,250.0,250.0,500.0,"<div class = bigbox><div class = centerbox><div class = starbox><img class = star src=""/static/experiments/stop_signal_with_flanker/images/stopSignal.png""></img></div></div></div>",go,,2000.0,H,,72.0,1.0,0.0,1.0,stop_signal_with_flanker,,,,,,H_congruent,H,0.0-3.0-3.0,72.0,"[70, 72]",,747,1000.0,"<div class = bigbox><div class = centerbox><div class = flankerLeft_2><div class = cue-text><img class = center src=""/static/experiments/stop_signal_with_flanker/images/H.png""></img></div></div><div class = flankerLeft_1><div class = cue-text><img class = center src=""/static/experiments/stop_signal_with_flanker/images/H.png""></img></div></div><div class = flankerMiddle><div class = cue-text><img class = center src=""/static/experiments/stop_signal_with_flanker/images/H.png""></img></div></div><div class = flankerRight_1><div class = cue-text><img class = center src=""/static/experiments/stop_signal_with_flanker/images/H.png""></img></div></div><div class = flankerRight_2><div class = cue-text><img class = center src=""/static/experiments/stop_signal_with_flanker/images/H.png""></img>",,go,,413450,0.0,test_trial,81,stop-signal,
82,,,,,,,,500.0,,,,,,,stop_signal_with_flanker,,,,,,,,0.0-3.0-4.0,-1.0,none,,-1,500.0,<div class = centerbox><div class = fixation>+</div></div>,,,,413953,0.0,test_fixation,82,poldrack-single-stim,
83,250.0,250.0,250.0,500.0,"<div class = bigbox><div class = centerbox><div class = starbox><img class = star src=""/static/experiments/stop_signal_with_flanker/images/stopSignal.png""></img></div></div></div>",go,,2000.0,H,,72.0,1.0,0.0,2.0,stop_signal_with_flanker,,,,,,H_incongruent,F,0.0-3.0-5.0,72.0,"[70, 72]",,593,1000.0,"<div class = bigbox><div class = centerbox><div class = flankerLeft_2><div class = cue-text><img class = center src=""/static/experiments/stop_signal_with_flanker/images/F.png""></img></div></div><div class = flankerLeft_1><div class = cue-text><img class = center src=""/static/experiments/stop_signal_with_flanker/images/F.png""></img></div></div><div class = flankerMiddle><div class = cue-text><img class = center src=""/static/experiments/stop_signal_with_flanker/images/H.png""></img></div></div><div class = flankerRight_1><div class = cue-text><img class = center src=""/static/experiments/stop_signal_with_flanker/images/F.png""></img></div></div><div class = flankerRight_2><div class = cue-text><img class = center src=""/static/experiments/stop_signal_with_flanker/images/F.png""></img>",,go,,415957,0.0,test_trial,83,stop-signal,
84,,,,,,,,500.0,,,,,,,stop_signal_with_flanker,,,,,,,,0.0-3.0-6.0,-1.0,none,,-1,500.0,<div class = centerbox><div class = fixation>+</div></div>,,,,416460,0.0,test_fixation,84,poldrack-single-stim,
85,250.0,250.0,250.0,500.0,"<div class = bigbox><div class = centerbox><div class = starbox><img class = star src=""/static/experiments/stop_signal_with_flanker/images/stopSignal.png""></img></div></div></div>",go,,2000.0,F,,70.0,1.0,0.0,3.0,stop_signal_with_flanker,,,,,,F_incongruent,H,0.0-3.0-7.0,70.0,"[70, 72]",,520,1000.0,"<div class = bigbox><div class = centerbox><div class = flankerLeft_2><div class = cue-text><img class = center src=""/static/experiments/stop_signal_with_flanker/images/H.png""></img></div></div><div class = flankerLeft_1><div class = cue-text><img class = center src=""/static/experiments/stop_signal_with_flanker/images/H.png""></img></div></div><div class = flankerMiddle><div class = cue-text><img class = center src=""/static/experiments/stop_signal_with_flanker/images/F.png""></img></div></div><div class = flankerRight_1><div class = cue-text><img class = center src=""/static/experiments/stop_signal_with_flanker/images/H.png""></img></div></div><div class = flankerRight_2><div class = cue-text><img class = center src=""/static/experiments/stop_signal_with_flanker/images/H.png""></img>",,go,,418465,0.0,test_trial,85,stop-signal,
86,,,,,,,,500.0,,,,,,,stop_signal_with_flanker,,,,,,,,0.0-3.0-8.0,-1.0,none,,-1,500.0,<div class = centerbox><div class = fixation>+</div></div>,,,,418969,0.0,test_fixation,86,poldrack-single-stim,
87,250.0,250.0,250.0,500.0,"<div class = bigbox><div class = centerbox><div class = starbox><img class = star src=""/static/experiments/stop_signal_with_flanker/images/stopSignal.png""></img></div></div></div>",go,,2000.0,H,,72.0,1.0,0.0,4.0,stop_signal_with_flanker,,,,,,H_incongruent,F,0.0-3.0-9.0,72.0,"[70, 72]",,665,1000.0,"<div class = bigbox><div class = centerbox><div class = flankerLeft_2><div class = cue-text><img class = center src=""/static/experiments/stop_signal_with_flanker/images/F.png""></img></div></div><div class = flankerLeft_1><div class = cue-text><img class = center src=""/static/experiments/stop_signal_with_flanker/images/F.png""></img></div></div><div class = flankerMiddle><div class = cue-text><img class = center src=""/static/experiments/stop_signal_with_flanker/images/H.png""></img></div></div><div class = flankerRight_1><div class = cue-text><img class = center src=""/static/experiments/stop_signal_with_flanker/images/F.png""></img></div></div><div class = flankerRight_2><div class = cue-text><img class = center src=""/static/experiments/stop_signal_with_flanker/images/F.png""></img>",,go,,420972,0.0,test_trial,87,stop-signal,
88,,,,,,,,500.0,,,,,,,stop_signal_with_flanker,,,,,,,,0.0-3.0-10.0,-1.0,none,,-1,500.0,<div class = centerbox><div class = fixation>+</div></div>,,,,421485,0.0,test_fixation,88,poldrack-single-stim,
89,250.0,250.0,250.0,500.0,"<div class = bigbox><div class = centerbox><div class = starbox><img class = star src=""/static/experiments/stop_signal_with_flanker/images/stopSignal.png""></img></div></div></div>",go,,2000.0,H,,72.0,1.0,0.0,5.0,stop_signal_with_flanker,,,,,,H_incongruent,F,0.0-3.0-11.0,72.0,"[70, 72]",,473,1000.0,"<div class = bigbox><div class = centerbox><div class = flankerLeft_2><div class = cue-text><img class = center src=""/static/experiments/stop_signal_with_flanker/images/F.png""></img></div></div><div class = flankerLeft_1><div class = cue-text><img class = center src=""/static/experiments/stop_signal_with_flanker/images/F.png""></img></div></div><div class = flankerMiddle><div class = cue-text><img class = center src=""/static/experiments/stop_signal_with_flanker/images/H.png""></img></div></div><div class = flankerRight_1><div class = cue-text><img class = center src=""/static/experiments/stop_signal_with_flanker/images/F.png""></img></div></div><div class = flankerRight_2><div class = cue-text><img class = center src=""/static/experiments/stop_signal_with_flanker/images/F.png""></img>",,go,,423491,0.0,test_trial,89,stop-signal,
90,,,,,,,,500.0,,,,,,,stop_signal_with_flanker,,,,,,,,0.0-3.0-12.0,-1.0,none,,-1,500.0,<div class = centerbox><div class = fixation>+</div></div>,,,,423996,0.0,test_fixation,90,poldrack-single-stim,
91,250.0,250.0,250.0,500.0,"<div class = bigbox><div class = centerbox><div class = starbox><img class = star src=""/static/experiments/stop_signal_with_flanker/images/stopSignal.png""></img></div></div></div>",stop,,2000.0,H,,-1.0,0.0,0.0,6.0,stop_signal_with_flanker,,,,,,H_incongruent,F,0.0-3.0-13.0,72.0,"[70, 72]",,517,1000.0,"<div class = bigbox><div class = centerbox><div class = flankerLeft_2><div class = cue-text><img class = center src=""/static/experiments/stop_signal_with_flanker/images/F.png""></img></div></div><div class = flankerLeft_1><div class = cue-text><img class = center src=""/static/experiments/stop_signal_with_flanker/images/F.png""></img></div></div><div class = flankerMiddle><div class = cue-text><img class = center src=""/static/experiments/stop_signal_with_flanker/images/H.png""></img></div></div><div class = flankerRight_1><div class = cue-text><img class = center src=""/static/experiments/stop_signal_with_flanker/images/F.png""></img></div></div><div class = flankerRight_2><div class = cue-text><img class = center src=""/static/experiments/stop_signal_with_flanker/images/F.png""></img>",0.0,stop,,426006,0.0,test_trial,91,stop-signal,
92,,,,,,,,500.0,,,,,,,stop_signal_with_flanker,,,,,,,,0.0-3.0-14.0,-1.0,none,,-1,500.0,<div class = centerbox><div class = fixation>+</div></div>,,,,426509,0.0,test_fixation,92,poldrack-single-stim,
93,250.0,200.0,250.0,500.0,"<div class = bigbox><div class = centerbox><div class = starbox><img class = star src=""/static/experiments/stop_signal_with_flanker/images/stopSignal.png""></img></div></div></div>",go,,2000.0,F,,70.0,1.0,0.0,7.0,stop_signal_with_flanker,,,,,,F_congruent,F,0.0-3.0-15.0,70.0,"[70, 72]",,533,1000.0,"<div class = bigbox><div class = centerbox><div class = flankerLeft_2><div class = cue-text><img class = center src=""/static/experiments/stop_signal_with_flanker/images/F.png""></img></div></div><div class = flankerLeft_1><div class = cue-text><img class = center src=""/static/experiments/stop_signal_with_flanker/images/F.png""></img></div></div><div class = flankerMiddle><div class = cue-text><img class = center src=""/static/experiments/stop_signal_with_flanker/images/F.png""></img></div></div><div class = flankerRight_1><div class = cue-text><img class = center src=""/static/experiments/stop_signal_with_flanker/images/F.png""></img></div></div><div class = flankerRight_2><div class = cue-text><img class = center src=""/static/experiments/stop_signal_with_flanker/images/F.png""></img>",,go,,428513,0.0,test_trial,93,stop-signal,
94,,,,,,,,500.0,,,,,,,stop_signal_with_flanker,,,,,,,,0.0-3.0-16.0,-1.0,none,,-1,500.0,<div class = centerbox><div class = fixation>+</div></div>,,,,429015,0.0,test_fixation,94,poldrack-single-stim,
95,250.0,200.0,250.0,500.0,"<div class = bigbox><div class = centerbox><div class = starbox><img class = star src=""/static/experiments/stop_signal_with_flanker/images/stopSignal.png""></img></div></div></div>",go,,2000.0,H,,72.0,1.0,0.0,8.0,stop_signal_with_flanker,,,,,,H_congruent,H,0.0-3.0-17.0,72.0,"[70, 72]",,467,1000.0,"<div class = bigbox><div class = centerbox><div class = flankerLeft_2><div class = cue-text><img class = center src=""/static/experiments/stop_signal_with_flanker/images/H.png""></img></div></div><div class = flankerLeft_1><div class = cue-text><img class = center src=""/static/experiments/stop_signal_with_flanker/images/H.png""></img></div></div><div class = flankerMiddle><div class = cue-text><img class = center src=""/static/experiments/stop_signal_with_flanker/images/H.png""></img></div></div><div class = flankerRight_1><div class = cue-text><img class = center src=""/static/experiments/stop_signal_with_flanker/images/H.png""></img></div></div><div class = flankerRight_2><div class = cue-text><img class = center src=""/static/experiments/stop_signal_with_flanker/images/H.png""></img>",,go,,431019,0.0,test_trial,95,stop-signal,
96,,,,,,,,500.0,,,,,,,stop_signal_with_flanker,,,,,,,,0.0-3.0-18.0,-1.0,none,,-1,500.0,<div class = centerbox><div class = fixation>+</div></div>,,,,431522,0.0,test_fixation,96,poldrack-single-stim,
97,250.0,200.0,250.0,500.0,"<div class = bigbox><div class = centerbox><div class = starbox><img class = star src=""/static/experiments/stop_signal_with_flanker/images/stopSignal.png""></img></div></div></div>",stop,,2000.0,H,,-1.0,0.0,0.0,9.0,stop_signal_with_flanker,,,,,,H_congruent,H,0.0-3.0-19.0,72.0,"[70, 72]",,512,1000.0,"<div class = bigbox><div class = centerbox><div class = flankerLeft_2><div class = cue-text><img class = center src=""/static/experiments/stop_signal_with_flanker/images/H.png""></img></div></div><div class = flankerLeft_1><div class = cue-text><img class = center src=""/static/experiments/stop_signal_with_flanker/images/H.png""></img></div></div><div class = flankerMiddle><div class = cue-text><img class = center src=""/static/experiments/stop_signal_with_flanker/images/H.png""></img></div></div><div class = flankerRight_1><div class = cue-text><img class = center src=""/static/experiments/stop_signal_with_flanker/images/H.png""></img></div></div><div class = flankerRight_2><div class = cue-text><img class = center src=""/static/experiments/stop_signal_with_flanker/images/H.png""></img>",0.0,stop,,433529,0.0,test_trial,97,stop-signal,
98,,,,,,,,500.0,,,,,,,stop_signal_with_flanker,,,,,,,,0.0-3.0-20.0,-1.0,none,,-1,500.0,<div class = centerbox><div class = fixation>+</div></div>,,,,434031,0.0,test_fixation,98,poldrack-single-stim,
99,200.0,200.0,200.0,500.0,"<div class = bigbox><div class = centerbox><div class = starbox><img class = star src=""/static/experiments/stop_signal_with_flanker/images/stopSignal.png""></img></div></div></div>",stop,,2000.0,H,,-1.0,1.0,0.0,10.0,stop_signal_with_flanker,,,,,,H_incongruent,F,0.0-3.0-21.0,-1.0,"[70, 72]",,-1,1000.0,"<div class = bigbox><div class = centerbox><div class = flankerLeft_2><div class = cue-text><img class = center src=""/static/experiments/stop_signal_with_flanker/images/F.png""></img></div></div><div class = flankerLeft_1><div class = cue-text><img class = center src=""/static/experiments/stop_signal_with_flanker/images/F.png""></img></div></div><div class = flankerMiddle><div class = cue-text><img class = center src=""/static/experiments/stop_signal_with_flanker/images/H.png""></img></div></div><div class = flankerRight_1><div class = cue-text><img class = center src=""/static/experiments/stop_signal_with_flanker/images/F.png""></img></div></div><div class = flankerRight_2><div class = cue-text><img class = center src=""/static/experiments/stop_signal_with_flanker/images/F.png""></img>",1.0,stop,,436035,0.0,test_trial,99,stop-signal,
100,,,,,,,,500.0,,,,,,,stop_signal_with_flanker,,,,,,,,0.0-3.0-22.0,-1.0,none,,-1,500.0,<div class = centerbox><div class = fixation>+</div></div>,,,,436538,0.0,test_fixation,100,poldrack-single-stim,
101,200.0,250.0,250.0,500.0,"<div class = bigbox><div class = centerbox><div class = starbox><img class = star src=""/static/experiments/stop_signal_with_flanker/images/stopSignal.png""></img></div></div></div>",go,,2000.0,F,,70.0,1.0,0.0,11.0,stop_signal_with_flanker,,,,,,F_incongruent,H,0.0-3.0-23.0,70.0,"[70, 72]",,480,1000.0,"<div class = bigbox><div class = centerbox><div class = flankerLeft_2><div class = cue-text><img class = center src=""/static/experiments/stop_signal_with_flanker/images/H.png""></img></div></div><div class = flankerLeft_1><div class = cue-text><img class = center src=""/static/experiments/stop_signal_with_flanker/images/H.png""></img></div></div><div class = flankerMiddle><div class = cue-text><img class = center src=""/static/experiments/stop_signal_with_flanker/images/F.png""></img></div></div><div class = flankerRight_1><div class = cue-text><img class = center src=""/static/experiments/stop_signal_with_flanker/images/H.png""></img></div></div><div class = flankerRight_2><div class = cue-text><img class = center src=""/static/experiments/stop_signal_with_flanker/images/H.png""></img>",,go,,438541,0.0,test_trial,101,stop-signal,
102,,,,,,,,500.0,,,,,,,stop_signal_with_flanker,,,,,,,,0.0-3.0-24.0,-1.0,none,,-1,500.0,<div class = centerbox><div class = fixation>+</div></div>,,,,439043,0.0,test_fixation,102,poldrack-single-stim,
103,200.0,250.0,200.0,500.0,"<div class = bigbox><div class = centerbox><div class = starbox><img class = star src=""/static/experiments/stop_signal_with_flanker/images/stopSignal.png""></img></div></div></div>",go,,2000.0,F,,70.0,1.0,0.0,12.0,stop_signal_with_flanker,,,,,,F_congruent,F,0.0-3.0-25.0,70.0,"[70, 72]",,583,1000.0,"<div class = bigbox><div class = centerbox><div class = flankerLeft_2><div class = cue-text><img class = center src=""/static/experiments/stop_signal_with_flanker/images/F.png""></img></div></div><div class = flankerLeft_1><div class = cue-text><img class = center src=""/static/experiments/stop_signal_with_flanker/images/F.png""></img></div></div><div class = flankerMiddle><div class = cue-text><img class = center src=""/static/experiments/stop_signal_with_flanker/images/F.png""></img></div></div><div class = flankerRight_1><div class = cue-text><img class = center src=""/static/experiments/stop_signal_with_flanker/images/F.png""></img></div></div><div class = flankerRight_2><div class = cue-text><img class = center src=""/static/experiments/stop_signal_with_flanker/images/F.png""></img>",,go,,441047,0.0,test_trial,103,stop-signal,
104,,,,,,,,500.0,,,,,,,stop_signal_with_flanker,,,,,,,,0.0-3.0-26.0,-1.0,none,,-1,500.0,<div class = centerbox><div class = fixation>+</div></div>,,,,441549,0.0,test_fixation,104,poldrack-single-stim,
105,200.0,250.0,250.0,500.0,"<div class = bigbox><div class = centerbox><div class = starbox><img class = star src=""/static/experiments/stop_signal_with_flanker/images/stopSignal.png""></img></div></div></div>",go,,2000.0,F,,70.0,1.0,0.0,13.0,stop_signal_with_flanker,,,,,,F_incongruent,H,0.0-3.0-27.0,70.0,"[70, 72]",,474,1000.0,"<div class = bigbox><div class = centerbox><div class = flankerLeft_2><div class = cue-text><img class = center src=""/static/experiments/stop_signal_with_flanker/images/H.png""></img></div></div><div class = flankerLeft_1><div class = cue-text><img class = center src=""/static/experiments/stop_signal_with_flanker/images/H.png""></img></div></div><div class = flankerMiddle><div class = cue-text><img class = center src=""/static/experiments/stop_signal_with_flanker/images/F.png""></img></div></div><div class = flankerRight_1><div class = cue-text><img class = center src=""/static/experiments/stop_signal_with_flanker/images/H.png""></img></div></div><div class = flankerRight_2><div class = cue-text><img class = center src=""/static/experiments/stop_signal_with_flanker/images/H.png""></img>",,go,,443555,0.0,test_trial,105,stop-signal,
106,,,,,,,,500.0,,,,,,,stop_signal_with_flanker,,,,,,,,0.0-3.0-28.0,-1.0,none,,-1,500.0,<div class = centerbox><div class = fixation>+</div></div>,,,,444065,0.0,test_fixation,106,poldrack-single-stim,
107,200.0,250.0,200.0,500.0,"<div class = bigbox><div class = centerbox><div class = starbox><img class = star src=""/static/experiments/stop_signal_with_flanker/images/stopSignal.png""></img></div></div></div>",go,,2000.0,F,,70.0,1.0,0.0,14.0,stop_signal_with_flanker,,,,,,F_congruent,F,0.0-3.0-29.0,70.0,"[70, 72]",,560,1000.0,"<div class = bigbox><div class = centerbox><div class = flankerLeft_2><div class = cue-text><img class = center src=""/static/experiments/stop_signal_with_flanker/images/F.png""></img></div></div><div class = flankerLeft_1><div class = cue-text><img class = center src=""/static/experiments/stop_signal_with_flanker/images/F.png""></img></div></div><div class = flankerMiddle><div class = cue-text><img class = center src=""/static/experiments/stop_signal_with_flanker/images/F.png""></img></div></div><div class = flankerRight_1><div class = cue-text><img class = center src=""/static/experiments/stop_signal_with_flanker/images/F.png""></img></div></div><div class = flankerRight_2><div class = cue-text><img class = center src=""/static/experiments/stop_signal_with_flanker/images/F.png""></img>",,go,,446090,0.0,test_trial,107,stop-signal,
108,,,,,,,,500.0,,,,,,,stop_signal_with_flanker,,,,,,,,0.0-3.0-30.0,-1.0,none,,-1,500.0,<div class = centerbox><div class = fixation>+</div></div>,,,,446595,0.0,test_fixation,108,poldrack-single-stim,
109,200.0,250.0,250.0,500.0,"<div class = bigbox><div class = centerbox><div class = starbox><img class = star src=""/static/experiments/stop_signal_with_flanker/images/stopSignal.png""></img></div></div></div>",go,,2000.0,F,,70.0,1.0,0.0,15.0,stop_signal_with_flanker,,,,,,F_incongruent,H,0.0-3.0-31.0,70.0,"[70, 72]",,598,1000.0,"<div class = bigbox><div class = centerbox><div class = flankerLeft_2><div class = cue-text><img class = center src=""/static/experiments/stop_signal_with_flanker/images/H.png""></img></div></div><div class = flankerLeft_1><div class = cue-text><img class = center src=""/static/experiments/stop_signal_with_flanker/images/H.png""></img></div></div><div class = flankerMiddle><div class = cue-text><img class = center src=""/static/experiments/stop_signal_with_flanker/images/F.png""></img></div></div><div class = flankerRight_1><div class = cue-text><img class = center src=""/static/experiments/stop_signal_with_flanker/images/H.png""></img></div></div><div class = flankerRight_2><div class = cue-text><img class = center src=""/static/experiments/stop_signal_with_flanker/images/H.png""></img>",,go,,448599,0.0,test_trial,109,stop-signal,
110,,,,,,,,500.0,,,,,,,stop_signal_with_flanker,,,,,,,,0.0-3.0-32.0,-1.0,none,,-1,500.0,<div class = centerbox><div class = fixation>+</div></div>,,,,449103,0.0,test_fixation,110,poldrack-single-stim,
111,200.0,250.0,250.0,500.0,"<div class = bigbox><div class = centerbox><div class = starbox><img class = star src=""/static/experiments/stop_signal_with_flanker/images/stopSignal.png""></img></div></div></div>",stop,,2000.0,F,,-1.0,0.0,0.0,16.0,stop_signal_with_flanker,,,,,,F_incongruent,H,0.0-3.0-33.0,70.0,"[70, 72]",,532,1000.0,"<div class = bigbox><div class = centerbox><div class = flankerLeft_2><div class = cue-text><img class = center src=""/static/experiments/stop_signal_with_flanker/images/H.png""></img></div></div><div class = flankerLeft_1><div class = cue-text><img class = center src=""/static/experiments/stop_signal_with_flanker/images/H.png""></img></div></div><div class = flankerMiddle><div class = cue-text><img class = center src=""/static/experiments/stop_signal_with_flanker/images/F.png""></img></div></div><div class = flankerRight_1><div class = cue-text><img class = center src=""/static/experiments/stop_signal_with_flanker/images/H.png""></img></div></div><div class = flankerRight_2><div class = cue-text><img class = center src=""/static/experiments/stop_signal_with_flanker/images/H.png""></img>",0.0,stop,,451106,0.0,test_trial,111,stop-signal,
112,,,,,,,,500.0,,,,,,,stop_signal_with_flanker,,,,,,,,0.0-3.0-34.0,-1.0,none,,-1,500.0,<div class = centerbox><div class = fixation>+</div></div>,,,,451621,0.0,test_fixation,112,poldrack-single-stim,
113,200.0,200.0,200.0,500.0,"<div class = bigbox><div class = centerbox><div class = starbox><img class = star src=""/static/experiments/stop_signal_with_flanker/images/stopSignal.png""></img></div></div></div>",stop,,2000.0,F,,-1.0,1.0,0.0,17.0,stop_signal_with_flanker,,,,,,F_incongruent,H,0.0-3.0-35.0,-1.0,"[70, 72]",,-1,1000.0,"<div class = bigbox><div class = centerbox><div class = flankerLeft_2><div class = cue-text><img class = center src=""/static/experiments/stop_signal_with_flanker/images/H.png""></img></div></div><div class = flankerLeft_1><div class = cue-text><img class = center src=""/static/experiments/stop_signal_with_flanker/images/H.png""></img></div></div><div class = flankerMiddle><div class = cue-text><img class = center src=""/static/experiments/stop_signal_with_flanker/images/F.png""></img></div></div><div class = flankerRight_1><div class = cue-text><img class = center src=""/static/experiments/stop_signal_with_flanker/images/H.png""></img></div></div><div class = flankerRight_2><div class = cue-text><img class = center src=""/static/experiments/stop_signal_with_flanker/images/H.png""></img>",1.0,stop,,453628,0.0,test_trial,113,stop-signal,
114,,,,,,,,500.0,,,,,,,stop_signal_with_flanker,,,,,,,,0.0-3.0-36.0,-1.0,none,,-1,500.0,<div class = centerbox><div class = fixation>+</div></div>,,,,454144,0.0,test_fixation,114,poldrack-single-stim,
115,200.0,250.0,200.0,500.0,"<div class = bigbox><div class = centerbox><div class = starbox><img class = star src=""/static/experiments/stop_signal_with_flanker/images/stopSignal.png""></img></div></div></div>",stop,,2000.0,H,,-1.0,1.0,0.0,18.0,stop_signal_with_flanker,,,,,,H_congruent,H,0.0-3.0-37.0,-1.0,"[70, 72]",,-1,1000.0,"<div class = bigbox><div class = centerbox><div class = flankerLeft_2><div class = cue-text><img class = center src=""/static/experiments/stop_signal_with_flanker/images/H.png""></img></div></div><div class = flankerLeft_1><div class = cue-text><img class = center src=""/static/experiments/stop_signal_with_flanker/images/H.png""></img></div></div><div class = flankerMiddle><div class = cue-text><img class = center src=""/static/experiments/stop_signal_with_flanker/images/H.png""></img></div></div><div class = flankerRight_1><div class = cue-text><img class = center src=""/static/experiments/stop_signal_with_flanker/images/H.png""></img></div></div><div class = flankerRight_2><div class = cue-text><img class = center src=""/static/experiments/stop_signal_with_flanker/images/H.png""></img>",1.0,stop,,456148,0.0,test_trial,115,stop-signal,
116,,,,,,,,500.0,,,,,,,stop_signal_with_flanker,,,,,,,,0.0-3.0-38.0,-1.0,none,,-1,500.0,<div class = centerbox><div class = fixation>+</div></div>,,,,456651,0.0,test_fixation,116,poldrack-single-stim,
117,250.0,250.0,250.0,500.0,"<div class = bigbox><div class = centerbox><div class = starbox><img class = star src=""/static/experiments/stop_signal_with_flanker/images/stopSignal.png""></img></div></div></div>",go,,2000.0,F,,70.0,1.0,0.0,19.0,stop_signal_with_flanker,,,,,,F_congruent,F,0.0-3.0-39.0,70.0,"[70, 72]",,632,1000.0,"<div class = bigbox><div class = centerbox><div class = flankerLeft_2><div class = cue-text><img class = center src=""/static/experiments/stop_signal_with_flanker/images/F.png""></img></div></div><div class = flankerLeft_1><div class = cue-text><img class = center src=""/static/experiments/stop_signal_with_flanker/images/F.png""></img></div></div><div class = flankerMiddle><div class = cue-text><img class = center src=""/static/experiments/stop_signal_with_flanker/images/F.png""></img></div></div><div class = flankerRight_1><div class = cue-text><img class = center src=""/static/experiments/stop_signal_with_flanker/images/F.png""></img></div></div><div class = flankerRight_2><div class = cue-text><img class = center src=""/static/experiments/stop_signal_with_flanker/images/F.png""></img>",,go,,458654,0.0,test_trial,117,stop-signal,
118,,,,,,,,500.0,,,,,,,stop_signal_with_flanker,,,,,,,,0.0-3.0-40.0,-1.0,none,,-1,500.0,<div class = centerbox><div class = fixation>+</div></div>,,,,459157,0.0,test_fixation,118,poldrack-single-stim,
119,250.0,250.0,250.0,500.0,"<div class = bigbox><div class = centerbox><div class = starbox><img class = star src=""/static/experiments/stop_signal_with_flanker/images/stopSignal.png""></img></div></div></div>",go,,2000.0,F,,70.0,1.0,0.0,20.0,stop_signal_with_flanker,,,,,,F_incongruent,H,0.0-3.0-41.0,70.0,"[70, 72]",,809,1000.0,"<div class = bigbox><div class = centerbox><div class = flankerLeft_2><div class = cue-text><img class = center src=""/static/experiments/stop_signal_with_flanker/images/H.png""></img></div></div><div class = flankerLeft_1><div class = cue-text><img class = center src=""/static/experiments/stop_signal_with_flanker/images/H.png""></img></div></div><div class = flankerMiddle><div class = cue-text><img class = center src=""/static/experiments/stop_signal_with_flanker/images/F.png""></img></div></div><div class = flankerRight_1><div class = cue-text><img class = center src=""/static/experiments/stop_signal_with_flanker/images/H.png""></img></div></div><div class = flankerRight_2><div class = cue-text><img class = center src=""/static/experiments/stop_signal_with_flanker/images/H.png""></img>",,go,,461164,0.0,test_trial,119,stop-signal,
120,,,,,,,,500.0,,,,,,,stop_signal_with_flanker,,,,,,,,0.0-3.0-42.0,-1.0,none,,-1,500.0,<div class = centerbox><div class = fixation>+</div></div>,,,,461667,0.0,test_fixation,120,poldrack-single-stim,
121,250.0,250.0,250.0,500.0,"<div class = bigbox><div class = centerbox><div class = starbox><img class = star src=""/static/experiments/stop_signal_with_flanker/images/stopSignal.png""></img></div></div></div>",go,,2000.0,H,,72.0,1.0,0.0,21.0,stop_signal_with_flanker,,,,,,H_incongruent,F,0.0-3.0-43.0,72.0,"[70, 72]",,566,1000.0,"<div class = bigbox><div class = centerbox><div class = flankerLeft_2><div class = cue-text><img class = center src=""/static/experiments/stop_signal_with_flanker/images/F.png""></img></div></div><div class = flankerLeft_1><div class = cue-text><img class = center src=""/static/experiments/stop_signal_with_flanker/images/F.png""></img></div></div><div class = flankerMiddle><div class = cue-text><img class = center src=""/static/experiments/stop_signal_with_flanker/images/H.png""></img></div></div><div class = flankerRight_1><div class = cue-text><img class = center src=""/static/experiments/stop_signal_with_flanker/images/F.png""></img></div></div><div class = flankerRight_2><div class = cue-text><img class = center src=""/static/experiments/stop_signal_with_flanker/images/F.png""></img>",,go,,463671,0.0,test_trial,121,stop-signal,
122,,,,,,,,500.0,,,,,,,stop_signal_with_flanker,,,,,,,,0.0-3.0-44.0,-1.0,none,,-1,500.0,<div class = centerbox><div class = fixation>+</div></div>,,,,464174,0.0,test_fixation,122,poldrack-single-stim,
123,250.0,250.0,250.0,500.0,"<div class = bigbox><div class = centerbox><div class = starbox><img class = star src=""/static/experiments/stop_signal_with_flanker/images/stopSignal.png""></img></div></div></div>",go,,2000.0,F,,70.0,1.0,0.0,22.0,stop_signal_with_flanker,,,,,,F_congruent,F,0.0-3.0-45.0,70.0,"[70, 72]",,525,1000.0,"<div class = bigbox><div class = centerbox><div class = flankerLeft_2><div class = cue-text><img class = center src=""/static/experiments/stop_signal_with_flanker/images/F.png""></img></div></div><div class = flankerLeft_1><div class = cue-text><img class = center src=""/static/experiments/stop_signal_with_flanker/images/F.png""></img></div></div><div class = flankerMiddle><div class = cue-text><img class = center src=""/static/experiments/stop_signal_with_flanker/images/F.png""></img></div></div><div class = flankerRight_1><div class = cue-text><img class = center src=""/static/experiments/stop_signal_with_flanker/images/F.png""></img></div></div><div class = flankerRight_2><div class = cue-text><img class = center src=""/static/experiments/stop_signal_with_flanker/images/F.png""></img>",,go,,466178,0.0,test_trial,123,stop-signal,
124,,,,,,,,500.0,,,,,,,stop_signal_with_flanker,,,,,,,,0.0-3.0-46.0,-1.0,none,,-1,500.0,<div class = centerbox><div class = fixation>+</div></div>,,,,466680,0.0,test_fixation,124,poldrack-single-stim,
125,250.0,250.0,250.0,500.0,"<div class = bigbox><div class = centerbox><div class = starbox><img class = star src=""/static/experiments/stop_signal_with_flanker/images/stopSignal.png""></img></div></div></div>",stop,,2000.0,F,,-1.0,0.0,0.0,23.0,stop_signal_with_flanker,,,,,,F_congruent,F,0.0-3.0-47.0,70.0,"[70, 72]",,499,1000.0,"<div class = bigbox><div class = centerbox><div class = flankerLeft_2><div class = cue-text><img class = center src=""/static/experiments/stop_signal_with_flanker/images/F.png""></img></div></div><div class = flankerLeft_1><div class = cue-text><img class = center src=""/static/experiments/stop_signal_with_flanker/images/F.png""></img></div></div><div class = flankerMiddle><div class = cue-text><img class = center src=""/static/experiments/stop_signal_with_flanker/images/F.png""></img></div></div><div class = flankerRight_1><div class = cue-text><img class = center src=""/static/experiments/stop_signal_with_flanker/images/F.png""></img></div></div><div class = flankerRight_2><div class = cue-text><img class = center src=""/static/experiments/stop_signal_with_flanker/images/F.png""></img>",0.0,stop,,468691,0.0,test_trial,125,stop-signal,
126,,,,,,,,500.0,,,,,,,stop_signal_with_flanker,,,,,,,,0.0-3.0-48.0,-1.0,none,,-1,500.0,<div class = centerbox><div class = fixation>+</div></div>,,,,469197,0.0,test_fixation,126,poldrack-single-stim,
127,200.0,250.0,250.0,500.0,"<div class = bigbox><div class = centerbox><div class = starbox><img class = star src=""/static/experiments/stop_signal_with_flanker/images/stopSignal.png""></img></div></div></div>",stop,,2000.0,H,,-1.0,1.0,0.0,24.0,stop_signal_with_flanker,,,,,,H_incongruent,F,0.0-3.0-49.0,-1.0,"[70, 72]",,-1,1000.0,"<div class = bigbox><div class = centerbox><div class = flankerLeft_2><div class = cue-text><img class = center src=""/static/experiments/stop_signal_with_flanker/images/F.png""></img></div></div><div class = flankerLeft_1><div class = cue-text><img class = center src=""/static/experiments/stop_signal_with_flanker/images/F.png""></img></div></div><div class = flankerMiddle><div class = cue-text><img class = center src=""/static/experiments/stop_signal_with_flanker/images/H.png""></img></div></div><div class = flankerRight_1><div class = cue-text><img class = center src=""/static/experiments/stop_signal_with_flanker/images/F.png""></img></div></div><div class = flankerRight_2><div class = cue-text><img class = center src=""/static/experiments/stop_signal_with_flanker/images/F.png""></img>",1.0,stop,,471251,0.0,test_trial,127,stop-signal,
128,,,,,,,,500.0,,,,,,,stop_signal_with_flanker,,,,,,,,0.0-3.0-50.0,-1.0,none,,-1,500.0,<div class = centerbox><div class = fixation>+</div></div>,,,,471754,0.0,test_fixation,128,poldrack-single-stim,
129,200.0,300.0,200.0,500.0,"<div class = bigbox><div class = centerbox><div class = starbox><img class = star src=""/static/experiments/stop_signal_with_flanker/images/stopSignal.png""></img></div></div></div>",stop,,2000.0,H,,-1.0,1.0,0.0,25.0,stop_signal_with_flanker,,,,,,H_congruent,H,0.0-3.0-51.0,-1.0,"[70, 72]",,-1,1000.0,"<div class = bigbox><div class = centerbox><div class = flankerLeft_2><div class = cue-text><img class = center src=""/static/experiments/stop_signal_with_flanker/images/H.png""></img></div></div><div class = flankerLeft_1><div class = cue-text><img class = center src=""/static/experiments/stop_signal_with_flanker/images/H.png""></img></div></div><div class = flankerMiddle><div class = cue-text><img class = center src=""/static/experiments/stop_signal_with_flanker/images/H.png""></img></div></div><div class = flankerRight_1><div class = cue-text><img class = center src=""/static/experiments/stop_signal_with_flanker/images/H.png""></img></div></div><div class = flankerRight_2><div class = cue-text><img class = center src=""/static/experiments/stop_signal_with_flanker/images/H.png""></img>",1.0,stop,,473758,0.0,test_trial,129,stop-signal,
130,,,,,,,,500.0,,,,,,,stop_signal_with_flanker,,,,,,,,0.0-3.0-52.0,-1.0,none,,-1,500.0,<div class = centerbox><div class = fixation>+</div></div>,,,,474262,0.0,test_fixation,130,poldrack-single-stim,
131,250.0,300.0,250.0,500.0,"<div class = bigbox><div class = centerbox><div class = starbox><img class = star src=""/static/experiments/stop_signal_with_flanker/images/stopSignal.png""></img></div></div></div>",stop,,2000.0,F,,-1.0,1.0,0.0,26.0,stop_signal_with_flanker,,,,,,F_congruent,F,0.0-3.0-53.0,-1.0,"[70, 72]",,-1,1000.0,"<div class = bigbox><div class = centerbox><div class = flankerLeft_2><div class = cue-text><img class = center src=""/static/experiments/stop_signal_with_flanker/images/F.png""></img></div></div><div class = flankerLeft_1><div class = cue-text><img class = center src=""/static/experiments/stop_signal_with_flanker/images/F.png""></img></div></div><div class = flankerMiddle><div class = cue-text><img class = center src=""/static/experiments/stop_signal_with_flanker/images/F.png""></img></div></div><div class = flankerRight_1><div class = cue-text><img class = center src=""/static/experiments/stop_signal_with_flanker/images/F.png""></img></div></div><div class = flankerRight_2><div class = cue-text><img class = center src=""/static/experiments/stop_signal_with_flanker/images/F.png""></img>",1.0,stop,,476265,0.0,test_trial,131,stop-signal,
132,,,,,,,,500.0,,,,,,,stop_signal_with_flanker,,,,,,,,0.0-3.0-54.0,-1.0,none,,-1,500.0,<div class = centerbox><div class = fixation>+</div></div>,,,,476767,0.0,test_fixation,132,poldrack-single-stim,
133,300.0,300.0,300.0,500.0,"<div class = bigbox><div class = centerbox><div class = starbox><img class = star src=""/static/experiments/stop_signal_with_flanker/images/stopSignal.png""></img></div></div></div>",stop,,2000.0,F,,-1.0,1.0,0.0,27.0,stop_signal_with_flanker,,,,,,F_congruent,F,0.0-3.0-55.0,-1.0,"[70, 72]",,-1,1000.0,"<div class = bigbox><div class = centerbox><div class = flankerLeft_2><div class = cue-text><img class = center src=""/static/experiments/stop_signal_with_flanker/images/F.png""></img></div></div><div class = flankerLeft_1><div class = cue-text><img class = center src=""/static/experiments/stop_signal_with_flanker/images/F.png""></img></div></div><div class = flankerMiddle><div class = cue-text><img class = center src=""/static/experiments/stop_signal_with_flanker/images/F.png""></img></div></div><div class = flankerRight_1><div class = cue-text><img class = center src=""/static/experiments/stop_signal_with_flanker/images/F.png""></img></div></div><div class = flankerRight_2><div class = cue-text><img class = center src=""/static/experiments/stop_signal_with_flanker/images/F.png""></img>",1.0,stop,,478786,0.0,test_trial,133,stop-signal,
134,,,,,,,,500.0,,,,,,,stop_signal_with_flanker,,,,,,,,0.0-3.0-56.0,-1.0,none,,-1,500.0,<div class = centerbox><div class = fixation>+</div></div>,,,,479289,0.0,test_fixation,134,poldrack-single-stim,
135,350.0,300.0,300.0,500.0,"<div class = bigbox><div class = centerbox><div class = starbox><img class = star src=""/static/experiments/stop_signal_with_flanker/images/stopSignal.png""></img></div></div></div>",go,,2000.0,H,,72.0,1.0,0.0,28.0,stop_signal_with_flanker,,,,,,H_incongruent,F,0.0-3.0-57.0,72.0,"[70, 72]",,667,1000.0,"<div class = bigbox><div class = centerbox><div class = flankerLeft_2><div class = cue-text><img class = center src=""/static/experiments/stop_signal_with_flanker/images/F.png""></img></div></div><div class = flankerLeft_1><div class = cue-text><img class = center src=""/static/experiments/stop_signal_with_flanker/images/F.png""></img></div></div><div class = flankerMiddle><div class = cue-text><img class = center src=""/static/experiments/stop_signal_with_flanker/images/H.png""></img></div></div><div class = flankerRight_1><div class = cue-text><img class = center src=""/static/experiments/stop_signal_with_flanker/images/F.png""></img></div></div><div class = flankerRight_2><div class = cue-text><img class = center src=""/static/experiments/stop_signal_with_flanker/images/F.png""></img>",,go,,481298,0.0,test_trial,135,stop-signal,
136,,,,,,,,500.0,,,,,,,stop_signal_with_flanker,,,,,,,,0.0-3.0-58.0,-1.0,none,,-1,500.0,<div class = centerbox><div class = fixation>+</div></div>,,,,481800,0.0,test_fixation,136,poldrack-single-stim,
137,350.0,300.0,350.0,500.0,"<div class = bigbox><div class = centerbox><div class = starbox><img class = star src=""/static/experiments/stop_signal_with_flanker/images/stopSignal.png""></img></div></div></div>",stop,,2000.0,H,,-1.0,1.0,0.0,29.0,stop_signal_with_flanker,,,,,,H_congruent,H,0.0-3.0-59.0,-1.0,"[70, 72]",,-1,1000.0,"<div class = bigbox><div class = centerbox><div class = flankerLeft_2><div class = cue-text><img class = center src=""/static/experiments/stop_signal_with_flanker/images/H.png""></img></div></div><div class = flankerLeft_1><div class = cue-text><img class = center src=""/static/experiments/stop_signal_with_flanker/images/H.png""></img></div></div><div class = flankerMiddle><div class = cue-text><img class = center src=""/static/experiments/stop_signal_with_flanker/images/H.png""></img></div></div><div class = flankerRight_1><div class = cue-text><img class = center src=""/static/experiments/stop_signal_with_flanker/images/H.png""></img></div></div><div class = flankerRight_2><div class = cue-text><img class = center src=""/static/experiments/stop_signal_with_flanker/images/H.png""></img>",1.0,stop,,483804,0.0,test_trial,137,stop-signal,
138,,,,,,,,500.0,,,,,,,stop_signal_with_flanker,,,,,,,,0.0-3.0-60.0,-1.0,none,,-1,500.0,<div class = centerbox><div class = fixation>+</div></div>,,,,484315,0.0,test_fixation,138,poldrack-single-stim,
139,400.0,300.0,300.0,500.0,"<div class = bigbox><div class = centerbox><div class = starbox><img class = star src=""/static/experiments/stop_signal_with_flanker/images/stopSignal.png""></img></div></div></div>",stop,,2000.0,F,,-1.0,0.0,0.0,30.0,stop_signal_with_flanker,,,,,,F_incongruent,H,0.0-3.0-61.0,70.0,"[70, 72]",,661,1000.0,"<div class = bigbox><div class = centerbox><div class = flankerLeft_2><div class = cue-text><img class = center src=""/static/experiments/stop_signal_with_flanker/images/H.png""></img></div></div><div class = flankerLeft_1><div class = cue-text><img class = center src=""/static/experiments/stop_signal_with_flanker/images/H.png""></img></div></div><div class = flankerMiddle><div class = cue-text><img class = center src=""/static/experiments/stop_signal_with_flanker/images/F.png""></img></div></div><div class = flankerRight_1><div class = cue-text><img class = center src=""/static/experiments/stop_signal_with_flanker/images/H.png""></img></div></div><div class = flankerRight_2><div class = cue-text><img class = center src=""/static/experiments/stop_signal_with_flanker/images/H.png""></img>",0.0,stop,,486323,0.0,test_trial,139,stop-signal,
140,,,,,,,,500.0,,,,,,,stop_signal_with_flanker,,,,,,,,0.0-3.0-62.0,-1.0,none,,-1,500.0,<div class = centerbox><div class = fixation>+</div></div>,,,,486838,0.0,test_fixation,140,poldrack-single-stim,
141,400.0,250.0,250.0,500.0,"<div class = bigbox><div class = centerbox><div class = starbox><img class = star src=""/static/experiments/stop_signal_with_flanker/images/stopSignal.png""></img></div></div></div>",go,,2000.0,F,,70.0,1.0,0.0,31.0,stop_signal_with_flanker,,,,,,F_incongruent,H,0.0-3.0-63.0,70.0,"[70, 72]",,648,1000.0,"<div class = bigbox><div class = centerbox><div class = flankerLeft_2><div class = cue-text><img class = center src=""/static/experiments/stop_signal_with_flanker/images/H.png""></img></div></div><div class = flankerLeft_1><div class = cue-text><img class = center src=""/static/experiments/stop_signal_with_flanker/images/H.png""></img></div></div><div class = flankerMiddle><div class = cue-text><img class = center src=""/static/experiments/stop_signal_with_flanker/images/F.png""></img></div></div><div class = flankerRight_1><div class = cue-text><img class = center src=""/static/experiments/stop_signal_with_flanker/images/H.png""></img></div></div><div class = flankerRight_2><div class = cue-text><img class = center src=""/static/experiments/stop_signal_with_flanker/images/H.png""></img>",,go,,488844,0.0,test_trial,141,stop-signal,
142,,,,,,,,500.0,,,,,,,stop_signal_with_flanker,,,,,,,,0.0-3.0-64.0,-1.0,none,,-1,500.0,<div class = centerbox><div class = fixation>+</div></div>,,,,489347,0.0,test_fixation,142,poldrack-single-stim,
143,400.0,250.0,400.0,500.0,"<div class = bigbox><div class = centerbox><div class = starbox><img class = star src=""/static/experiments/stop_signal_with_flanker/images/stopSignal.png""></img></div></div></div>",go,,2000.0,H,,72.0,1.0,0.0,32.0,stop_signal_with_flanker,,,,,,H_congruent,H,0.0-3.0-65.0,72.0,"[70, 72]",,654,1000.0,"<div class = bigbox><div class = centerbox><div class = flankerLeft_2><div class = cue-text><img class = center src=""/static/experiments/stop_signal_with_flanker/images/H.png""></img></div></div><div class = flankerLeft_1><div class = cue-text><img class = center src=""/static/experiments/stop_signal_with_flanker/images/H.png""></img></div></div><div class = flankerMiddle><div class = cue-text><img class = center src=""/static/experiments/stop_signal_with_flanker/images/H.png""></img></div></div><div class = flankerRight_1><div class = cue-text><img class = center src=""/static/experiments/stop_signal_with_flanker/images/H.png""></img></div></div><div class = flankerRight_2><div class = cue-text><img class = center src=""/static/experiments/stop_signal_with_flanker/images/H.png""></img>",,go,,491352,0.0,test_trial,143,stop-signal,
144,,,,,,,,500.0,,,,,,,stop_signal_with_flanker,,,,,,,,0.0-3.0-66.0,-1.0,none,,-1,500.0,<div class = centerbox><div class = fixation>+</div></div>,,,,491881,0.0,test_fixation,144,poldrack-single-stim,
145,400.0,250.0,400.0,500.0,"<div class = bigbox><div class = centerbox><div class = starbox><img class = star src=""/static/experiments/stop_signal_with_flanker/images/stopSignal.png""></img></div></div></div>",go,,2000.0,F,,70.0,1.0,0.0,33.0,stop_signal_with_flanker,,,,,,F_congruent,F,0.0-3.0-67.0,70.0,"[70, 72]",,465,1000.0,"<div class = bigbox><div class = centerbox><div class = flankerLeft_2><div class = cue-text><img class = center src=""/static/experiments/stop_signal_with_flanker/images/F.png""></img></div></div><div class = flankerLeft_1><div class = cue-text><img class = center src=""/static/experiments/stop_signal_with_flanker/images/F.png""></img></div></div><div class = flankerMiddle><div class = cue-text><img class = center src=""/static/experiments/stop_signal_with_flanker/images/F.png""></img></div></div><div class = flankerRight_1><div class = cue-text><img class = center src=""/static/experiments/stop_signal_with_flanker/images/F.png""></img></div></div><div class = flankerRight_2><div class = cue-text><img class = center src=""/static/experiments/stop_signal_with_flanker/images/F.png""></img>",,go,,493896,0.0,test_trial,145,stop-signal,
146,,,,,,,,500.0,,,,,,,stop_signal_with_flanker,,,,,,,,0.0-3.0-68.0,-1.0,none,,-1,500.0,<div class = centerbox><div class = fixation>+</div></div>,,,,494399,0.0,test_fixation,146,poldrack-single-stim,
147,400.0,250.0,250.0,500.0,"<div class = bigbox><div class = centerbox><div class = starbox><img class = star src=""/static/experiments/stop_signal_with_flanker/images/stopSignal.png""></img></div></div></div>",stop,,2000.0,F,,-1.0,1.0,0.0,34.0,stop_signal_with_flanker,,,,,,F_incongruent,H,0.0-3.0-69.0,-1.0,"[70, 72]",,-1,1000.0,"<div class = bigbox><div class = centerbox><div class = flankerLeft_2><div class = cue-text><img class = center src=""/static/experiments/stop_signal_with_flanker/images/H.png""></img></div></div><div class = flankerLeft_1><div class = cue-text><img class = center src=""/static/experiments/stop_signal_with_flanker/images/H.png""></img></div></div><div class = flankerMiddle><div class = cue-text><img class = center src=""/static/experiments/stop_signal_with_flanker/images/F.png""></img></div></div><div class = flankerRight_1><div class = cue-text><img class = center src=""/static/experiments/stop_signal_with_flanker/images/H.png""></img></div></div><div class = flankerRight_2><div class = cue-text><img class = center src=""/static/experiments/stop_signal_with_flanker/images/H.png""></img>",1.0,stop,,496421,0.0,test_trial,147,stop-signal,
148,,,,,,,,500.0,,,,,,,stop_signal_with_flanker,,,,,,,,0.0-3.0-70.0,-1.0,none,,-1,500.0,<div class = centerbox><div class = fixation>+</div></div>,,,,496927,0.0,test_fixation,148,poldrack-single-stim,
149,400.0,300.0,300.0,500.0,"<div class = bigbox><div class = centerbox><div class = starbox><img class = star src=""/static/experiments/stop_signal_with_flanker/images/stopSignal.png""></img></div></div></div>",stop,,2000.0,H,,-1.0,1.0,0.0,35.0,stop_signal_with_flanker,,,,,,H_incongruent,F,0.0-3.0-71.0,-1.0,"[70, 72]",,-1,1000.0,"<div class = bigbox><div class = centerbox><div class = flankerLeft_2><div class = cue-text><img class = center src=""/static/experiments/stop_signal_with_flanker/images/F.png""></img></div></div><div class = flankerLeft_1><div class = cue-text><img class = center src=""/static/experiments/stop_signal_with_flanker/images/F.png""></img></div></div><div class = flankerMiddle><div class = cue-text><img class = center src=""/static/experiments/stop_signal_with_flanker/images/H.png""></img></div></div><div class = flankerRight_1><div class = cue-text><img class = center src=""/static/experiments/stop_signal_with_flanker/images/F.png""></img></div></div><div class = flankerRight_2><div class = cue-text><img class = center src=""/static/experiments/stop_signal_with_flanker/images/F.png""></img>",1.0,stop,,498931,0.0,test_trial,149,stop-signal,
150,,,,,,,,500.0,,,,,,,stop_signal_with_flanker,,,,,,,,0.0-3.0-72.0,-1.0,none,,-1,500.0,<div class = centerbox><div class = fixation>+</div></div>,,,,499433,0.0,test_fixation,150,poldrack-single-stim,
151,400.0,350.0,400.0,500.0,"<div class = bigbox><div class = centerbox><div class = starbox><img class = star src=""/static/experiments/stop_signal_with_flanker/images/stopSignal.png""></img></div></div></div>",stop,,2000.0,F,,-1.0,0.0,0.0,36.0,stop_signal_with_flanker,,,,,,F_congruent,F,0.0-3.0-73.0,70.0,"[70, 72]",,728,1000.0,"<div class = bigbox><div class = centerbox><div class = flankerLeft_2><div class = cue-text><img class = center src=""/static/experiments/stop_signal_with_flanker/images/F.png""></img></div></div><div class = flankerLeft_1><div class = cue-text><img class = center src=""/static/experiments/stop_signal_with_flanker/images/F.png""></img></div></div><div class = flankerMiddle><div class = cue-text><img class = center src=""/static/experiments/stop_signal_with_flanker/images/F.png""></img></div></div><div class = flankerRight_1><div class = cue-text><img class = center src=""/static/experiments/stop_signal_with_flanker/images/F.png""></img></div></div><div class = flankerRight_2><div class = cue-text><img class = center src=""/static/experiments/stop_signal_with_flanker/images/F.png""></img>",0.0,stop,,501438,0.0,test_trial,151,stop-signal,
152,,,,,,,,500.0,,,,,,,stop_signal_with_flanker,,,,,,,,0.0-3.0-74.0,-1.0,none,,-1,500.0,<div class = centerbox><div class = fixation>+</div></div>,,,,501941,0.0,test_fixation,152,poldrack-single-stim,
153,350.0,350.0,350.0,500.0,"<div class = bigbox><div class = centerbox><div class = starbox><img class = star src=""/static/experiments/stop_signal_with_flanker/images/stopSignal.png""></img></div></div></div>",go,,2000.0,F,,70.0,1.0,0.0,37.0,stop_signal_with_flanker,,,,,,F_congruent,F,0.0-3.0-75.0,70.0,"[70, 72]",,683,1000.0,"<div class = bigbox><div class = centerbox><div class = flankerLeft_2><div class = cue-text><img class = center src=""/static/experiments/stop_signal_with_flanker/images/F.png""></img></div></div><div class = flankerLeft_1><div class = cue-text><img class = center src=""/static/experiments/stop_signal_with_flanker/images/F.png""></img></div></div><div class = flankerMiddle><div class = cue-text><img class = center src=""/static/experiments/stop_signal_with_flanker/images/F.png""></img></div></div><div class = flankerRight_1><div class = cue-text><img class = center src=""/static/experiments/stop_signal_with_flanker/images/F.png""></img></div></div><div class = flankerRight_2><div class = cue-text><img class = center src=""/static/experiments/stop_signal_with_flanker/images/F.png""></img>",,go,,503945,0.0,test_trial,153,stop-signal,
154,,,,,,,,500.0,,,,,,,stop_signal_with_flanker,,,,,,,,0.0-3.0-76.0,-1.0,none,,-1,500.0,<div class = centerbox><div class = fixation>+</div></div>,,,,504452,0.0,test_fixation,154,poldrack-single-stim,
