,SSD_go,SSD_nogo,SS_delay,SS_duration,SS_stimulus,SS_trial_type,att_check_percent,block_duration,correct,correct_response,correct_trial,current_block,current_trial,exp_id,final_accuracy,final_avg_rt,final_credit_var,final_missed_percent,final_responses_ok,go_acc,go_nogo_condition,internal_node_id,key_press,possible_responses,responses,rt,stim,stim_duration,stim_style,stimulus,stop_acc,stop_signal_condition,text,time_elapsed,timing_post_trial,trial_id,trial_index,trial_type,view_history
0,,,,,,,,180000.0,,,,,,stop_signal_with_go_no_go,,,,,,,,0.0-0.0-0.0,-1.0,[13],,-1,,180000.0,,"<div class = bigbox><div class = picture_box><p class = block-text><font color=""white"">Welcome to the experiment. This experiment will take around 15 minutes. Press <i>enter</i> to begin.</font></p></div></div>",,,,180004,0.0,practice-no-stop-feedback,0,poldrack-single-stim,
1,,,,,,,,,,,,,,stop_signal_with_go_no_go,,,,,,,,0.0-0.0-1.0,,,,498330,,,,,,,,678339,,instruction,1,poldrack-instructions,"[{""page_index"":0,""viewing_time"":491606},{""page_index"":1,""viewing_time"":1089},{""page_index"":2,""viewing_time"":3521},{""page_index"":3,""viewing_time"":2113}]"
2,,,,,,,,500.0,,,,,,stop_signal_with_go_no_go,,,,,,,,0.0-0.0-2.0,-1.0,none,,-1,,500.0,,<div class = centerbox><div class = fixation>+</div></div>,,,,678843,0.0,prompt_fixation,2,poldrack-single-stim,
3,350.0,350.0,350.0,500.0,<div class = bigbox><div class = centerbox><div class = starbox><img class = center src='/static/experiments/stop_signal_with_go_no_go/images/stopSignal.png'></img></div></div></div>,go,,2000.0,,77.0,0.0,0.0,1.0,stop_signal_with_go_no_go,,,,,,0.0,go,0.0-0.0-3.0,90.0,"[90, 77]",,667,circle,1000.0,solid,<div class = bigbox><div class = centerbox><div class = gng_number><div class = cue-text><img class = center src='/static/experiments/stop_signal_with_go_no_go/images/solid_circle.png'></img></div></div></div></div>,,go,,680848,0.0,practice_trial,3,stop-signal,
4,,,,,,,,500.0,,,,,,stop_signal_with_go_no_go,,,,,,,,0.0-0.0-4.0,-1.0,none,,-1,,500.0,,"<div class = fb_box><div class = center-text><font size = 20>Incorrect</font></div></div><div class = prompt_box><p class = center-block-text style = ""font-size:16px; line-height:80%%;"">square: Z key</p><p class = center-block-text style = ""font-size:16px; line-height:80%%;"">circle: M key</p><p class = center-block-text style = ""font-size:16px; line-height:80%%;"">Do not respond if a star appears!</p><p class = center-block-text style = ""font-size:16px; line-height:80%%;"">Do not respond if the shape is outlined!</p></div>",,,,681353,0.0,practice-stop-feedback,4,poldrack-single-stim,
5,,,,,,,,500.0,,,,,,stop_signal_with_go_no_go,,,,,,,,0.0-0.0-5.0,-1.0,none,,-1,,500.0,,<div class = centerbox><div class = fixation>+</div></div>,,,,681855,0.0,prompt_fixation,5,poldrack-single-stim,
6,350.0,350.0,350.0,500.0,<div class = bigbox><div class = centerbox><div class = starbox><img class = center src='/static/experiments/stop_signal_with_go_no_go/images/stopSignal.png'></img></div></div></div>,go,,2000.0,,90.0,1.0,0.0,2.0,stop_signal_with_go_no_go,,,,,,1.0,go,0.0-0.0-6.0,90.0,"[90, 77]",,662,square,1000.0,solid,<div class = bigbox><div class = centerbox><div class = gng_number><div class = cue-text><img class = center src='/static/experiments/stop_signal_with_go_no_go/images/solid_square.png'></img></div></div></div></div>,,go,,683859,0.0,practice_trial,6,stop-signal,
7,,,,,,,,500.0,,,,,,stop_signal_with_go_no_go,,,,,,,,0.0-0.0-7.0,-1.0,none,,-1,,500.0,,"<div class = fb_box><div class = center-text><font size = 20>Correct!</font></div></div><div class = prompt_box><p class = center-block-text style = ""font-size:16px; line-height:80%%;"">square: Z key</p><p class = center-block-text style = ""font-size:16px; line-height:80%%;"">circle: M key</p><p class = center-block-text style = ""font-size:16px; line-height:80%%;"">Do not respond if a star appears!</p><p class = center-block-text style = ""font-size:16px; line-height:80%%;"">Do not respond if the shape is outlined!</p></div>",,,,684364,0.0,practice-stop-feedback,7,poldrack-single-stim,
8,,,,,,,,500.0,,,,,,stop_signal_with_go_no_go,,,,,,,,0.0-0.0-8.0,-1.0,none,,-1,,500.0,,<div class = centerbox><div class = fixation>+</div></div>,,,,684866,0.0,prompt_fixation,8,poldrack-single-stim,
9,350.0,350.0,350.0,500.0,<div class = bigbox><div class = centerbox><div class = starbox><img class = center src='/static/experiments/stop_signal_with_go_no_go/images/stopSignal.png'></img></div></div></div>,stop,,2000.0,,-1.0,0.0,0.0,3.0,stop_signal_with_go_no_go,,,,,,,go,0.0-0.0-9.0,77.0,"[90, 77]",,566,square,1000.0,solid,<div class = bigbox><div class = centerbox><div class = gng_number><div class = cue-text><img class = center src='/static/experiments/stop_signal_with_go_no_go/images/solid_square.png'></img></div></div></div></div>,0.0,stop,,686870,0.0,practice_trial,9,stop-signal,
10,,,,,,,,500.0,,,,,,stop_signal_with_go_no_go,,,,,,,,0.0-0.0-10.0,-1.0,none,,-1,,500.0,,"<div class = fb_box><div class = center-text><font size = 20>There was a star.</font></div></div><div class = prompt_box><p class = center-block-text style = ""font-size:16px; line-height:80%%;"">square: Z key</p><p class = center-block-text style = ""font-size:16px; line-height:80%%;"">circle: M key</p><p class = center-block-text style = ""font-size:16px; line-height:80%%;"">Do not respond if a star appears!</p><p class = center-block-text style = ""font-size:16px; line-height:80%%;"">Do not respond if the shape is outlined!</p></div>",,,,687373,0.0,practice-stop-feedback,10,poldrack-single-stim,
11,,,,,,,,500.0,,,,,,stop_signal_with_go_no_go,,,,,,,,0.0-0.0-11.0,-1.0,none,,-1,,500.0,,<div class = centerbox><div class = fixation>+</div></div>,,,,687875,0.0,prompt_fixation,11,poldrack-single-stim,
12,300.0,350.0,350.0,500.0,<div class = bigbox><div class = centerbox><div class = starbox><img class = center src='/static/experiments/stop_signal_with_go_no_go/images/stopSignal.png'></img></div></div></div>,stop,,2000.0,,-1.0,1.0,0.0,4.0,stop_signal_with_go_no_go,,,,,,,nogo,0.0-0.0-12.0,-1.0,"[90, 77]",,-1,circle,1000.0,outlined,<div class = bigbox><div class = centerbox><div class = gng_number><div class = cue-text><img class = center src='/static/experiments/stop_signal_with_go_no_go/images/outlined_circle.png'></img></div></div></div></div>,1.0,stop,,689878,0.0,practice_trial,12,stop-signal,
13,,,,,,,,500.0,,,,,,stop_signal_with_go_no_go,,,,,,,,0.0-0.0-13.0,-1.0,none,,-1,,500.0,,"<div class = fb_box><div class = center-text><font size = 20>Correct!</font></div></div><div class = prompt_box><p class = center-block-text style = ""font-size:16px; line-height:80%%;"">square: Z key</p><p class = center-block-text style = ""font-size:16px; line-height:80%%;"">circle: M key</p><p class = center-block-text style = ""font-size:16px; line-height:80%%;"">Do not respond if a star appears!</p><p class = center-block-text style = ""font-size:16px; line-height:80%%;"">Do not respond if the shape is outlined!</p></div>",,,,690381,0.0,practice-stop-feedback,13,poldrack-single-stim,
14,,,,,,,,500.0,,,,,,stop_signal_with_go_no_go,,,,,,,,0.0-0.0-14.0,-1.0,none,,-1,,500.0,,<div class = centerbox><div class = fixation>+</div></div>,,,,690884,0.0,prompt_fixation,14,poldrack-single-stim,
15,300.0,400.0,300.0,500.0,<div class = bigbox><div class = centerbox><div class = starbox><img class = center src='/static/experiments/stop_signal_with_go_no_go/images/stopSignal.png'></img></div></div></div>,stop,,2000.0,,-1.0,1.0,0.0,5.0,stop_signal_with_go_no_go,,,,,,,go,0.0-0.0-15.0,-1.0,"[90, 77]",,-1,circle,1000.0,solid,<div class = bigbox><div class = centerbox><div class = gng_number><div class = cue-text><img class = center src='/static/experiments/stop_signal_with_go_no_go/images/solid_circle.png'></img></div></div></div></div>,1.0,stop,,692887,0.0,practice_trial,15,stop-signal,
16,,,,,,,,500.0,,,,,,stop_signal_with_go_no_go,,,,,,,,0.0-0.0-16.0,-1.0,none,,-1,,500.0,,"<div class = fb_box><div class = center-text><font size = 20>Correct!</font></div></div><div class = prompt_box><p class = center-block-text style = ""font-size:16px; line-height:80%%;"">square: Z key</p><p class = center-block-text style = ""font-size:16px; line-height:80%%;"">circle: M key</p><p class = center-block-text style = ""font-size:16px; line-height:80%%;"">Do not respond if a star appears!</p><p class = center-block-text style = ""font-size:16px; line-height:80%%;"">Do not respond if the shape is outlined!</p></div>",,,,693389,0.0,practice-stop-feedback,16,poldrack-single-stim,
17,,,,,,,,500.0,,,,,,stop_signal_with_go_no_go,,,,,,,,0.0-0.0-17.0,-1.0,none,,-1,,500.0,,<div class = centerbox><div class = fixation>+</div></div>,,,,693892,0.0,prompt_fixation,17,poldrack-single-stim,
18,350.0,400.0,350.0,500.0,<div class = bigbox><div class = centerbox><div class = starbox><img class = center src='/static/experiments/stop_signal_with_go_no_go/images/stopSignal.png'></img></div></div></div>,go,,2000.0,,90.0,1.0,0.0,6.0,stop_signal_with_go_no_go,,,,,,1.0,go,0.0-0.0-18.0,90.0,"[90, 77]",,553,square,1000.0,solid,<div class = bigbox><div class = centerbox><div class = gng_number><div class = cue-text><img class = center src='/static/experiments/stop_signal_with_go_no_go/images/solid_square.png'></img></div></div></div></div>,,go,,695895,0.0,practice_trial,18,stop-signal,
19,,,,,,,,500.0,,,,,,stop_signal_with_go_no_go,,,,,,,,0.0-0.0-19.0,-1.0,none,,-1,,500.0,,"<div class = fb_box><div class = center-text><font size = 20>Correct!</font></div></div><div class = prompt_box><p class = center-block-text style = ""font-size:16px; line-height:80%%;"">square: Z key</p><p class = center-block-text style = ""font-size:16px; line-height:80%%;"">circle: M key</p><p class = center-block-text style = ""font-size:16px; line-height:80%%;"">Do not respond if a star appears!</p><p class = center-block-text style = ""font-size:16px; line-height:80%%;"">Do not respond if the shape is outlined!</p></div>",,,,696398,0.0,practice-stop-feedback,19,poldrack-single-stim,
20,,,,,,,,500.0,,,,,,stop_signal_with_go_no_go,,,,,,,,0.0-0.0-20.0,-1.0,none,,-1,,500.0,,<div class = centerbox><div class = fixation>+</div></div>,,,,696900,0.0,prompt_fixation,20,poldrack-single-stim,
21,350.0,400.0,350.0,500.0,<div class = bigbox><div class = centerbox><div class = starbox><img class = center src='/static/experiments/stop_signal_with_go_no_go/images/stopSignal.png'></img></div></div></div>,stop,,2000.0,,-1.0,0.0,0.0,7.0,stop_signal_with_go_no_go,,,,,,,go,0.0-0.0-21.0,90.0,"[90, 77]",,437,square,1000.0,solid,<div class = bigbox><div class = centerbox><div class = gng_number><div class = cue-text><img class = center src='/static/experiments/stop_signal_with_go_no_go/images/solid_square.png'></img></div></div></div></div>,0.0,stop,,698903,0.0,practice_trial,21,stop-signal,
22,,,,,,,,500.0,,,,,,stop_signal_with_go_no_go,,,,,,,,0.0-0.0-22.0,-1.0,none,,-1,,500.0,,"<div class = fb_box><div class = center-text><font size = 20>There was a star.</font></div></div><div class = prompt_box><p class = center-block-text style = ""font-size:16px; line-height:80%%;"">square: Z key</p><p class = center-block-text style = ""font-size:16px; line-height:80%%;"">circle: M key</p><p class = center-block-text style = ""font-size:16px; line-height:80%%;"">Do not respond if a star appears!</p><p class = center-block-text style = ""font-size:16px; line-height:80%%;"">Do not respond if the shape is outlined!</p></div>",,,,699405,0.0,practice-stop-feedback,22,poldrack-single-stim,
23,,,,,,,,500.0,,,,,,stop_signal_with_go_no_go,,,,,,,,0.0-0.0-23.0,-1.0,none,,-1,,500.0,,<div class = centerbox><div class = fixation>+</div></div>,,,,699909,0.0,prompt_fixation,23,poldrack-single-stim,
24,300.0,400.0,300.0,500.0,<div class = bigbox><div class = centerbox><div class = starbox><img class = center src='/static/experiments/stop_signal_with_go_no_go/images/stopSignal.png'></img></div></div></div>,go,,2000.0,,77.0,1.0,0.0,8.0,stop_signal_with_go_no_go,,,,,,1.0,go,0.0-0.0-24.0,77.0,"[90, 77]",,576,circle,1000.0,solid,<div class = bigbox><div class = centerbox><div class = gng_number><div class = cue-text><img class = center src='/static/experiments/stop_signal_with_go_no_go/images/solid_circle.png'></img></div></div></div></div>,,go,,701913,0.0,practice_trial,24,stop-signal,
25,,,,,,,,500.0,,,,,,stop_signal_with_go_no_go,,,,,,,,0.0-0.0-25.0,-1.0,none,,-1,,500.0,,"<div class = fb_box><div class = center-text><font size = 20>Correct!</font></div></div><div class = prompt_box><p class = center-block-text style = ""font-size:16px; line-height:80%%;"">square: Z key</p><p class = center-block-text style = ""font-size:16px; line-height:80%%;"">circle: M key</p><p class = center-block-text style = ""font-size:16px; line-height:80%%;"">Do not respond if a star appears!</p><p class = center-block-text style = ""font-size:16px; line-height:80%%;"">Do not respond if the shape is outlined!</p></div>",,,,702416,0.0,practice-stop-feedback,25,poldrack-single-stim,
26,,,,,,,,500.0,,,,,,stop_signal_with_go_no_go,,,,,,,,0.0-0.0-26.0,-1.0,none,,-1,,500.0,,<div class = centerbox><div class = fixation>+</div></div>,,,,702919,0.0,prompt_fixation,26,poldrack-single-stim,
27,300.0,400.0,300.0,500.0,<div class = bigbox><div class = centerbox><div class = starbox><img class = center src='/static/experiments/stop_signal_with_go_no_go/images/stopSignal.png'></img></div></div></div>,go,,2000.0,,90.0,1.0,0.0,9.0,stop_signal_with_go_no_go,,,,,,1.0,go,0.0-0.0-27.0,90.0,"[90, 77]",,576,square,1000.0,solid,<div class = bigbox><div class = centerbox><div class = gng_number><div class = cue-text><img class = center src='/static/experiments/stop_signal_with_go_no_go/images/solid_square.png'></img></div></div></div></div>,,go,,704922,0.0,practice_trial,27,stop-signal,
28,,,,,,,,500.0,,,,,,stop_signal_with_go_no_go,,,,,,,,0.0-0.0-28.0,-1.0,none,,-1,,500.0,,"<div class = fb_box><div class = center-text><font size = 20>Correct!</font></div></div><div class = prompt_box><p class = center-block-text style = ""font-size:16px; line-height:80%%;"">square: Z key</p><p class = center-block-text style = ""font-size:16px; line-height:80%%;"">circle: M key</p><p class = center-block-text style = ""font-size:16px; line-height:80%%;"">Do not respond if a star appears!</p><p class = center-block-text style = ""font-size:16px; line-height:80%%;"">Do not respond if the shape is outlined!</p></div>",,,,705425,0.0,practice-stop-feedback,28,poldrack-single-stim,
29,,,,,,,,500.0,,,,,,stop_signal_with_go_no_go,,,,,,,,0.0-0.0-29.0,-1.0,none,,-1,,500.0,,<div class = centerbox><div class = fixation>+</div></div>,,,,705928,0.0,prompt_fixation,29,poldrack-single-stim,
30,300.0,400.0,300.0,500.0,<div class = bigbox><div class = centerbox><div class = starbox><img class = center src='/static/experiments/stop_signal_with_go_no_go/images/stopSignal.png'></img></div></div></div>,go,,2000.0,,77.0,1.0,0.0,10.0,stop_signal_with_go_no_go,,,,,,1.0,go,0.0-0.0-30.0,77.0,"[90, 77]",,742,circle,1000.0,solid,<div class = bigbox><div class = centerbox><div class = gng_number><div class = cue-text><img class = center src='/static/experiments/stop_signal_with_go_no_go/images/solid_circle.png'></img></div></div></div></div>,,go,,707931,0.0,practice_trial,30,stop-signal,
31,,,,,,,,500.0,,,,,,stop_signal_with_go_no_go,,,,,,,,0.0-0.0-31.0,-1.0,none,,-1,,500.0,,"<div class = fb_box><div class = center-text><font size = 20>Correct!</font></div></div><div class = prompt_box><p class = center-block-text style = ""font-size:16px; line-height:80%%;"">square: Z key</p><p class = center-block-text style = ""font-size:16px; line-height:80%%;"">circle: M key</p><p class = center-block-text style = ""font-size:16px; line-height:80%%;"">Do not respond if a star appears!</p><p class = center-block-text style = ""font-size:16px; line-height:80%%;"">Do not respond if the shape is outlined!</p></div>",,,,708434,0.0,practice-stop-feedback,31,poldrack-single-stim,
32,,,,,,,,500.0,,,,,,stop_signal_with_go_no_go,,,,,,,,0.0-0.0-32.0,-1.0,none,,-1,,500.0,,<div class = centerbox><div class = fixation>+</div></div>,,,,708937,0.0,prompt_fixation,32,poldrack-single-stim,
33,300.0,400.0,300.0,500.0,<div class = bigbox><div class = centerbox><div class = starbox><img class = center src='/static/experiments/stop_signal_with_go_no_go/images/stopSignal.png'></img></div></div></div>,stop,,2000.0,,-1.0,1.0,0.0,11.0,stop_signal_with_go_no_go,,,,,,,go,0.0-0.0-33.0,-1.0,"[90, 77]",,-1,square,1000.0,solid,<div class = bigbox><div class = centerbox><div class = gng_number><div class = cue-text><img class = center src='/static/experiments/stop_signal_with_go_no_go/images/solid_square.png'></img></div></div></div></div>,1.0,stop,,710940,0.0,practice_trial,33,stop-signal,
34,,,,,,,,500.0,,,,,,stop_signal_with_go_no_go,,,,,,,,0.0-0.0-34.0,-1.0,none,,-1,,500.0,,"<div class = fb_box><div class = center-text><font size = 20>Correct!</font></div></div><div class = prompt_box><p class = center-block-text style = ""font-size:16px; line-height:80%%;"">square: Z key</p><p class = center-block-text style = ""font-size:16px; line-height:80%%;"">circle: M key</p><p class = center-block-text style = ""font-size:16px; line-height:80%%;"">Do not respond if a star appears!</p><p class = center-block-text style = ""font-size:16px; line-height:80%%;"">Do not respond if the shape is outlined!</p></div>",,,,711442,0.0,practice-stop-feedback,34,poldrack-single-stim,
35,,,,,,,,500.0,,,,,,stop_signal_with_go_no_go,,,,,,,,0.0-0.0-35.0,-1.0,none,,-1,,500.0,,<div class = centerbox><div class = fixation>+</div></div>,,,,711945,0.0,prompt_fixation,35,poldrack-single-stim,
36,350.0,400.0,350.0,500.0,<div class = bigbox><div class = centerbox><div class = starbox><img class = center src='/static/experiments/stop_signal_with_go_no_go/images/stopSignal.png'></img></div></div></div>,go,,2000.0,,90.0,1.0,0.0,12.0,stop_signal_with_go_no_go,,,,,,1.0,go,0.0-0.0-36.0,90.0,"[90, 77]",,573,square,1000.0,solid,<div class = bigbox><div class = centerbox><div class = gng_number><div class = cue-text><img class = center src='/static/experiments/stop_signal_with_go_no_go/images/solid_square.png'></img></div></div></div></div>,,go,,713947,0.0,practice_trial,36,stop-signal,
37,,,,,,,,500.0,,,,,,stop_signal_with_go_no_go,,,,,,,,0.0-0.0-37.0,-1.0,none,,-1,,500.0,,"<div class = fb_box><div class = center-text><font size = 20>Correct!</font></div></div><div class = prompt_box><p class = center-block-text style = ""font-size:16px; line-height:80%%;"">square: Z key</p><p class = center-block-text style = ""font-size:16px; line-height:80%%;"">circle: M key</p><p class = center-block-text style = ""font-size:16px; line-height:80%%;"">Do not respond if a star appears!</p><p class = center-block-text style = ""font-size:16px; line-height:80%%;"">Do not respond if the shape is outlined!</p></div>",,,,714451,0.0,practice-stop-feedback,37,poldrack-single-stim,
38,,,,,,,,500.0,,,,,,stop_signal_with_go_no_go,,,,,,,,0.0-0.0-38.0,-1.0,none,,-1,,500.0,,<div class = centerbox><div class = fixation>+</div></div>,,,,714954,0.0,prompt_fixation,38,poldrack-single-stim,
39,350.0,400.0,350.0,500.0,<div class = bigbox><div class = centerbox><div class = starbox><img class = center src='/static/experiments/stop_signal_with_go_no_go/images/stopSignal.png'></img></div></div></div>,go,,2000.0,,77.0,1.0,0.0,13.0,stop_signal_with_go_no_go,,,,,,1.0,go,0.0-0.0-39.0,77.0,"[90, 77]",,502,circle,1000.0,solid,<div class = bigbox><div class = centerbox><div class = gng_number><div class = cue-text><img class = center src='/static/experiments/stop_signal_with_go_no_go/images/solid_circle.png'></img></div></div></div></div>,,go,,716957,0.0,practice_trial,39,stop-signal,
40,,,,,,,,500.0,,,,,,stop_signal_with_go_no_go,,,,,,,,0.0-0.0-40.0,-1.0,none,,-1,,500.0,,"<div class = fb_box><div class = center-text><font size = 20>Correct!</font></div></div><div class = prompt_box><p class = center-block-text style = ""font-size:16px; line-height:80%%;"">square: Z key</p><p class = center-block-text style = ""font-size:16px; line-height:80%%;"">circle: M key</p><p class = center-block-text style = ""font-size:16px; line-height:80%%;"">Do not respond if a star appears!</p><p class = center-block-text style = ""font-size:16px; line-height:80%%;"">Do not respond if the shape is outlined!</p></div>",,,,717460,0.0,practice-stop-feedback,40,poldrack-single-stim,
41,,,,,,,,500.0,,,,,,stop_signal_with_go_no_go,,,,,,,,0.0-0.0-41.0,-1.0,none,,-1,,500.0,,<div class = centerbox><div class = fixation>+</div></div>,,,,717963,0.0,prompt_fixation,41,poldrack-single-stim,
42,350.0,400.0,400.0,500.0,<div class = bigbox><div class = centerbox><div class = starbox><img class = center src='/static/experiments/stop_signal_with_go_no_go/images/stopSignal.png'></img></div></div></div>,go,,2000.0,,-1.0,1.0,0.0,14.0,stop_signal_with_go_no_go,,,,,,1.0,nogo,0.0-0.0-42.0,-1.0,"[90, 77]",,-1,square,1000.0,outlined,<div class = bigbox><div class = centerbox><div class = gng_number><div class = cue-text><img class = center src='/static/experiments/stop_signal_with_go_no_go/images/outlined_square.png'></img></div></div></div></div>,,go,,719965,0.0,practice_trial,42,stop-signal,
43,,,,,,,,500.0,,,,,,stop_signal_with_go_no_go,,,,,,,,0.0-0.0-43.0,-1.0,none,,-1,,500.0,,"<div class = fb_box><div class = center-text><font size = 20>Correct!</font></div></div><div class = prompt_box><p class = center-block-text style = ""font-size:16px; line-height:80%%;"">square: Z key</p><p class = center-block-text style = ""font-size:16px; line-height:80%%;"">circle: M key</p><p class = center-block-text style = ""font-size:16px; line-height:80%%;"">Do not respond if a star appears!</p><p class = center-block-text style = ""font-size:16px; line-height:80%%;"">Do not respond if the shape is outlined!</p></div>",,,,720468,0.0,practice-stop-feedback,43,poldrack-single-stim,
44,,,,,,,,500.0,,,,,,stop_signal_with_go_no_go,,,,,,,,0.0-0.0-44.0,-1.0,none,,-1,,500.0,,<div class = centerbox><div class = fixation>+</div></div>,,,,720971,0.0,prompt_fixation,44,poldrack-single-stim,
45,350.0,400.0,350.0,500.0,<div class = bigbox><div class = centerbox><div class = starbox><img class = center src='/static/experiments/stop_signal_with_go_no_go/images/stopSignal.png'></img></div></div></div>,go,,2000.0,,77.0,1.0,0.0,15.0,stop_signal_with_go_no_go,,,,,,1.0,go,0.0-0.0-45.0,77.0,"[90, 77]",,811,circle,1000.0,solid,<div class = bigbox><div class = centerbox><div class = gng_number><div class = cue-text><img class = center src='/static/experiments/stop_signal_with_go_no_go/images/solid_circle.png'></img></div></div></div></div>,,go,,722973,0.0,practice_trial,45,stop-signal,
46,,,,,,,,500.0,,,,,,stop_signal_with_go_no_go,,,,,,,,0.0-0.0-46.0,-1.0,none,,-1,,500.0,,"<div class = fb_box><div class = center-text><font size = 20>Correct!</font></div></div><div class = prompt_box><p class = center-block-text style = ""font-size:16px; line-height:80%%;"">square: Z key</p><p class = center-block-text style = ""font-size:16px; line-height:80%%;"">circle: M key</p><p class = center-block-text style = ""font-size:16px; line-height:80%%;"">Do not respond if a star appears!</p><p class = center-block-text style = ""font-size:16px; line-height:80%%;"">Do not respond if the shape is outlined!</p></div>",,,,723477,0.0,practice-stop-feedback,46,poldrack-single-stim,
47,,,,,,,,500.0,,,,,,stop_signal_with_go_no_go,,,,,,,,0.0-0.0-47.0,-1.0,none,,-1,,500.0,,<div class = centerbox><div class = fixation>+</div></div>,,,,723980,0.0,prompt_fixation,47,poldrack-single-stim,
48,350.0,400.0,350.0,500.0,<div class = bigbox><div class = centerbox><div class = starbox><img class = center src='/static/experiments/stop_signal_with_go_no_go/images/stopSignal.png'></img></div></div></div>,go,,2000.0,,90.0,1.0,0.0,16.0,stop_signal_with_go_no_go,,,,,,1.0,go,0.0-0.0-48.0,90.0,"[90, 77]",,514,square,1000.0,solid,<div class = bigbox><div class = centerbox><div class = gng_number><div class = cue-text><img class = center src='/static/experiments/stop_signal_with_go_no_go/images/solid_square.png'></img></div></div></div></div>,,go,,725982,0.0,practice_trial,48,stop-signal,
49,,,,,,,,500.0,,,,,,stop_signal_with_go_no_go,,,,,,,,0.0-0.0-49.0,-1.0,none,,-1,,500.0,,"<div class = fb_box><div class = center-text><font size = 20>Correct!</font></div></div><div class = prompt_box><p class = center-block-text style = ""font-size:16px; line-height:80%%;"">square: Z key</p><p class = center-block-text style = ""font-size:16px; line-height:80%%;"">circle: M key</p><p class = center-block-text style = ""font-size:16px; line-height:80%%;"">Do not respond if a star appears!</p><p class = center-block-text style = ""font-size:16px; line-height:80%%;"">Do not respond if the shape is outlined!</p></div>",,,,726486,0.0,practice-stop-feedback,49,poldrack-single-stim,
50,,,,,,,,500.0,,,,,,stop_signal_with_go_no_go,,,,,,,,0.0-0.0-50.0,-1.0,none,,-1,,500.0,,<div class = centerbox><div class = fixation>+</div></div>,,,,726989,0.0,prompt_fixation,50,poldrack-single-stim,
51,350.0,400.0,350.0,500.0,<div class = bigbox><div class = centerbox><div class = starbox><img class = center src='/static/experiments/stop_signal_with_go_no_go/images/stopSignal.png'></img></div></div></div>,stop,,2000.0,,-1.0,1.0,0.0,17.0,stop_signal_with_go_no_go,,,,,,,go,0.0-0.0-51.0,-1.0,"[90, 77]",,-1,square,1000.0,solid,<div class = bigbox><div class = centerbox><div class = gng_number><div class = cue-text><img class = center src='/static/experiments/stop_signal_with_go_no_go/images/solid_square.png'></img></div></div></div></div>,1.0,stop,,728991,0.0,practice_trial,51,stop-signal,
52,,,,,,,,500.0,,,,,,stop_signal_with_go_no_go,,,,,,,,0.0-0.0-52.0,-1.0,none,,-1,,500.0,,"<div class = fb_box><div class = center-text><font size = 20>Correct!</font></div></div><div class = prompt_box><p class = center-block-text style = ""font-size:16px; line-height:80%%;"">square: Z key</p><p class = center-block-text style = ""font-size:16px; line-height:80%%;"">circle: M key</p><p class = center-block-text style = ""font-size:16px; line-height:80%%;"">Do not respond if a star appears!</p><p class = center-block-text style = ""font-size:16px; line-height:80%%;"">Do not respond if the shape is outlined!</p></div>",,,,729495,0.0,practice-stop-feedback,52,poldrack-single-stim,
53,,,,,,,,500.0,,,,,,stop_signal_with_go_no_go,,,,,,,,0.0-0.0-53.0,-1.0,none,,-1,,500.0,,<div class = centerbox><div class = fixation>+</div></div>,,,,729998,0.0,prompt_fixation,53,poldrack-single-stim,
54,400.0,400.0,400.0,500.0,<div class = bigbox><div class = centerbox><div class = starbox><img class = center src='/static/experiments/stop_signal_with_go_no_go/images/stopSignal.png'></img></div></div></div>,stop,,2000.0,,-1.0,0.0,0.0,18.0,stop_signal_with_go_no_go,,,,,,,go,0.0-0.0-54.0,77.0,"[90, 77]",,517,circle,1000.0,solid,<div class = bigbox><div class = centerbox><div class = gng_number><div class = cue-text><img class = center src='/static/experiments/stop_signal_with_go_no_go/images/solid_circle.png'></img></div></div></div></div>,0.0,stop,,732000,0.0,practice_trial,54,stop-signal,
55,,,,,,,,500.0,,,,,,stop_signal_with_go_no_go,,,,,,,,0.0-0.0-55.0,-1.0,none,,-1,,500.0,,"<div class = fb_box><div class = center-text><font size = 20>There was a star.</font></div></div><div class = prompt_box><p class = center-block-text style = ""font-size:16px; line-height:80%%;"">square: Z key</p><p class = center-block-text style = ""font-size:16px; line-height:80%%;"">circle: M key</p><p class = center-block-text style = ""font-size:16px; line-height:80%%;"">Do not respond if a star appears!</p><p class = center-block-text style = ""font-size:16px; line-height:80%%;"">Do not respond if the shape is outlined!</p></div>",,,,732503,0.0,practice-stop-feedback,55,poldrack-single-stim,
56,,,,,,,,500.0,,,,,,stop_signal_with_go_no_go,,,,,,,,0.0-0.0-56.0,-1.0,none,,-1,,500.0,,<div class = centerbox><div class = fixation>+</div></div>,,,,733006,0.0,prompt_fixation,56,poldrack-single-stim,
57,350.0,400.0,350.0,500.0,<div class = bigbox><div class = centerbox><div class = starbox><img class = center src='/static/experiments/stop_signal_with_go_no_go/images/stopSignal.png'></img></div></div></div>,go,,2000.0,,77.0,1.0,0.0,19.0,stop_signal_with_go_no_go,,,,,,1.0,go,0.0-0.0-57.0,77.0,"[90, 77]",,622,circle,1000.0,solid,<div class = bigbox><div class = centerbox><div class = gng_number><div class = cue-text><img class = center src='/static/experiments/stop_signal_with_go_no_go/images/solid_circle.png'></img></div></div></div></div>,,go,,735008,0.0,practice_trial,57,stop-signal,
58,,,,,,,,500.0,,,,,,stop_signal_with_go_no_go,,,,,,,,0.0-0.0-58.0,-1.0,none,,-1,,500.0,,"<div class = fb_box><div class = center-text><font size = 20>Correct!</font></div></div><div class = prompt_box><p class = center-block-text style = ""font-size:16px; line-height:80%%;"">square: Z key</p><p class = center-block-text style = ""font-size:16px; line-height:80%%;"">circle: M key</p><p class = center-block-text style = ""font-size:16px; line-height:80%%;"">Do not respond if a star appears!</p><p class = center-block-text style = ""font-size:16px; line-height:80%%;"">Do not respond if the shape is outlined!</p></div>",,,,735511,0.0,practice-stop-feedback,58,poldrack-single-stim,
59,,,,,,,,500.0,,,,,,stop_signal_with_go_no_go,,,,,,,,0.0-0.0-59.0,-1.0,none,,-1,,500.0,,<div class = centerbox><div class = fixation>+</div></div>,,,,736014,0.0,prompt_fixation,59,poldrack-single-stim,
60,350.0,400.0,350.0,500.0,<div class = bigbox><div class = centerbox><div class = starbox><img class = center src='/static/experiments/stop_signal_with_go_no_go/images/stopSignal.png'></img></div></div></div>,go,,2000.0,,90.0,1.0,0.0,20.0,stop_signal_with_go_no_go,,,,,,1.0,go,0.0-0.0-60.0,90.0,"[90, 77]",,629,square,1000.0,solid,<div class = bigbox><div class = centerbox><div class = gng_number><div class = cue-text><img class = center src='/static/experiments/stop_signal_with_go_no_go/images/solid_square.png'></img></div></div></div></div>,,go,,738018,0.0,practice_trial,60,stop-signal,
61,,,,,,,,500.0,,,,,,stop_signal_with_go_no_go,,,,,,,,0.0-0.0-61.0,-1.0,none,,-1,,500.0,,"<div class = fb_box><div class = center-text><font size = 20>Correct!</font></div></div><div class = prompt_box><p class = center-block-text style = ""font-size:16px; line-height:80%%;"">square: Z key</p><p class = center-block-text style = ""font-size:16px; line-height:80%%;"">circle: M key</p><p class = center-block-text style = ""font-size:16px; line-height:80%%;"">Do not respond if a star appears!</p><p class = center-block-text style = ""font-size:16px; line-height:80%%;"">Do not respond if the shape is outlined!</p></div>",,,,738521,0.0,practice-stop-feedback,61,poldrack-single-stim,
62,,,,,,,,500.0,,,,,,stop_signal_with_go_no_go,,,,,,,,0.0-0.0-62.0,-1.0,none,,-1,,500.0,,<div class = centerbox><div class = fixation>+</div></div>,,,,739024,0.0,prompt_fixation,62,poldrack-single-stim,
63,350.0,400.0,350.0,500.0,<div class = bigbox><div class = centerbox><div class = starbox><img class = center src='/static/experiments/stop_signal_with_go_no_go/images/stopSignal.png'></img></div></div></div>,go,,2000.0,,90.0,1.0,0.0,21.0,stop_signal_with_go_no_go,,,,,,1.0,go,0.0-0.0-63.0,90.0,"[90, 77]",,606,square,1000.0,solid,<div class = bigbox><div class = centerbox><div class = gng_number><div class = cue-text><img class = center src='/static/experiments/stop_signal_with_go_no_go/images/solid_square.png'></img></div></div></div></div>,,go,,741027,0.0,practice_trial,63,stop-signal,
64,,,,,,,,500.0,,,,,,stop_signal_with_go_no_go,,,,,,,,0.0-0.0-64.0,-1.0,none,,-1,,500.0,,"<div class = fb_box><div class = center-text><font size = 20>Correct!</font></div></div><div class = prompt_box><p class = center-block-text style = ""font-size:16px; line-height:80%%;"">square: Z key</p><p class = center-block-text style = ""font-size:16px; line-height:80%%;"">circle: M key</p><p class = center-block-text style = ""font-size:16px; line-height:80%%;"">Do not respond if a star appears!</p><p class = center-block-text style = ""font-size:16px; line-height:80%%;"">Do not respond if the shape is outlined!</p></div>",,,,741531,0.0,practice-stop-feedback,64,poldrack-single-stim,
65,,,,,,,,500.0,,,,,,stop_signal_with_go_no_go,,,,,,,,0.0-0.0-65.0,-1.0,none,,-1,,500.0,,<div class = centerbox><div class = fixation>+</div></div>,,,,742033,0.0,prompt_fixation,65,poldrack-single-stim,
66,350.0,400.0,350.0,500.0,<div class = bigbox><div class = centerbox><div class = starbox><img class = center src='/static/experiments/stop_signal_with_go_no_go/images/stopSignal.png'></img></div></div></div>,stop,,2000.0,,-1.0,1.0,0.0,22.0,stop_signal_with_go_no_go,,,,,,,go,0.0-0.0-66.0,-1.0,"[90, 77]",,-1,circle,1000.0,solid,<div class = bigbox><div class = centerbox><div class = gng_number><div class = cue-text><img class = center src='/static/experiments/stop_signal_with_go_no_go/images/solid_circle.png'></img></div></div></div></div>,1.0,stop,,744037,0.0,practice_trial,66,stop-signal,
67,,,,,,,,500.0,,,,,,stop_signal_with_go_no_go,,,,,,,,0.0-0.0-67.0,-1.0,none,,-1,,500.0,,"<div class = fb_box><div class = center-text><font size = 20>Correct!</font></div></div><div class = prompt_box><p class = center-block-text style = ""font-size:16px; line-height:80%%;"">square: Z key</p><p class = center-block-text style = ""font-size:16px; line-height:80%%;"">circle: M key</p><p class = center-block-text style = ""font-size:16px; line-height:80%%;"">Do not respond if a star appears!</p><p class = center-block-text style = ""font-size:16px; line-height:80%%;"">Do not respond if the shape is outlined!</p></div>",,,,744539,0.0,practice-stop-feedback,67,poldrack-single-stim,
68,,,,,,,,500.0,,,,,,stop_signal_with_go_no_go,,,,,,,,0.0-0.0-68.0,-1.0,none,,-1,,500.0,,<div class = centerbox><div class = fixation>+</div></div>,,,,745042,0.0,prompt_fixation,68,poldrack-single-stim,
69,400.0,400.0,400.0,500.0,<div class = bigbox><div class = centerbox><div class = starbox><img class = center src='/static/experiments/stop_signal_with_go_no_go/images/stopSignal.png'></img></div></div></div>,go,,2000.0,,77.0,1.0,0.0,23.0,stop_signal_with_go_no_go,,,,,,1.0,go,0.0-0.0-69.0,77.0,"[90, 77]",,511,circle,1000.0,solid,<div class = bigbox><div class = centerbox><div class = gng_number><div class = cue-text><img class = center src='/static/experiments/stop_signal_with_go_no_go/images/solid_circle.png'></img></div></div></div></div>,,go,,747046,0.0,practice_trial,69,stop-signal,
70,,,,,,,,500.0,,,,,,stop_signal_with_go_no_go,,,,,,,,0.0-0.0-70.0,-1.0,none,,-1,,500.0,,"<div class = fb_box><div class = center-text><font size = 20>Correct!</font></div></div><div class = prompt_box><p class = center-block-text style = ""font-size:16px; line-height:80%%;"">square: Z key</p><p class = center-block-text style = ""font-size:16px; line-height:80%%;"">circle: M key</p><p class = center-block-text style = ""font-size:16px; line-height:80%%;"">Do not respond if a star appears!</p><p class = center-block-text style = ""font-size:16px; line-height:80%%;"">Do not respond if the shape is outlined!</p></div>",,,,747548,0.0,practice-stop-feedback,70,poldrack-single-stim,
71,,,,,,,,500.0,,,,,,stop_signal_with_go_no_go,,,,,,,,0.0-0.0-71.0,-1.0,none,,-1,,500.0,,<div class = centerbox><div class = fixation>+</div></div>,,,,748051,0.0,prompt_fixation,71,poldrack-single-stim,
72,400.0,400.0,400.0,500.0,<div class = bigbox><div class = centerbox><div class = starbox><img class = center src='/static/experiments/stop_signal_with_go_no_go/images/stopSignal.png'></img></div></div></div>,go,,2000.0,,90.0,1.0,0.0,24.0,stop_signal_with_go_no_go,,,,,,1.0,go,0.0-0.0-72.0,90.0,"[90, 77]",,728,square,1000.0,solid,<div class = bigbox><div class = centerbox><div class = gng_number><div class = cue-text><img class = center src='/static/experiments/stop_signal_with_go_no_go/images/solid_square.png'></img></div></div></div></div>,,go,,750054,0.0,practice_trial,72,stop-signal,
73,,,,,,,,500.0,,,,,,stop_signal_with_go_no_go,,,,,,,,0.0-0.0-73.0,-1.0,none,,-1,,500.0,,"<div class = fb_box><div class = center-text><font size = 20>Correct!</font></div></div><div class = prompt_box><p class = center-block-text style = ""font-size:16px; line-height:80%%;"">square: Z key</p><p class = center-block-text style = ""font-size:16px; line-height:80%%;"">circle: M key</p><p class = center-block-text style = ""font-size:16px; line-height:80%%;"">Do not respond if a star appears!</p><p class = center-block-text style = ""font-size:16px; line-height:80%%;"">Do not respond if the shape is outlined!</p></div>",,,,750556,0.0,practice-stop-feedback,73,poldrack-single-stim,
74,,,,,,,,500.0,,,,,,stop_signal_with_go_no_go,,,,,,,,0.0-0.0-74.0,-1.0,none,,-1,,500.0,,<div class = centerbox><div class = fixation>+</div></div>,,,,751059,0.0,prompt_fixation,74,poldrack-single-stim,
75,400.0,400.0,400.0,500.0,<div class = bigbox><div class = centerbox><div class = starbox><img class = center src='/static/experiments/stop_signal_with_go_no_go/images/stopSignal.png'></img></div></div></div>,go,,2000.0,,90.0,1.0,0.0,25.0,stop_signal_with_go_no_go,,,,,,1.0,go,0.0-0.0-75.0,90.0,"[90, 77]",,794,square,1000.0,solid,<div class = bigbox><div class = centerbox><div class = gng_number><div class = cue-text><img class = center src='/static/experiments/stop_signal_with_go_no_go/images/solid_square.png'></img></div></div></div></div>,,go,,753062,0.0,practice_trial,75,stop-signal,
76,,,,,,,,500.0,,,,,,stop_signal_with_go_no_go,,,,,,,,0.0-0.0-76.0,-1.0,none,,-1,,500.0,,"<div class = fb_box><div class = center-text><font size = 20>Correct!</font></div></div><div class = prompt_box><p class = center-block-text style = ""font-size:16px; line-height:80%%;"">square: Z key</p><p class = center-block-text style = ""font-size:16px; line-height:80%%;"">circle: M key</p><p class = center-block-text style = ""font-size:16px; line-height:80%%;"">Do not respond if a star appears!</p><p class = center-block-text style = ""font-size:16px; line-height:80%%;"">Do not respond if the shape is outlined!</p></div>",,,,753564,0.0,practice-stop-feedback,76,poldrack-single-stim,
77,,,,,,,,500.0,,,,,,stop_signal_with_go_no_go,,,,,,,,0.0-0.0-77.0,-1.0,none,,-1,,500.0,,<div class = centerbox><div class = fixation>+</div></div>,,,,754067,0.0,prompt_fixation,77,poldrack-single-stim,
78,400.0,400.0,400.0,500.0,<div class = bigbox><div class = centerbox><div class = starbox><img class = center src='/static/experiments/stop_signal_with_go_no_go/images/stopSignal.png'></img></div></div></div>,go,,2000.0,,90.0,1.0,0.0,26.0,stop_signal_with_go_no_go,,,,,,1.0,go,0.0-0.0-78.0,90.0,"[90, 77]",,548,square,1000.0,solid,<div class = bigbox><div class = centerbox><div class = gng_number><div class = cue-text><img class = center src='/static/experiments/stop_signal_with_go_no_go/images/solid_square.png'></img></div></div></div></div>,,go,,756071,0.0,practice_trial,78,stop-signal,
79,,,,,,,,500.0,,,,,,stop_signal_with_go_no_go,,,,,,,,0.0-0.0-79.0,-1.0,none,,-1,,500.0,,"<div class = fb_box><div class = center-text><font size = 20>Correct!</font></div></div><div class = prompt_box><p class = center-block-text style = ""font-size:16px; line-height:80%%;"">square: Z key</p><p class = center-block-text style = ""font-size:16px; line-height:80%%;"">circle: M key</p><p class = center-block-text style = ""font-size:16px; line-height:80%%;"">Do not respond if a star appears!</p><p class = center-block-text style = ""font-size:16px; line-height:80%%;"">Do not respond if the shape is outlined!</p></div>",,,,756573,0.0,practice-stop-feedback,79,poldrack-single-stim,
80,,,,,,,,500.0,,,,,,stop_signal_with_go_no_go,,,,,,,,0.0-0.0-80.0,-1.0,none,,-1,,500.0,,<div class = centerbox><div class = fixation>+</div></div>,,,,757076,0.0,prompt_fixation,80,poldrack-single-stim,
81,400.0,400.0,400.0,500.0,<div class = bigbox><div class = centerbox><div class = starbox><img class = center src='/static/experiments/stop_signal_with_go_no_go/images/stopSignal.png'></img></div></div></div>,go,,2000.0,,77.0,1.0,0.0,27.0,stop_signal_with_go_no_go,,,,,,1.0,go,0.0-0.0-81.0,77.0,"[90, 77]",,555,circle,1000.0,solid,<div class = bigbox><div class = centerbox><div class = gng_number><div class = cue-text><img class = center src='/static/experiments/stop_signal_with_go_no_go/images/solid_circle.png'></img></div></div></div></div>,,go,,759079,0.0,practice_trial,81,stop-signal,
82,,,,,,,,500.0,,,,,,stop_signal_with_go_no_go,,,,,,,,0.0-0.0-82.0,-1.0,none,,-1,,500.0,,"<div class = fb_box><div class = center-text><font size = 20>Correct!</font></div></div><div class = prompt_box><p class = center-block-text style = ""font-size:16px; line-height:80%%;"">square: Z key</p><p class = center-block-text style = ""font-size:16px; line-height:80%%;"">circle: M key</p><p class = center-block-text style = ""font-size:16px; line-height:80%%;"">Do not respond if a star appears!</p><p class = center-block-text style = ""font-size:16px; line-height:80%%;"">Do not respond if the shape is outlined!</p></div>",,,,759581,0.0,practice-stop-feedback,82,poldrack-single-stim,
83,,,,,,,,500.0,,,,,,stop_signal_with_go_no_go,,,,,,,,0.0-0.0-83.0,-1.0,none,,-1,,500.0,,<div class = centerbox><div class = fixation>+</div></div>,,,,760084,0.0,prompt_fixation,83,poldrack-single-stim,
84,400.0,400.0,400.0,500.0,<div class = bigbox><div class = centerbox><div class = starbox><img class = center src='/static/experiments/stop_signal_with_go_no_go/images/stopSignal.png'></img></div></div></div>,stop,,2000.0,,-1.0,0.0,0.0,28.0,stop_signal_with_go_no_go,,,,,,,go,0.0-0.0-84.0,77.0,"[90, 77]",,437,circle,1000.0,solid,<div class = bigbox><div class = centerbox><div class = gng_number><div class = cue-text><img class = center src='/static/experiments/stop_signal_with_go_no_go/images/solid_circle.png'></img></div></div></div></div>,0.0,stop,,762087,0.0,practice_trial,84,stop-signal,
85,,,,,,,,500.0,,,,,,stop_signal_with_go_no_go,,,,,,,,0.0-0.0-85.0,-1.0,none,,-1,,500.0,,"<div class = fb_box><div class = center-text><font size = 20>There was a star.</font></div></div><div class = prompt_box><p class = center-block-text style = ""font-size:16px; line-height:80%%;"">square: Z key</p><p class = center-block-text style = ""font-size:16px; line-height:80%%;"">circle: M key</p><p class = center-block-text style = ""font-size:16px; line-height:80%%;"">Do not respond if a star appears!</p><p class = center-block-text style = ""font-size:16px; line-height:80%%;"">Do not respond if the shape is outlined!</p></div>",,,,762589,0.0,practice-stop-feedback,85,poldrack-single-stim,
86,,,,,,,,500.0,,,,,,stop_signal_with_go_no_go,,,,,,,,0.0-0.0-86.0,-1.0,none,,-1,,500.0,,<div class = centerbox><div class = fixation>+</div></div>,,,,763093,0.0,prompt_fixation,86,poldrack-single-stim,
87,350.0,400.0,400.0,500.0,<div class = bigbox><div class = centerbox><div class = starbox><img class = center src='/static/experiments/stop_signal_with_go_no_go/images/stopSignal.png'></img></div></div></div>,go,,2000.0,,-1.0,1.0,0.0,29.0,stop_signal_with_go_no_go,,,,,,1.0,nogo,0.0-0.0-87.0,-1.0,"[90, 77]",,-1,circle,1000.0,outlined,<div class = bigbox><div class = centerbox><div class = gng_number><div class = cue-text><img class = center src='/static/experiments/stop_signal_with_go_no_go/images/outlined_circle.png'></img></div></div></div></div>,,go,,765097,0.0,practice_trial,87,stop-signal,
88,,,,,,,,500.0,,,,,,stop_signal_with_go_no_go,,,,,,,,0.0-0.0-88.0,-1.0,none,,-1,,500.0,,"<div class = fb_box><div class = center-text><font size = 20>Correct!</font></div></div><div class = prompt_box><p class = center-block-text style = ""font-size:16px; line-height:80%%;"">square: Z key</p><p class = center-block-text style = ""font-size:16px; line-height:80%%;"">circle: M key</p><p class = center-block-text style = ""font-size:16px; line-height:80%%;"">Do not respond if a star appears!</p><p class = center-block-text style = ""font-size:16px; line-height:80%%;"">Do not respond if the shape is outlined!</p></div>",,,,765599,0.0,practice-stop-feedback,88,poldrack-single-stim,
89,,,,,,,,500.0,,,,,,stop_signal_with_go_no_go,,,,,,,,0.0-0.0-89.0,-1.0,none,,-1,,500.0,,<div class = centerbox><div class = fixation>+</div></div>,,,,766102,0.0,prompt_fixation,89,poldrack-single-stim,
90,350.0,400.0,350.0,500.0,<div class = bigbox><div class = centerbox><div class = starbox><img class = center src='/static/experiments/stop_signal_with_go_no_go/images/stopSignal.png'></img></div></div></div>,go,,2000.0,,77.0,1.0,0.0,30.0,stop_signal_with_go_no_go,,,,,,1.0,go,0.0-0.0-90.0,77.0,"[90, 77]",,603,circle,1000.0,solid,<div class = bigbox><div class = centerbox><div class = gng_number><div class = cue-text><img class = center src='/static/experiments/stop_signal_with_go_no_go/images/solid_circle.png'></img></div></div></div></div>,,go,,768104,0.0,practice_trial,90,stop-signal,
91,,,,,,,,500.0,,,,,,stop_signal_with_go_no_go,,,,,,,,0.0-0.0-91.0,-1.0,none,,-1,,500.0,,"<div class = fb_box><div class = center-text><font size = 20>Correct!</font></div></div><div class = prompt_box><p class = center-block-text style = ""font-size:16px; line-height:80%%;"">square: Z key</p><p class = center-block-text style = ""font-size:16px; line-height:80%%;"">circle: M key</p><p class = center-block-text style = ""font-size:16px; line-height:80%%;"">Do not respond if a star appears!</p><p class = center-block-text style = ""font-size:16px; line-height:80%%;"">Do not respond if the shape is outlined!</p></div>",,,,768607,0.0,practice-stop-feedback,91,poldrack-single-stim,
92,,,,,,,,500.0,,,,,,stop_signal_with_go_no_go,,,,,,,,0.0-0.0-92.0,-1.0,none,,-1,,500.0,,<div class = centerbox><div class = fixation>+</div></div>,,,,769110,0.0,prompt_fixation,92,poldrack-single-stim,
93,350.0,400.0,400.0,500.0,<div class = bigbox><div class = centerbox><div class = starbox><img class = center src='/static/experiments/stop_signal_with_go_no_go/images/stopSignal.png'></img></div></div></div>,go,,2000.0,,-1.0,1.0,0.0,31.0,stop_signal_with_go_no_go,,,,,,1.0,nogo,0.0-0.0-93.0,-1.0,"[90, 77]",,-1,square,1000.0,outlined,<div class = bigbox><div class = centerbox><div class = gng_number><div class = cue-text><img class = center src='/static/experiments/stop_signal_with_go_no_go/images/outlined_square.png'></img></div></div></div></div>,,go,,771112,0.0,practice_trial,93,stop-signal,
94,,,,,,,,500.0,,,,,,stop_signal_with_go_no_go,,,,,,,,0.0-0.0-94.0,-1.0,none,,-1,,500.0,,"<div class = fb_box><div class = center-text><font size = 20>Correct!</font></div></div><div class = prompt_box><p class = center-block-text style = ""font-size:16px; line-height:80%%;"">square: Z key</p><p class = center-block-text style = ""font-size:16px; line-height:80%%;"">circle: M key</p><p class = center-block-text style = ""font-size:16px; line-height:80%%;"">Do not respond if a star appears!</p><p class = center-block-text style = ""font-size:16px; line-height:80%%;"">Do not respond if the shape is outlined!</p></div>",,,,771616,0.0,practice-stop-feedback,94,poldrack-single-stim,
95,,,,,,,,500.0,,,,,,stop_signal_with_go_no_go,,,,,,,,0.0-0.0-95.0,-1.0,none,,-1,,500.0,,<div class = centerbox><div class = fixation>+</div></div>,,,,772120,0.0,prompt_fixation,95,poldrack-single-stim,
96,350.0,400.0,350.0,500.0,<div class = bigbox><div class = centerbox><div class = starbox><img class = center src='/static/experiments/stop_signal_with_go_no_go/images/stopSignal.png'></img></div></div></div>,go,,2000.0,,77.0,1.0,0.0,32.0,stop_signal_with_go_no_go,,,,,,1.0,go,0.0-0.0-96.0,77.0,"[90, 77]",,586,circle,1000.0,solid,<div class = bigbox><div class = centerbox><div class = gng_number><div class = cue-text><img class = center src='/static/experiments/stop_signal_with_go_no_go/images/solid_circle.png'></img></div></div></div></div>,,go,,774123,0.0,practice_trial,96,stop-signal,
97,,,,,,,,500.0,,,,,,stop_signal_with_go_no_go,,,,,,,,0.0-0.0-97.0,-1.0,none,,-1,,500.0,,"<div class = fb_box><div class = center-text><font size = 20>Correct!</font></div></div><div class = prompt_box><p class = center-block-text style = ""font-size:16px; line-height:80%%;"">square: Z key</p><p class = center-block-text style = ""font-size:16px; line-height:80%%;"">circle: M key</p><p class = center-block-text style = ""font-size:16px; line-height:80%%;"">Do not respond if a star appears!</p><p class = center-block-text style = ""font-size:16px; line-height:80%%;"">Do not respond if the shape is outlined!</p></div>",,,,774626,0.0,practice-stop-feedback,97,poldrack-single-stim,
98,,,,,,,,500.0,,,,,,stop_signal_with_go_no_go,,,,,,,,0.0-0.0-98.0,-1.0,none,,-1,,500.0,,<div class = centerbox><div class = fixation>+</div></div>,,,,775130,0.0,prompt_fixation,98,poldrack-single-stim,
99,350.0,400.0,400.0,500.0,<div class = bigbox><div class = centerbox><div class = starbox><img class = center src='/static/experiments/stop_signal_with_go_no_go/images/stopSignal.png'></img></div></div></div>,go,,2000.0,,-1.0,1.0,0.0,33.0,stop_signal_with_go_no_go,,,,,,1.0,nogo,0.0-0.0-99.0,-1.0,"[90, 77]",,-1,circle,1000.0,outlined,<div class = bigbox><div class = centerbox><div class = gng_number><div class = cue-text><img class = center src='/static/experiments/stop_signal_with_go_no_go/images/outlined_circle.png'></img></div></div></div></div>,,go,,777132,0.0,practice_trial,99,stop-signal,
100,,,,,,,,500.0,,,,,,stop_signal_with_go_no_go,,,,,,,,0.0-0.0-100.0,-1.0,none,,-1,,500.0,,"<div class = fb_box><div class = center-text><font size = 20>Correct!</font></div></div><div class = prompt_box><p class = center-block-text style = ""font-size:16px; line-height:80%%;"">square: Z key</p><p class = center-block-text style = ""font-size:16px; line-height:80%%;"">circle: M key</p><p class = center-block-text style = ""font-size:16px; line-height:80%%;"">Do not respond if a star appears!</p><p class = center-block-text style = ""font-size:16px; line-height:80%%;"">Do not respond if the shape is outlined!</p></div>",,,,777635,0.0,practice-stop-feedback,100,poldrack-single-stim,
101,,,,,,,,500.0,,,,,,stop_signal_with_go_no_go,,,,,,,,0.0-0.0-101.0,-1.0,none,,-1,,500.0,,<div class = centerbox><div class = fixation>+</div></div>,,,,778138,0.0,prompt_fixation,101,poldrack-single-stim,
102,350.0,400.0,350.0,500.0,<div class = bigbox><div class = centerbox><div class = starbox><img class = center src='/static/experiments/stop_signal_with_go_no_go/images/stopSignal.png'></img></div></div></div>,go,,2000.0,,77.0,1.0,0.0,34.0,stop_signal_with_go_no_go,,,,,,1.0,go,0.0-0.0-102.0,77.0,"[90, 77]",,658,circle,1000.0,solid,<div class = bigbox><div class = centerbox><div class = gng_number><div class = cue-text><img class = center src='/static/experiments/stop_signal_with_go_no_go/images/solid_circle.png'></img></div></div></div></div>,,go,,780140,0.0,practice_trial,102,stop-signal,
103,,,,,,,,500.0,,,,,,stop_signal_with_go_no_go,,,,,,,,0.0-0.0-103.0,-1.0,none,,-1,,500.0,,"<div class = fb_box><div class = center-text><font size = 20>Correct!</font></div></div><div class = prompt_box><p class = center-block-text style = ""font-size:16px; line-height:80%%;"">square: Z key</p><p class = center-block-text style = ""font-size:16px; line-height:80%%;"">circle: M key</p><p class = center-block-text style = ""font-size:16px; line-height:80%%;"">Do not respond if a star appears!</p><p class = center-block-text style = ""font-size:16px; line-height:80%%;"">Do not respond if the shape is outlined!</p></div>",,,,780643,0.0,practice-stop-feedback,103,poldrack-single-stim,
104,,,,,,,,500.0,,,,,,stop_signal_with_go_no_go,,,,,,,,0.0-0.0-104.0,-1.0,none,,-1,,500.0,,<div class = centerbox><div class = fixation>+</div></div>,,,,781146,0.0,prompt_fixation,104,poldrack-single-stim,
105,350.0,400.0,350.0,500.0,<div class = bigbox><div class = centerbox><div class = starbox><img class = center src='/static/experiments/stop_signal_with_go_no_go/images/stopSignal.png'></img></div></div></div>,go,,2000.0,,77.0,1.0,0.0,35.0,stop_signal_with_go_no_go,,,,,,1.0,go,0.0-0.0-105.0,77.0,"[90, 77]",,392,circle,1000.0,solid,<div class = bigbox><div class = centerbox><div class = gng_number><div class = cue-text><img class = center src='/static/experiments/stop_signal_with_go_no_go/images/solid_circle.png'></img></div></div></div></div>,,go,,783148,0.0,practice_trial,105,stop-signal,
106,,,,,,,,500.0,,,,,,stop_signal_with_go_no_go,,,,,,,,0.0-0.0-106.0,-1.0,none,,-1,,500.0,,"<div class = fb_box><div class = center-text><font size = 20>Correct!</font></div></div><div class = prompt_box><p class = center-block-text style = ""font-size:16px; line-height:80%%;"">square: Z key</p><p class = center-block-text style = ""font-size:16px; line-height:80%%;"">circle: M key</p><p class = center-block-text style = ""font-size:16px; line-height:80%%;"">Do not respond if a star appears!</p><p class = center-block-text style = ""font-size:16px; line-height:80%%;"">Do not respond if the shape is outlined!</p></div>",,,,783651,0.0,practice-stop-feedback,106,poldrack-single-stim,
107,,,,,,,,500.0,,,,,,stop_signal_with_go_no_go,,,,,,,,0.0-0.0-107.0,-1.0,none,,-1,,500.0,,<div class = centerbox><div class = fixation>+</div></div>,,,,784154,0.0,prompt_fixation,107,poldrack-single-stim,
108,350.0,400.0,350.0,500.0,<div class = bigbox><div class = centerbox><div class = starbox><img class = center src='/static/experiments/stop_signal_with_go_no_go/images/stopSignal.png'></img></div></div></div>,stop,,2000.0,,-1.0,0.0,0.0,36.0,stop_signal_with_go_no_go,,,,,,,go,0.0-0.0-108.0,77.0,"[90, 77]",,506,circle,1000.0,solid,<div class = bigbox><div class = centerbox><div class = gng_number><div class = cue-text><img class = center src='/static/experiments/stop_signal_with_go_no_go/images/solid_circle.png'></img></div></div></div></div>,0.0,stop,,786156,0.0,practice_trial,108,stop-signal,
109,,,,,,,,500.0,,,,,,stop_signal_with_go_no_go,,,,,,,,0.0-0.0-109.0,-1.0,none,,-1,,500.0,,"<div class = fb_box><div class = center-text><font size = 20>There was a star.</font></div></div><div class = prompt_box><p class = center-block-text style = ""font-size:16px; line-height:80%%;"">square: Z key</p><p class = center-block-text style = ""font-size:16px; line-height:80%%;"">circle: M key</p><p class = center-block-text style = ""font-size:16px; line-height:80%%;"">Do not respond if a star appears!</p><p class = center-block-text style = ""font-size:16px; line-height:80%%;"">Do not respond if the shape is outlined!</p></div>",,,,786659,0.0,practice-stop-feedback,109,poldrack-single-stim,
110,,,,,,,,500.0,,,,,,stop_signal_with_go_no_go,,,,,,,,0.0-0.0-110.0,-1.0,none,,-1,,500.0,,<div class = centerbox><div class = fixation>+</div></div>,,,,787161,0.0,prompt_fixation,110,poldrack-single-stim,
111,300.0,400.0,300.0,500.0,<div class = bigbox><div class = centerbox><div class = starbox><img class = center src='/static/experiments/stop_signal_with_go_no_go/images/stopSignal.png'></img></div></div></div>,stop,,2000.0,,-1.0,1.0,0.0,37.0,stop_signal_with_go_no_go,,,,,,,go,0.0-0.0-111.0,-1.0,"[90, 77]",,-1,circle,1000.0,solid,<div class = bigbox><div class = centerbox><div class = gng_number><div class = cue-text><img class = center src='/static/experiments/stop_signal_with_go_no_go/images/solid_circle.png'></img></div></div></div></div>,1.0,stop,,789164,0.0,practice_trial,111,stop-signal,
112,,,,,,,,500.0,,,,,,stop_signal_with_go_no_go,,,,,,,,0.0-0.0-112.0,-1.0,none,,-1,,500.0,,"<div class = fb_box><div class = center-text><font size = 20>Correct!</font></div></div><div class = prompt_box><p class = center-block-text style = ""font-size:16px; line-height:80%%;"">square: Z key</p><p class = center-block-text style = ""font-size:16px; line-height:80%%;"">circle: M key</p><p class = center-block-text style = ""font-size:16px; line-height:80%%;"">Do not respond if a star appears!</p><p class = center-block-text style = ""font-size:16px; line-height:80%%;"">Do not respond if the shape is outlined!</p></div>",,,,789668,0.0,practice-stop-feedback,112,poldrack-single-stim,
113,,,,,,,,500.0,,,,,,stop_signal_with_go_no_go,,,,,,,,0.0-0.0-113.0,-1.0,none,,-1,,500.0,,<div class = centerbox><div class = fixation>+</div></div>,,,,790171,0.0,prompt_fixation,113,poldrack-single-stim,
114,350.0,400.0,400.0,500.0,<div class = bigbox><div class = centerbox><div class = starbox><img class = center src='/static/experiments/stop_signal_with_go_no_go/images/stopSignal.png'></img></div></div></div>,stop,,2000.0,,-1.0,1.0,0.0,38.0,stop_signal_with_go_no_go,,,,,,,nogo,0.0-0.0-114.0,-1.0,"[90, 77]",,-1,square,1000.0,outlined,<div class = bigbox><div class = centerbox><div class = gng_number><div class = cue-text><img class = center src='/static/experiments/stop_signal_with_go_no_go/images/outlined_square.png'></img></div></div></div></div>,1.0,stop,,792173,0.0,practice_trial,114,stop-signal,
115,,,,,,,,500.0,,,,,,stop_signal_with_go_no_go,,,,,,,,0.0-0.0-115.0,-1.0,none,,-1,,500.0,,"<div class = fb_box><div class = center-text><font size = 20>Correct!</font></div></div><div class = prompt_box><p class = center-block-text style = ""font-size:16px; line-height:80%%;"">square: Z key</p><p class = center-block-text style = ""font-size:16px; line-height:80%%;"">circle: M key</p><p class = center-block-text style = ""font-size:16px; line-height:80%%;"">Do not respond if a star appears!</p><p class = center-block-text style = ""font-size:16px; line-height:80%%;"">Do not respond if the shape is outlined!</p></div>",,,,792677,0.0,practice-stop-feedback,115,poldrack-single-stim,
116,,,,,,,,500.0,,,,,,stop_signal_with_go_no_go,,,,,,,,0.0-0.0-116.0,-1.0,none,,-1,,500.0,,<div class = centerbox><div class = fixation>+</div></div>,,,,793180,0.0,prompt_fixation,116,poldrack-single-stim,
117,350.0,450.0,350.0,500.0,<div class = bigbox><div class = centerbox><div class = starbox><img class = center src='/static/experiments/stop_signal_with_go_no_go/images/stopSignal.png'></img></div></div></div>,go,,2000.0,,90.0,0.0,0.0,39.0,stop_signal_with_go_no_go,,,,,,0.0,go,0.0-0.0-117.0,77.0,"[90, 77]",,659,square,1000.0,solid,<div class = bigbox><div class = centerbox><div class = gng_number><div class = cue-text><img class = center src='/static/experiments/stop_signal_with_go_no_go/images/solid_square.png'></img></div></div></div></div>,,go,,795182,0.0,practice_trial,117,stop-signal,
118,,,,,,,,500.0,,,,,,stop_signal_with_go_no_go,,,,,,,,0.0-0.0-118.0,-1.0,none,,-1,,500.0,,"<div class = fb_box><div class = center-text><font size = 20>Incorrect</font></div></div><div class = prompt_box><p class = center-block-text style = ""font-size:16px; line-height:80%%;"">square: Z key</p><p class = center-block-text style = ""font-size:16px; line-height:80%%;"">circle: M key</p><p class = center-block-text style = ""font-size:16px; line-height:80%%;"">Do not respond if a star appears!</p><p class = center-block-text style = ""font-size:16px; line-height:80%%;"">Do not respond if the shape is outlined!</p></div>",,,,795685,0.0,practice-stop-feedback,118,poldrack-single-stim,
119,,,,,,,,500.0,,,,,,stop_signal_with_go_no_go,,,,,,,,0.0-0.0-119.0,-1.0,none,,-1,,500.0,,<div class = centerbox><div class = fixation>+</div></div>,,,,796186,0.0,prompt_fixation,119,poldrack-single-stim,
120,350.0,450.0,350.0,500.0,<div class = bigbox><div class = centerbox><div class = starbox><img class = center src='/static/experiments/stop_signal_with_go_no_go/images/stopSignal.png'></img></div></div></div>,stop,,2000.0,,-1.0,1.0,0.0,40.0,stop_signal_with_go_no_go,,,,,,,go,0.0-0.0-120.0,-1.0,"[90, 77]",,-1,square,1000.0,solid,<div class = bigbox><div class = centerbox><div class = gng_number><div class = cue-text><img class = center src='/static/experiments/stop_signal_with_go_no_go/images/solid_square.png'></img></div></div></div></div>,1.0,stop,,798190,0.0,practice_trial,120,stop-signal,
121,,,,,,,,500.0,,,,,,stop_signal_with_go_no_go,,,,,,,,0.0-0.0-121.0,-1.0,none,,-1,,500.0,,"<div class = fb_box><div class = center-text><font size = 20>Correct!</font></div></div><div class = prompt_box><p class = center-block-text style = ""font-size:16px; line-height:80%%;"">square: Z key</p><p class = center-block-text style = ""font-size:16px; line-height:80%%;"">circle: M key</p><p class = center-block-text style = ""font-size:16px; line-height:80%%;"">Do not respond if a star appears!</p><p class = center-block-text style = ""font-size:16px; line-height:80%%;"">Do not respond if the shape is outlined!</p></div>",,,,798693,0.0,practice-stop-feedback,121,poldrack-single-stim,
122,,,,,,,,500.0,,,,,,stop_signal_with_go_no_go,,,,,,,,0.0-0.0-122.0,-1.0,none,,-1,,500.0,,<div class = centerbox><div class = fixation>+</div></div>,,,,799195,0.0,prompt_fixation,122,poldrack-single-stim,
123,400.0,450.0,400.0,500.0,<div class = bigbox><div class = centerbox><div class = starbox><img class = center src='/static/experiments/stop_signal_with_go_no_go/images/stopSignal.png'></img></div></div></div>,stop,,2000.0,,-1.0,1.0,0.0,41.0,stop_signal_with_go_no_go,,,,,,,go,0.0-0.0-123.0,-1.0,"[90, 77]",,-1,square,1000.0,solid,<div class = bigbox><div class = centerbox><div class = gng_number><div class = cue-text><img class = center src='/static/experiments/stop_signal_with_go_no_go/images/solid_square.png'></img></div></div></div></div>,1.0,stop,,801198,0.0,practice_trial,123,stop-signal,
124,,,,,,,,500.0,,,,,,stop_signal_with_go_no_go,,,,,,,,0.0-0.0-124.0,-1.0,none,,-1,,500.0,,"<div class = fb_box><div class = center-text><font size = 20>Correct!</font></div></div><div class = prompt_box><p class = center-block-text style = ""font-size:16px; line-height:80%%;"">square: Z key</p><p class = center-block-text style = ""font-size:16px; line-height:80%%;"">circle: M key</p><p class = center-block-text style = ""font-size:16px; line-height:80%%;"">Do not respond if a star appears!</p><p class = center-block-text style = ""font-size:16px; line-height:80%%;"">Do not respond if the shape is outlined!</p></div>",,,,801701,0.0,practice-stop-feedback,124,poldrack-single-stim,
125,,,,,,,,500.0,,,,,,stop_signal_with_go_no_go,,,,,,,,0.0-0.0-125.0,-1.0,none,,-1,,500.0,,<div class = centerbox><div class = fixation>+</div></div>,,,,802203,0.0,prompt_fixation,125,poldrack-single-stim,
126,450.0,450.0,450.0,500.0,<div class = bigbox><div class = centerbox><div class = starbox><img class = center src='/static/experiments/stop_signal_with_go_no_go/images/stopSignal.png'></img></div></div></div>,go,,2000.0,,90.0,1.0,0.0,42.0,stop_signal_with_go_no_go,,,,,,1.0,go,0.0-0.0-126.0,90.0,"[90, 77]",,622,square,1000.0,solid,<div class = bigbox><div class = centerbox><div class = gng_number><div class = cue-text><img class = center src='/static/experiments/stop_signal_with_go_no_go/images/solid_square.png'></img></div></div></div></div>,,go,,804206,0.0,practice_trial,126,stop-signal,
127,,,,,,,,500.0,,,,,,stop_signal_with_go_no_go,,,,,,,,0.0-0.0-127.0,-1.0,none,,-1,,500.0,,"<div class = fb_box><div class = center-text><font size = 20>Correct!</font></div></div><div class = prompt_box><p class = center-block-text style = ""font-size:16px; line-height:80%%;"">square: Z key</p><p class = center-block-text style = ""font-size:16px; line-height:80%%;"">circle: M key</p><p class = center-block-text style = ""font-size:16px; line-height:80%%;"">Do not respond if a star appears!</p><p class = center-block-text style = ""font-size:16px; line-height:80%%;"">Do not respond if the shape is outlined!</p></div>",,,,804709,0.0,practice-stop-feedback,127,poldrack-single-stim,
128,,,,,,,,1789.0,,,,,,stop_signal_with_go_no_go,,,,,,,,0.0-1.0,13.0,[13],,1789,,1789.0,,"<div class = bigbox><div class = picture_box><p class = block-text><font color=""white""><br>Please take this time to read your feedback and to take a short break. Press enter to continue.</p><p class = block-text>Done with this practice.</font></p></div></div>",,,,806503,0.0,practice-no-stop-feedback,128,poldrack-single-stim,
129,,,,,,,,7783.0,,,,,,stop_signal_with_go_no_go,,,,,,,,0.0-2.0,13.0,[13],,7783,,7783.0,,"<div class = centerbox><p class = block-text>We will now begin the test portion.</p><p class = block-text>You will see a shape on every trial. Please respond to each shape as quickly and accurately as possible!</p><p class = block-text>If the shape is a square, press the Z key. If the shape is a circle, press the M key.</p><p class = block-text>Do not respond if you see a star! Do not respond if the shape is outlined!</p><p class = block-text>You will no longer receive the rule prompt, so remember the instructions before you continue. Press Enter to begin.</p></div>",,,,814287,0.0,test_intro,129,poldrack-single-stim,
130,,,,,,,,1667.0,,,,,,stop_signal_with_go_no_go,,,,,,,,0.0-3.0-0.0,13.0,[13],,1667,,1667.0,,"<div class = bigbox><div class = picture_box><p class = block-text><font color=""white"">We will now start the test session. Please concentrate on responding quickly and accurately to each stimulus.</font></p></div></div>",,,,815957,0.0,practice-no-stop-feedback,130,poldrack-single-stim,
131,,,,,,,,1662.0,True,40.0,,,,stop_signal_with_go_no_go,,,,,,,,0.0-3.0-1.0-0.0,40.0,[],,1662,,1662.0,,<p>Press the arrow key that indicates the direction of the floor when standing.</p>,,,,817620,200.0,attention_check,131,attention-check,
132,,,,,,,,500.0,,,,,,stop_signal_with_go_no_go,,,,,,,,0.0-3.0-2.0,-1.0,none,,-1,,500.0,,<div class = centerbox><div class = fixation>+</div></div>,,,,818325,0.0,fixation,132,poldrack-single-stim,
133,450.0,450.0,450.0,500.0,<div class = bigbox><div class = centerbox><div class = starbox><img class = center src='/static/experiments/stop_signal_with_go_no_go/images/stopSignal.png'></img></div></div></div>,go,,2000.0,,90.0,1.0,0.0,1.0,stop_signal_with_go_no_go,,,,,,1.0,go,0.0-3.0-3.0,90.0,"[90, 77]",,637,square,1000.0,solid,<div class = bigbox><div class = centerbox><div class = gng_number><div class = cue-text><img class = center src='/static/experiments/stop_signal_with_go_no_go/images/solid_square.png'></img></div></div></div></div>,,go,,820328,0.0,test_trial,133,stop-signal,
134,,,,,,,,500.0,,,,,,stop_signal_with_go_no_go,,,,,,,,0.0-3.0-4.0,-1.0,none,,-1,,500.0,,<div class = centerbox><div class = fixation>+</div></div>,,,,820831,0.0,fixation,134,poldrack-single-stim,
135,450.0,450.0,450.0,500.0,<div class = bigbox><div class = centerbox><div class = starbox><img class = center src='/static/experiments/stop_signal_with_go_no_go/images/stopSignal.png'></img></div></div></div>,go,,2000.0,,-1.0,1.0,0.0,2.0,stop_signal_with_go_no_go,,,,,,1.0,nogo,0.0-3.0-5.0,-1.0,"[90, 77]",,-1,circle,1000.0,outlined,<div class = bigbox><div class = centerbox><div class = gng_number><div class = cue-text><img class = center src='/static/experiments/stop_signal_with_go_no_go/images/outlined_circle.png'></img></div></div></div></div>,,go,,822834,0.0,test_trial,135,stop-signal,
136,,,,,,,,500.0,,,,,,stop_signal_with_go_no_go,,,,,,,,0.0-3.0-6.0,-1.0,none,,-1,,500.0,,<div class = centerbox><div class = fixation>+</div></div>,,,,823338,0.0,fixation,136,poldrack-single-stim,
137,450.0,450.0,450.0,500.0,<div class = bigbox><div class = centerbox><div class = starbox><img class = center src='/static/experiments/stop_signal_with_go_no_go/images/stopSignal.png'></img></div></div></div>,go,,2000.0,,77.0,1.0,0.0,3.0,stop_signal_with_go_no_go,,,,,,1.0,go,0.0-3.0-7.0,77.0,"[90, 77]",,596,circle,1000.0,solid,<div class = bigbox><div class = centerbox><div class = gng_number><div class = cue-text><img class = center src='/static/experiments/stop_signal_with_go_no_go/images/solid_circle.png'></img></div></div></div></div>,,go,,825341,0.0,test_trial,137,stop-signal,
138,,,,,,,,500.0,,,,,,stop_signal_with_go_no_go,,,,,,,,0.0-3.0-8.0,-1.0,none,,-1,,500.0,,<div class = centerbox><div class = fixation>+</div></div>,,,,825843,0.0,fixation,138,poldrack-single-stim,
139,450.0,450.0,450.0,500.0,<div class = bigbox><div class = centerbox><div class = starbox><img class = center src='/static/experiments/stop_signal_with_go_no_go/images/stopSignal.png'></img></div></div></div>,go,,2000.0,,90.0,1.0,0.0,4.0,stop_signal_with_go_no_go,,,,,,1.0,go,0.0-3.0-9.0,90.0,"[90, 77]",,648,square,1000.0,solid,<div class = bigbox><div class = centerbox><div class = gng_number><div class = cue-text><img class = center src='/static/experiments/stop_signal_with_go_no_go/images/solid_square.png'></img></div></div></div></div>,,go,,827846,0.0,test_trial,139,stop-signal,
140,,,,,,,,500.0,,,,,,stop_signal_with_go_no_go,,,,,,,,0.0-3.0-10.0,-1.0,none,,-1,,500.0,,<div class = centerbox><div class = fixation>+</div></div>,,,,828349,0.0,fixation,140,poldrack-single-stim,
141,450.0,450.0,450.0,500.0,<div class = bigbox><div class = centerbox><div class = starbox><img class = center src='/static/experiments/stop_signal_with_go_no_go/images/stopSignal.png'></img></div></div></div>,go,,2000.0,,77.0,1.0,0.0,5.0,stop_signal_with_go_no_go,,,,,,1.0,go,0.0-3.0-11.0,77.0,"[90, 77]",,569,circle,1000.0,solid,<div class = bigbox><div class = centerbox><div class = gng_number><div class = cue-text><img class = center src='/static/experiments/stop_signal_with_go_no_go/images/solid_circle.png'></img></div></div></div></div>,,go,,830351,0.0,test_trial,141,stop-signal,
142,,,,,,,,500.0,,,,,,stop_signal_with_go_no_go,,,,,,,,0.0-3.0-12.0,-1.0,none,,-1,,500.0,,<div class = centerbox><div class = fixation>+</div></div>,,,,830854,0.0,fixation,142,poldrack-single-stim,
143,450.0,450.0,450.0,500.0,<div class = bigbox><div class = centerbox><div class = starbox><img class = center src='/static/experiments/stop_signal_with_go_no_go/images/stopSignal.png'></img></div></div></div>,stop,,2000.0,,-1.0,1.0,0.0,6.0,stop_signal_with_go_no_go,,,,,,,nogo,0.0-3.0-13.0,-1.0,"[90, 77]",,-1,square,1000.0,outlined,<div class = bigbox><div class = centerbox><div class = gng_number><div class = cue-text><img class = center src='/static/experiments/stop_signal_with_go_no_go/images/outlined_square.png'></img></div></div></div></div>,1.0,stop,,832857,0.0,test_trial,143,stop-signal,
144,,,,,,,,500.0,,,,,,stop_signal_with_go_no_go,,,,,,,,0.0-3.0-14.0,-1.0,none,,-1,,500.0,,<div class = centerbox><div class = fixation>+</div></div>,,,,833359,0.0,fixation,144,poldrack-single-stim,
145,450.0,500.0,450.0,500.0,<div class = bigbox><div class = centerbox><div class = starbox><img class = center src='/static/experiments/stop_signal_with_go_no_go/images/stopSignal.png'></img></div></div></div>,go,,2000.0,,77.0,1.0,0.0,7.0,stop_signal_with_go_no_go,,,,,,1.0,go,0.0-3.0-15.0,77.0,"[90, 77]",,764,circle,1000.0,solid,<div class = bigbox><div class = centerbox><div class = gng_number><div class = cue-text><img class = center src='/static/experiments/stop_signal_with_go_no_go/images/solid_circle.png'></img></div></div></div></div>,,go,,835363,0.0,test_trial,145,stop-signal,
146,,,,,,,,500.0,,,,,,stop_signal_with_go_no_go,,,,,,,,0.0-3.0-16.0,-1.0,none,,-1,,500.0,,<div class = centerbox><div class = fixation>+</div></div>,,,,835865,0.0,fixation,146,poldrack-single-stim,
147,450.0,500.0,450.0,500.0,<div class = bigbox><div class = centerbox><div class = starbox><img class = center src='/static/experiments/stop_signal_with_go_no_go/images/stopSignal.png'></img></div></div></div>,stop,,2000.0,,-1.0,0.0,0.0,8.0,stop_signal_with_go_no_go,,,,,,,go,0.0-3.0-17.0,90.0,"[90, 77]",,522,square,1000.0,solid,<div class = bigbox><div class = centerbox><div class = gng_number><div class = cue-text><img class = center src='/static/experiments/stop_signal_with_go_no_go/images/solid_square.png'></img></div></div></div></div>,0.0,stop,,837869,0.0,test_trial,147,stop-signal,
148,,,,,,,,500.0,,,,,,stop_signal_with_go_no_go,,,,,,,,0.0-3.0-18.0,-1.0,none,,-1,,500.0,,<div class = centerbox><div class = fixation>+</div></div>,,,,838372,0.0,fixation,148,poldrack-single-stim,
149,400.0,500.0,500.0,500.0,<div class = bigbox><div class = centerbox><div class = starbox><img class = center src='/static/experiments/stop_signal_with_go_no_go/images/stopSignal.png'></img></div></div></div>,stop,,2000.0,,-1.0,1.0,0.0,9.0,stop_signal_with_go_no_go,,,,,,,nogo,0.0-3.0-19.0,-1.0,"[90, 77]",,-1,circle,1000.0,outlined,<div class = bigbox><div class = centerbox><div class = gng_number><div class = cue-text><img class = center src='/static/experiments/stop_signal_with_go_no_go/images/outlined_circle.png'></img></div></div></div></div>,1.0,stop,,840374,0.0,test_trial,149,stop-signal,
150,,,,,,,,500.0,,,,,,stop_signal_with_go_no_go,,,,,,,,0.0-3.0-20.0,-1.0,none,,-1,,500.0,,<div class = centerbox><div class = fixation>+</div></div>,,,,840877,0.0,fixation,150,poldrack-single-stim,
151,400.0,550.0,400.0,500.0,<div class = bigbox><div class = centerbox><div class = starbox><img class = center src='/static/experiments/stop_signal_with_go_no_go/images/stopSignal.png'></img></div></div></div>,stop,,2000.0,,-1.0,1.0,0.0,10.0,stop_signal_with_go_no_go,,,,,,,go,0.0-3.0-21.0,-1.0,"[90, 77]",,-1,circle,1000.0,solid,<div class = bigbox><div class = centerbox><div class = gng_number><div class = cue-text><img class = center src='/static/experiments/stop_signal_with_go_no_go/images/solid_circle.png'></img></div></div></div></div>,1.0,stop,,842880,0.0,test_trial,151,stop-signal,
152,,,,,,,,500.0,,,,,,stop_signal_with_go_no_go,,,,,,,,0.0-3.0-22.0,-1.0,none,,-1,,500.0,,<div class = centerbox><div class = fixation>+</div></div>,,,,843382,0.0,fixation,152,poldrack-single-stim,
153,450.0,550.0,450.0,500.0,<div class = bigbox><div class = centerbox><div class = starbox><img class = center src='/static/experiments/stop_signal_with_go_no_go/images/stopSignal.png'></img></div></div></div>,go,,2000.0,,90.0,1.0,0.0,11.0,stop_signal_with_go_no_go,,,,,,1.0,go,0.0-3.0-23.0,90.0,"[90, 77]",,522,square,1000.0,solid,<div class = bigbox><div class = centerbox><div class = gng_number><div class = cue-text><img class = center src='/static/experiments/stop_signal_with_go_no_go/images/solid_square.png'></img></div></div></div></div>,,go,,845385,0.0,test_trial,153,stop-signal,
154,,,,,,,,500.0,,,,,,stop_signal_with_go_no_go,,,,,,,,0.0-3.0-24.0,-1.0,none,,-1,,500.0,,<div class = centerbox><div class = fixation>+</div></div>,,,,845888,0.0,fixation,154,poldrack-single-stim,
155,450.0,550.0,450.0,500.0,<div class = bigbox><div class = centerbox><div class = starbox><img class = center src='/static/experiments/stop_signal_with_go_no_go/images/stopSignal.png'></img></div></div></div>,stop,,2000.0,,-1.0,0.0,0.0,12.0,stop_signal_with_go_no_go,,,,,,,go,0.0-3.0-25.0,90.0,"[90, 77]",,421,square,1000.0,solid,<div class = bigbox><div class = centerbox><div class = gng_number><div class = cue-text><img class = center src='/static/experiments/stop_signal_with_go_no_go/images/solid_square.png'></img></div></div></div></div>,0.0,stop,,847890,0.0,test_trial,155,stop-signal,
156,,,,,,,,500.0,,,,,,stop_signal_with_go_no_go,,,,,,,,0.0-3.0-26.0,-1.0,none,,-1,,500.0,,<div class = centerbox><div class = fixation>+</div></div>,,,,848393,0.0,fixation,156,poldrack-single-stim,
157,400.0,550.0,550.0,500.0,<div class = bigbox><div class = centerbox><div class = starbox><img class = center src='/static/experiments/stop_signal_with_go_no_go/images/stopSignal.png'></img></div></div></div>,go,,2000.0,,-1.0,1.0,0.0,13.0,stop_signal_with_go_no_go,,,,,,1.0,nogo,0.0-3.0-27.0,-1.0,"[90, 77]",,-1,circle,1000.0,outlined,<div class = bigbox><div class = centerbox><div class = gng_number><div class = cue-text><img class = center src='/static/experiments/stop_signal_with_go_no_go/images/outlined_circle.png'></img></div></div></div></div>,,go,,850396,0.0,test_trial,157,stop-signal,
158,,,,,,,,500.0,,,,,,stop_signal_with_go_no_go,,,,,,,,0.0-3.0-28.0,-1.0,none,,-1,,500.0,,<div class = centerbox><div class = fixation>+</div></div>,,,,850899,0.0,fixation,158,poldrack-single-stim,
159,400.0,550.0,400.0,500.0,<div class = bigbox><div class = centerbox><div class = starbox><img class = center src='/static/experiments/stop_signal_with_go_no_go/images/stopSignal.png'></img></div></div></div>,go,,2000.0,,90.0,1.0,0.0,14.0,stop_signal_with_go_no_go,,,,,,1.0,go,0.0-3.0-29.0,90.0,"[90, 77]",,768,square,1000.0,solid,<div class = bigbox><div class = centerbox><div class = gng_number><div class = cue-text><img class = center src='/static/experiments/stop_signal_with_go_no_go/images/solid_square.png'></img></div></div></div></div>,,go,,852902,0.0,test_trial,159,stop-signal,
160,,,,,,,,500.0,,,,,,stop_signal_with_go_no_go,,,,,,,,0.0-3.0-30.0,-1.0,none,,-1,,500.0,,<div class = centerbox><div class = fixation>+</div></div>,,,,853404,0.0,fixation,160,poldrack-single-stim,
161,400.0,550.0,400.0,500.0,<div class = bigbox><div class = centerbox><div class = starbox><img class = center src='/static/experiments/stop_signal_with_go_no_go/images/stopSignal.png'></img></div></div></div>,go,,2000.0,,90.0,1.0,0.0,15.0,stop_signal_with_go_no_go,,,,,,1.0,go,0.0-3.0-31.0,90.0,"[90, 77]",,456,square,1000.0,solid,<div class = bigbox><div class = centerbox><div class = gng_number><div class = cue-text><img class = center src='/static/experiments/stop_signal_with_go_no_go/images/solid_square.png'></img></div></div></div></div>,,go,,855407,0.0,test_trial,161,stop-signal,
162,,,,,,,,500.0,,,,,,stop_signal_with_go_no_go,,,,,,,,0.0-3.0-32.0,-1.0,none,,-1,,500.0,,<div class = centerbox><div class = fixation>+</div></div>,,,,855910,0.0,fixation,162,poldrack-single-stim,
163,400.0,550.0,550.0,500.0,<div class = bigbox><div class = centerbox><div class = starbox><img class = center src='/static/experiments/stop_signal_with_go_no_go/images/stopSignal.png'></img></div></div></div>,stop,,2000.0,,-1.0,1.0,0.0,16.0,stop_signal_with_go_no_go,,,,,,,nogo,0.0-3.0-33.0,-1.0,"[90, 77]",,-1,circle,1000.0,outlined,<div class = bigbox><div class = centerbox><div class = gng_number><div class = cue-text><img class = center src='/static/experiments/stop_signal_with_go_no_go/images/outlined_circle.png'></img></div></div></div></div>,1.0,stop,,857912,0.0,test_trial,163,stop-signal,
164,,,,,,,,500.0,,,,,,stop_signal_with_go_no_go,,,,,,,,0.0-3.0-34.0,-1.0,none,,-1,,500.0,,<div class = centerbox><div class = fixation>+</div></div>,,,,858415,0.0,fixation,164,poldrack-single-stim,
165,400.0,600.0,400.0,500.0,<div class = bigbox><div class = centerbox><div class = starbox><img class = center src='/static/experiments/stop_signal_with_go_no_go/images/stopSignal.png'></img></div></div></div>,go,,2000.0,,90.0,1.0,0.0,17.0,stop_signal_with_go_no_go,,,,,,1.0,go,0.0-3.0-35.0,90.0,"[90, 77]",,529,square,1000.0,solid,<div class = bigbox><div class = centerbox><div class = gng_number><div class = cue-text><img class = center src='/static/experiments/stop_signal_with_go_no_go/images/solid_square.png'></img></div></div></div></div>,,go,,860418,0.0,test_trial,165,stop-signal,
166,,,,,,,,500.0,,,,,,stop_signal_with_go_no_go,,,,,,,,0.0-3.0-36.0,-1.0,none,,-1,,500.0,,<div class = centerbox><div class = fixation>+</div></div>,,,,860920,0.0,fixation,166,poldrack-single-stim,
167,400.0,600.0,400.0,500.0,<div class = bigbox><div class = centerbox><div class = starbox><img class = center src='/static/experiments/stop_signal_with_go_no_go/images/stopSignal.png'></img></div></div></div>,go,,2000.0,,77.0,1.0,0.0,18.0,stop_signal_with_go_no_go,,,,,,1.0,go,0.0-3.0-37.0,77.0,"[90, 77]",,482,circle,1000.0,solid,<div class = bigbox><div class = centerbox><div class = gng_number><div class = cue-text><img class = center src='/static/experiments/stop_signal_with_go_no_go/images/solid_circle.png'></img></div></div></div></div>,,go,,862923,0.0,test_trial,167,stop-signal,
168,,,,,,,,500.0,,,,,,stop_signal_with_go_no_go,,,,,,,,0.0-3.0-38.0,-1.0,none,,-1,,500.0,,<div class = centerbox><div class = fixation>+</div></div>,,,,863426,0.0,fixation,168,poldrack-single-stim,
169,400.0,600.0,400.0,500.0,<div class = bigbox><div class = centerbox><div class = starbox><img class = center src='/static/experiments/stop_signal_with_go_no_go/images/stopSignal.png'></img></div></div></div>,go,,2000.0,,77.0,0.0,0.0,19.0,stop_signal_with_go_no_go,,,,,,0.0,go,0.0-3.0-39.0,90.0,"[90, 77]",,478,circle,1000.0,solid,<div class = bigbox><div class = centerbox><div class = gng_number><div class = cue-text><img class = center src='/static/experiments/stop_signal_with_go_no_go/images/solid_circle.png'></img></div></div></div></div>,,go,,865429,0.0,test_trial,169,stop-signal,
170,,,,,,,,500.0,,,,,,stop_signal_with_go_no_go,,,,,,,,0.0-3.0-40.0,-1.0,none,,-1,,500.0,,<div class = centerbox><div class = fixation>+</div></div>,,,,865932,0.0,fixation,170,poldrack-single-stim,
171,400.0,600.0,400.0,500.0,<div class = bigbox><div class = centerbox><div class = starbox><img class = center src='/static/experiments/stop_signal_with_go_no_go/images/stopSignal.png'></img></div></div></div>,go,,2000.0,,77.0,1.0,0.0,20.0,stop_signal_with_go_no_go,,,,,,1.0,go,0.0-3.0-41.0,77.0,"[90, 77]",,667,circle,1000.0,solid,<div class = bigbox><div class = centerbox><div class = gng_number><div class = cue-text><img class = center src='/static/experiments/stop_signal_with_go_no_go/images/solid_circle.png'></img></div></div></div></div>,,go,,867936,0.0,test_trial,171,stop-signal,
172,,,,,,,,500.0,,,,,,stop_signal_with_go_no_go,,,,,,,,0.0-3.0-42.0,-1.0,none,,-1,,500.0,,<div class = centerbox><div class = fixation>+</div></div>,,,,868438,0.0,fixation,172,poldrack-single-stim,
173,400.0,600.0,400.0,500.0,<div class = bigbox><div class = centerbox><div class = starbox><img class = center src='/static/experiments/stop_signal_with_go_no_go/images/stopSignal.png'></img></div></div></div>,go,,2000.0,,77.0,1.0,0.0,21.0,stop_signal_with_go_no_go,,,,,,1.0,go,0.0-3.0-43.0,77.0,"[90, 77]",,406,circle,1000.0,solid,<div class = bigbox><div class = centerbox><div class = gng_number><div class = cue-text><img class = center src='/static/experiments/stop_signal_with_go_no_go/images/solid_circle.png'></img></div></div></div></div>,,go,,870441,0.0,test_trial,173,stop-signal,
174,,,,,,,,500.0,,,,,,stop_signal_with_go_no_go,,,,,,,,0.0-3.0-44.0,-1.0,none,,-1,,500.0,,<div class = centerbox><div class = fixation>+</div></div>,,,,870943,0.0,fixation,174,poldrack-single-stim,
175,400.0,600.0,400.0,500.0,<div class = bigbox><div class = centerbox><div class = starbox><img class = center src='/static/experiments/stop_signal_with_go_no_go/images/stopSignal.png'></img></div></div></div>,go,,2000.0,,90.0,1.0,0.0,22.0,stop_signal_with_go_no_go,,,,,,1.0,go,0.0-3.0-45.0,90.0,"[90, 77]",,551,square,1000.0,solid,<div class = bigbox><div class = centerbox><div class = gng_number><div class = cue-text><img class = center src='/static/experiments/stop_signal_with_go_no_go/images/solid_square.png'></img></div></div></div></div>,,go,,872946,0.0,test_trial,175,stop-signal,
176,,,,,,,,500.0,,,,,,stop_signal_with_go_no_go,,,,,,,,0.0-3.0-46.0,-1.0,none,,-1,,500.0,,<div class = centerbox><div class = fixation>+</div></div>,,,,873449,0.0,fixation,176,poldrack-single-stim,
177,400.0,600.0,400.0,500.0,<div class = bigbox><div class = centerbox><div class = starbox><img class = center src='/static/experiments/stop_signal_with_go_no_go/images/stopSignal.png'></img></div></div></div>,go,,2000.0,,77.0,1.0,0.0,23.0,stop_signal_with_go_no_go,,,,,,1.0,go,0.0-3.0-47.0,77.0,"[90, 77]",,507,circle,1000.0,solid,<div class = bigbox><div class = centerbox><div class = gng_number><div class = cue-text><img class = center src='/static/experiments/stop_signal_with_go_no_go/images/solid_circle.png'></img></div></div></div></div>,,go,,875451,0.0,test_trial,177,stop-signal,
178,,,,,,,,500.0,,,,,,stop_signal_with_go_no_go,,,,,,,,0.0-3.0-48.0,-1.0,none,,-1,,500.0,,<div class = centerbox><div class = fixation>+</div></div>,,,,875954,0.0,fixation,178,poldrack-single-stim,
179,400.0,600.0,400.0,500.0,<div class = bigbox><div class = centerbox><div class = starbox><img class = center src='/static/experiments/stop_signal_with_go_no_go/images/stopSignal.png'></img></div></div></div>,go,,2000.0,,90.0,1.0,0.0,24.0,stop_signal_with_go_no_go,,,,,,1.0,go,0.0-3.0-49.0,90.0,"[90, 77]",,395,square,1000.0,solid,<div class = bigbox><div class = centerbox><div class = gng_number><div class = cue-text><img class = center src='/static/experiments/stop_signal_with_go_no_go/images/solid_square.png'></img></div></div></div></div>,,go,,877957,0.0,test_trial,179,stop-signal,
180,,,,,,,,500.0,,,,,,stop_signal_with_go_no_go,,,,,,,,0.0-3.0-50.0,-1.0,none,,-1,,500.0,,<div class = centerbox><div class = fixation>+</div></div>,,,,878459,0.0,fixation,180,poldrack-single-stim,
181,400.0,600.0,400.0,500.0,<div class = bigbox><div class = centerbox><div class = starbox><img class = center src='/static/experiments/stop_signal_with_go_no_go/images/stopSignal.png'></img></div></div></div>,stop,,2000.0,,-1.0,0.0,0.0,25.0,stop_signal_with_go_no_go,,,,,,,go,0.0-3.0-51.0,77.0,"[90, 77]",,476,circle,1000.0,solid,<div class = bigbox><div class = centerbox><div class = gng_number><div class = cue-text><img class = center src='/static/experiments/stop_signal_with_go_no_go/images/solid_circle.png'></img></div></div></div></div>,0.0,stop,,880463,0.0,test_trial,181,stop-signal,
182,,,,,,,,500.0,,,,,,stop_signal_with_go_no_go,,,,,,,,0.0-3.0-52.0,-1.0,none,,-1,,500.0,,<div class = centerbox><div class = fixation>+</div></div>,,,,880966,0.0,fixation,182,poldrack-single-stim,
183,350.0,600.0,350.0,500.0,<div class = bigbox><div class = centerbox><div class = starbox><img class = center src='/static/experiments/stop_signal_with_go_no_go/images/stopSignal.png'></img></div></div></div>,go,,2000.0,,90.0,1.0,0.0,26.0,stop_signal_with_go_no_go,,,,,,1.0,go,0.0-3.0-53.0,90.0,"[90, 77]",,573,square,1000.0,solid,<div class = bigbox><div class = centerbox><div class = gng_number><div class = cue-text><img class = center src='/static/experiments/stop_signal_with_go_no_go/images/solid_square.png'></img></div></div></div></div>,,go,,882968,0.0,test_trial,183,stop-signal,
184,,,,,,,,500.0,,,,,,stop_signal_with_go_no_go,,,,,,,,0.0-3.0-54.0,-1.0,none,,-1,,500.0,,<div class = centerbox><div class = fixation>+</div></div>,,,,883471,0.0,fixation,184,poldrack-single-stim,
185,350.0,600.0,350.0,500.0,<div class = bigbox><div class = centerbox><div class = starbox><img class = center src='/static/experiments/stop_signal_with_go_no_go/images/stopSignal.png'></img></div></div></div>,go,,2000.0,,90.0,1.0,0.0,27.0,stop_signal_with_go_no_go,,,,,,1.0,go,0.0-3.0-55.0,90.0,"[90, 77]",,384,square,1000.0,solid,<div class = bigbox><div class = centerbox><div class = gng_number><div class = cue-text><img class = center src='/static/experiments/stop_signal_with_go_no_go/images/solid_square.png'></img></div></div></div></div>,,go,,885474,0.0,test_trial,185,stop-signal,
186,,,,,,,,500.0,,,,,,stop_signal_with_go_no_go,,,,,,,,0.0-3.0-56.0,-1.0,none,,-1,,500.0,,<div class = centerbox><div class = fixation>+</div></div>,,,,885976,0.0,fixation,186,poldrack-single-stim,
187,350.0,600.0,350.0,500.0,<div class = bigbox><div class = centerbox><div class = starbox><img class = center src='/static/experiments/stop_signal_with_go_no_go/images/stopSignal.png'></img></div></div></div>,stop,,2000.0,,-1.0,0.0,0.0,28.0,stop_signal_with_go_no_go,,,,,,,go,0.0-3.0-57.0,77.0,"[90, 77]",,536,circle,1000.0,solid,<div class = bigbox><div class = centerbox><div class = gng_number><div class = cue-text><img class = center src='/static/experiments/stop_signal_with_go_no_go/images/solid_circle.png'></img></div></div></div></div>,0.0,stop,,887979,0.0,test_trial,187,stop-signal,
188,,,,,,,,500.0,,,,,,stop_signal_with_go_no_go,,,,,,,,0.0-3.0-58.0,-1.0,none,,-1,,500.0,,<div class = centerbox><div class = fixation>+</div></div>,,,,888482,0.0,fixation,188,poldrack-single-stim,
189,300.0,600.0,300.0,500.0,<div class = bigbox><div class = centerbox><div class = starbox><img class = center src='/static/experiments/stop_signal_with_go_no_go/images/stopSignal.png'></img></div></div></div>,go,,2000.0,,90.0,1.0,0.0,29.0,stop_signal_with_go_no_go,,,,,,1.0,go,0.0-3.0-59.0,90.0,"[90, 77]",,456,square,1000.0,solid,<div class = bigbox><div class = centerbox><div class = gng_number><div class = cue-text><img class = center src='/static/experiments/stop_signal_with_go_no_go/images/solid_square.png'></img></div></div></div></div>,,go,,890484,0.0,test_trial,189,stop-signal,
190,,,,,,,,500.0,,,,,,stop_signal_with_go_no_go,,,,,,,,0.0-3.0-60.0,-1.0,none,,-1,,500.0,,<div class = centerbox><div class = fixation>+</div></div>,,,,890987,0.0,fixation,190,poldrack-single-stim,
191,300.0,600.0,300.0,500.0,<div class = bigbox><div class = centerbox><div class = starbox><img class = center src='/static/experiments/stop_signal_with_go_no_go/images/stopSignal.png'></img></div></div></div>,go,,2000.0,,90.0,1.0,0.0,30.0,stop_signal_with_go_no_go,,,,,,1.0,go,0.0-3.0-61.0,90.0,"[90, 77]",,520,square,1000.0,solid,<div class = bigbox><div class = centerbox><div class = gng_number><div class = cue-text><img class = center src='/static/experiments/stop_signal_with_go_no_go/images/solid_square.png'></img></div></div></div></div>,,go,,892990,0.0,test_trial,191,stop-signal,
192,,,,,,,,500.0,,,,,,stop_signal_with_go_no_go,,,,,,,,0.0-3.0-62.0,-1.0,none,,-1,,500.0,,<div class = centerbox><div class = fixation>+</div></div>,,,,893492,0.0,fixation,192,poldrack-single-stim,
193,300.0,600.0,300.0,500.0,<div class = bigbox><div class = centerbox><div class = starbox><img class = center src='/static/experiments/stop_signal_with_go_no_go/images/stopSignal.png'></img></div></div></div>,go,,2000.0,,90.0,1.0,0.0,31.0,stop_signal_with_go_no_go,,,,,,1.0,go,0.0-3.0-63.0,90.0,"[90, 77]",,319,square,1000.0,solid,<div class = bigbox><div class = centerbox><div class = gng_number><div class = cue-text><img class = center src='/static/experiments/stop_signal_with_go_no_go/images/solid_square.png'></img></div></div></div></div>,,go,,895495,0.0,test_trial,193,stop-signal,
194,,,,,,,,500.0,,,,,,stop_signal_with_go_no_go,,,,,,,,0.0-3.0-64.0,-1.0,none,,-1,,500.0,,<div class = centerbox><div class = fixation>+</div></div>,,,,895997,0.0,fixation,194,poldrack-single-stim,
195,300.0,600.0,300.0,500.0,<div class = bigbox><div class = centerbox><div class = starbox><img class = center src='/static/experiments/stop_signal_with_go_no_go/images/stopSignal.png'></img></div></div></div>,go,,2000.0,,77.0,1.0,0.0,32.0,stop_signal_with_go_no_go,,,,,,1.0,go,0.0-3.0-65.0,77.0,"[90, 77]",,555,circle,1000.0,solid,<div class = bigbox><div class = centerbox><div class = gng_number><div class = cue-text><img class = center src='/static/experiments/stop_signal_with_go_no_go/images/solid_circle.png'></img></div></div></div></div>,,go,,898000,0.0,test_trial,195,stop-signal,
196,,,,,,,,500.0,,,,,,stop_signal_with_go_no_go,,,,,,,,0.0-3.0-66.0,-1.0,none,,-1,,500.0,,<div class = centerbox><div class = fixation>+</div></div>,,,,898503,0.0,fixation,196,poldrack-single-stim,
197,300.0,600.0,600.0,500.0,<div class = bigbox><div class = centerbox><div class = starbox><img class = center src='/static/experiments/stop_signal_with_go_no_go/images/stopSignal.png'></img></div></div></div>,go,,2000.0,,-1.0,1.0,0.0,33.0,stop_signal_with_go_no_go,,,,,,1.0,nogo,0.0-3.0-67.0,-1.0,"[90, 77]",,-1,square,1000.0,outlined,<div class = bigbox><div class = centerbox><div class = gng_number><div class = cue-text><img class = center src='/static/experiments/stop_signal_with_go_no_go/images/outlined_square.png'></img></div></div></div></div>,,go,,900505,0.0,test_trial,197,stop-signal,
198,,,,,,,,500.0,,,,,,stop_signal_with_go_no_go,,,,,,,,0.0-3.0-68.0,-1.0,none,,-1,,500.0,,<div class = centerbox><div class = fixation>+</div></div>,,,,901009,0.0,fixation,198,poldrack-single-stim,
199,300.0,600.0,300.0,500.0,<div class = bigbox><div class = centerbox><div class = starbox><img class = center src='/static/experiments/stop_signal_with_go_no_go/images/stopSignal.png'></img></div></div></div>,go,,2000.0,,77.0,1.0,0.0,34.0,stop_signal_with_go_no_go,,,,,,1.0,go,0.0-3.0-69.0,77.0,"[90, 77]",,791,circle,1000.0,solid,<div class = bigbox><div class = centerbox><div class = gng_number><div class = cue-text><img class = center src='/static/experiments/stop_signal_with_go_no_go/images/solid_circle.png'></img></div></div></div></div>,,go,,903013,0.0,test_trial,199,stop-signal,
200,,,,,,,,500.0,,,,,,stop_signal_with_go_no_go,,,,,,,,0.0-3.0-70.0,-1.0,none,,-1,,500.0,,<div class = centerbox><div class = fixation>+</div></div>,,,,903515,0.0,fixation,200,poldrack-single-stim,
201,300.0,600.0,600.0,500.0,<div class = bigbox><div class = centerbox><div class = starbox><img class = center src='/static/experiments/stop_signal_with_go_no_go/images/stopSignal.png'></img></div></div></div>,stop,,2000.0,,-1.0,1.0,0.0,35.0,stop_signal_with_go_no_go,,,,,,,nogo,0.0-3.0-71.0,-1.0,"[90, 77]",,-1,square,1000.0,outlined,<div class = bigbox><div class = centerbox><div class = gng_number><div class = cue-text><img class = center src='/static/experiments/stop_signal_with_go_no_go/images/outlined_square.png'></img></div></div></div></div>,1.0,stop,,905519,0.0,test_trial,201,stop-signal,
202,,,,,,,,500.0,,,,,,stop_signal_with_go_no_go,,,,,,,,0.0-3.0-72.0,-1.0,none,,-1,,500.0,,<div class = centerbox><div class = fixation>+</div></div>,,,,906022,0.0,fixation,202,poldrack-single-stim,
203,300.0,650.0,300.0,500.0,<div class = bigbox><div class = centerbox><div class = starbox><img class = center src='/static/experiments/stop_signal_with_go_no_go/images/stopSignal.png'></img></div></div></div>,stop,,2000.0,,-1.0,0.0,0.0,36.0,stop_signal_with_go_no_go,,,,,,,go,0.0-3.0-73.0,77.0,"[90, 77]",,506,circle,1000.0,solid,<div class = bigbox><div class = centerbox><div class = gng_number><div class = cue-text><img class = center src='/static/experiments/stop_signal_with_go_no_go/images/solid_circle.png'></img></div></div></div></div>,0.0,stop,,908024,0.0,test_trial,203,stop-signal,
204,,,,,,,,500.0,,,,,,stop_signal_with_go_no_go,,,,,,,,0.0-3.0-74.0,-1.0,none,,-1,,500.0,,<div class = centerbox><div class = fixation>+</div></div>,,,,908528,0.0,fixation,204,poldrack-single-stim,
205,250.0,650.0,250.0,500.0,<div class = bigbox><div class = centerbox><div class = starbox><img class = center src='/static/experiments/stop_signal_with_go_no_go/images/stopSignal.png'></img></div></div></div>,stop,,2000.0,,-1.0,1.0,0.0,37.0,stop_signal_with_go_no_go,,,,,,,go,0.0-3.0-75.0,-1.0,"[90, 77]",,-1,square,1000.0,solid,<div class = bigbox><div class = centerbox><div class = gng_number><div class = cue-text><img class = center src='/static/experiments/stop_signal_with_go_no_go/images/solid_square.png'></img></div></div></div></div>,1.0,stop,,910531,0.0,test_trial,205,stop-signal,
206,,,,,,,,500.0,,,,,,stop_signal_with_go_no_go,,,,,,,,0.0-3.0-76.0,-1.0,none,,-1,,500.0,,<div class = centerbox><div class = fixation>+</div></div>,,,,911034,0.0,fixation,206,poldrack-single-stim,
207,300.0,650.0,300.0,500.0,<div class = bigbox><div class = centerbox><div class = starbox><img class = center src='/static/experiments/stop_signal_with_go_no_go/images/stopSignal.png'></img></div></div></div>,go,,2000.0,,77.0,1.0,0.0,38.0,stop_signal_with_go_no_go,,,,,,1.0,go,0.0-3.0-77.0,77.0,"[90, 77]",,559,circle,1000.0,solid,<div class = bigbox><div class = centerbox><div class = gng_number><div class = cue-text><img class = center src='/static/experiments/stop_signal_with_go_no_go/images/solid_circle.png'></img></div></div></div></div>,,go,,913037,0.0,test_trial,207,stop-signal,
208,,,,,,,,500.0,,,,,,stop_signal_with_go_no_go,,,,,,,,0.0-3.0-78.0,-1.0,none,,-1,,500.0,,<div class = centerbox><div class = fixation>+</div></div>,,,,913540,0.0,fixation,208,poldrack-single-stim,
209,300.0,650.0,300.0,500.0,<div class = bigbox><div class = centerbox><div class = starbox><img class = center src='/static/experiments/stop_signal_with_go_no_go/images/stopSignal.png'></img></div></div></div>,go,,2000.0,,90.0,1.0,0.0,39.0,stop_signal_with_go_no_go,,,,,,1.0,go,0.0-3.0-79.0,90.0,"[90, 77]",,600,square,1000.0,solid,<div class = bigbox><div class = centerbox><div class = gng_number><div class = cue-text><img class = center src='/static/experiments/stop_signal_with_go_no_go/images/solid_square.png'></img></div></div></div></div>,,go,,915542,0.0,test_trial,209,stop-signal,
210,,,,,,,,500.0,,,,,,stop_signal_with_go_no_go,,,,,,,,0.0-3.0-80.0,-1.0,none,,-1,,500.0,,<div class = centerbox><div class = fixation>+</div></div>,,,,916045,0.0,fixation,210,poldrack-single-stim,
211,300.0,650.0,300.0,500.0,<div class = bigbox><div class = centerbox><div class = starbox><img class = center src='/static/experiments/stop_signal_with_go_no_go/images/stopSignal.png'></img></div></div></div>,go,,2000.0,,77.0,1.0,0.0,40.0,stop_signal_with_go_no_go,,,,,,1.0,go,0.0-3.0-81.0,77.0,"[90, 77]",,552,circle,1000.0,solid,<div class = bigbox><div class = centerbox><div class = gng_number><div class = cue-text><img class = center src='/static/experiments/stop_signal_with_go_no_go/images/solid_circle.png'></img></div></div></div></div>,,go,,918048,0.0,test_trial,211,stop-signal,
212,,,,,,,,500.0,,,,,,stop_signal_with_go_no_go,,,,,,,,0.0-3.0-82.0,-1.0,none,,-1,,500.0,,<div class = centerbox><div class = fixation>+</div></div>,,,,918551,0.0,fixation,212,poldrack-single-stim,
213,300.0,650.0,650.0,500.0,<div class = bigbox><div class = centerbox><div class = starbox><img class = center src='/static/experiments/stop_signal_with_go_no_go/images/stopSignal.png'></img></div></div></div>,go,,2000.0,,-1.0,1.0,0.0,41.0,stop_signal_with_go_no_go,,,,,,1.0,nogo,0.0-3.0-83.0,-1.0,"[90, 77]",,-1,square,1000.0,outlined,<div class = bigbox><div class = centerbox><div class = gng_number><div class = cue-text><img class = center src='/static/experiments/stop_signal_with_go_no_go/images/outlined_square.png'></img></div></div></div></div>,,go,,920553,0.0,test_trial,213,stop-signal,
214,,,,,,,,500.0,,,,,,stop_signal_with_go_no_go,,,,,,,,0.0-3.0-84.0,-1.0,none,,-1,,500.0,,<div class = centerbox><div class = fixation>+</div></div>,,,,921058,0.0,fixation,214,poldrack-single-stim,
215,300.0,650.0,650.0,500.0,<div class = bigbox><div class = centerbox><div class = starbox><img class = center src='/static/experiments/stop_signal_with_go_no_go/images/stopSignal.png'></img></div></div></div>,go,,2000.0,,-1.0,1.0,0.0,42.0,stop_signal_with_go_no_go,,,,,,1.0,nogo,0.0-3.0-85.0,-1.0,"[90, 77]",,-1,circle,1000.0,outlined,<div class = bigbox><div class = centerbox><div class = gng_number><div class = cue-text><img class = center src='/static/experiments/stop_signal_with_go_no_go/images/outlined_circle.png'></img></div></div></div></div>,,go,,923060,0.0,test_trial,215,stop-signal,
216,,,,,,,,500.0,,,,,,stop_signal_with_go_no_go,,,,,,,,0.0-3.0-86.0,-1.0,none,,-1,,500.0,,<div class = centerbox><div class = fixation>+</div></div>,,,,923563,0.0,fixation,216,poldrack-single-stim,
217,300.0,650.0,300.0,500.0,<div class = bigbox><div class = centerbox><div class = starbox><img class = center src='/static/experiments/stop_signal_with_go_no_go/images/stopSignal.png'></img></div></div></div>,stop,,2000.0,,-1.0,1.0,0.0,43.0,stop_signal_with_go_no_go,,,,,,,go,0.0-3.0-87.0,-1.0,"[90, 77]",,-1,square,1000.0,solid,<div class = bigbox><div class = centerbox><div class = gng_number><div class = cue-text><img class = center src='/static/experiments/stop_signal_with_go_no_go/images/solid_square.png'></img></div></div></div></div>,1.0,stop,,925565,0.0,test_trial,217,stop-signal,
218,,,,,,,,500.0,,,,,,stop_signal_with_go_no_go,,,,,,,,0.0-3.0-88.0,-1.0,none,,-1,,500.0,,<div class = centerbox><div class = fixation>+</div></div>,,,,926067,0.0,fixation,218,poldrack-single-stim,
