,CTI,SSD_stay,SSD_switch,SS_delay,SS_duration,SS_stimulus,SS_trial_type,att_check_percent,block_duration,correct,correct_response,correct_trial,cue,cue_condition,current_block,current_trial,exp_id,exp_stage,final_accuracy,final_avg_rt,final_credit_var,final_missed_percent,final_responses_ok,internal_node_id,key_press,possible_responses,responses,rt,stim_color,stim_duration,stim_number,stimulus,stop_acc,stop_signal_condition,task,task_condition,text,time_elapsed,timing_post_trial,trial_id,trial_index,trial_type,view_history
0,,,,,,,,,2603.0,,,,,,,,stop_signal_with_cued_task_switching,,,,,,,0.0-0.0-0.0,13.0,[13],,2603.0,,2603.0,,"<div class = bigbox><div class = picture_box><p class = block-text><font color=""white"">Welcome to the experiment. This experiment will take around 15 minutes. Press <i>enter</i> to begin.</font></p></div></div>",,,,,,2610,0.0,practice-stop-feedback,0,poldrack-single-stim,
1,,,,,,,,,,,,,,,,,stop_signal_with_cued_task_switching,,,,,,,0.0-0.0-1.0,,,,92677.0,,,,,,,,,,95292,,instruction,1,poldrack-instructions,"[{""page_index"":0,""viewing_time"":24391},{""page_index"":1,""viewing_time"":32962},{""page_index"":2,""viewing_time"":23354},{""page_index"":3,""viewing_time"":11968}]"
2,,,,,,,,,,,,,,,,,stop_signal_with_cued_task_switching,,,,,,,0.0-0.0-2.0,,,,,,,,,,,,,,96297,,set_stims,2,call-function,
3,,,,,,,,,500.0,,,,,,,,stop_signal_with_cued_task_switching,practice,,,,,,0.0-0.0-3.0,-1.0,none,,-1.0,,500.0,,<div class = upperbox><div class = fixation>+</div></div><div class = lowerbox><div class = fixation>+</div></div>,,,,,,96803,0.0,fixation,3,poldrack-single-stim,
4,150.0,350.0,350.0,,,,,,150.0,,,,Parity,na,0.0,1.0,stop_signal_with_cued_task_switching,practice,,,,,,0.0-0.0-4.0,-1.0,none,,-1.0,white,150.0,6.0,<div class = upperbox><div class = center-text>Parity</div></div><div class = lowerbox><div class = fixation>+</div></div>,,go,parity,na,,96960,0.0,cue,4,poldrack-single-stim,
5,150.0,350.0,350.0,,500.0,"<div class = starbox><img class = star src=""/static/experiments/stop_signal_with_cued_task_switching/images/stop.png""></img></div>",go,,2000.0,,77.0,1.0,Parity,na,0.0,1.0,stop_signal_with_cued_task_switching,,,,,,,0.0-0.0-5.0,77.0,"[77, 90]",,781.0,white,1000.0,6.0,"<div class = upperbox><div class = center-text>Parity</div></div><div class = lowerbox><div class = gng_number><div class = cue-text><img class = center src=""/static/experiments/stop_signal_with_cued_task_switching/images/6.png""></img></div></div></div>",,go,parity,na,,98968,0.0,practice_trial,5,stop-signal,
6,,,,,,,,,500.0,,,,,,,,stop_signal_with_cued_task_switching,,,,,,,0.0-0.0-6.0,-1.0,none,,-1.0,,500.0,,<div class = fb_box><div class = center-text><font size = 20>Correct!</font></div></div>,,,,,,99476,0.0,practice-stop-feedback,6,poldrack-single-stim,
7,,,,,,,,,,,,,,,,,stop_signal_with_cued_task_switching,,,,,,,0.0-0.0-7.0,,,,,,,,,,,,,,99478,,set_stims,7,call-function,
8,,,,,,,,,500.0,,,,,,,,stop_signal_with_cued_task_switching,practice,,,,,,0.0-0.0-8.0,-1.0,none,,-1.0,,500.0,,<div class = upperbox><div class = fixation>+</div></div><div class = lowerbox><div class = fixation>+</div></div>,,,,,,99984,0.0,fixation,8,poldrack-single-stim,
9,150.0,350.0,350.0,,,,,,150.0,,,,High-Low,switch,0.0,2.0,stop_signal_with_cued_task_switching,practice,,,,,,0.0-0.0-9.0,-1.0,none,,-1.0,white,150.0,1.0,<div class = upperbox><div class = center-text>High-Low</div></div><div class = lowerbox><div class = fixation>+</div></div>,,stop,magnitude,switch,,100139,0.0,cue,9,poldrack-single-stim,
10,150.0,350.0,350.0,350.0,500.0,"<div class = starbox><img class = star src=""/static/experiments/stop_signal_with_cued_task_switching/images/stop.png""></img></div>",stop,,2000.0,,-1.0,0.0,High-Low,switch,0.0,2.0,stop_signal_with_cued_task_switching,,,,,,,0.0-0.0-10.0,90.0,"[77, 90]",,590.0,white,1000.0,1.0,"<div class = upperbox><div class = center-text>High-Low</div></div><div class = lowerbox><div class = gng_number><div class = cue-text><img class = center src=""/static/experiments/stop_signal_with_cued_task_switching/images/1.png""></img></div></div></div>",0.0,stop,magnitude,switch,,102145,0.0,practice_trial,10,stop-signal,
11,,,,,,,,,500.0,,,,,,,,stop_signal_with_cued_task_switching,,,,,,,0.0-0.0-11.0,-1.0,none,,-1.0,,500.0,,<div class = fb_box><div class = center-text><font size = 20>There was a star.</font></div></div>,,,,,,102651,0.0,practice-stop-feedback,11,poldrack-single-stim,
12,,,,,,,,,,,,,,,,,stop_signal_with_cued_task_switching,,,,,,,0.0-0.0-12.0,,,,,,,,,,,,,,102654,,set_stims,12,call-function,
13,,,,,,,,,500.0,,,,,,,,stop_signal_with_cued_task_switching,practice,,,,,,0.0-0.0-13.0,-1.0,none,,-1.0,,500.0,,<div class = upperbox><div class = fixation>+</div></div><div class = lowerbox><div class = fixation>+</div></div>,,,,,,103158,0.0,fixation,13,poldrack-single-stim,
14,150.0,350.0,300.0,,,,,,150.0,,,,Parity,switch,0.0,3.0,stop_signal_with_cued_task_switching,practice,,,,,,0.0-0.0-14.0,-1.0,none,,-1.0,white,150.0,4.0,<div class = upperbox><div class = center-text>Parity</div></div><div class = lowerbox><div class = fixation>+</div></div>,,go,parity,switch,,103312,0.0,cue,14,poldrack-single-stim,
15,150.0,350.0,300.0,300.0,500.0,"<div class = starbox><img class = star src=""/static/experiments/stop_signal_with_cued_task_switching/images/stop.png""></img></div>",go,,2000.0,,77.0,1.0,Parity,switch,0.0,3.0,stop_signal_with_cued_task_switching,,,,,,,0.0-0.0-15.0,77.0,"[77, 90]",,549.0,white,1000.0,4.0,"<div class = upperbox><div class = center-text>Parity</div></div><div class = lowerbox><div class = gng_number><div class = cue-text><img class = center src=""/static/experiments/stop_signal_with_cued_task_switching/images/4.png""></img></div></div></div>",,go,parity,switch,,105317,0.0,practice_trial,15,stop-signal,
16,,,,,,,,,500.0,,,,,,,,stop_signal_with_cued_task_switching,,,,,,,0.0-0.0-16.0,-1.0,none,,-1.0,,500.0,,<div class = fb_box><div class = center-text><font size = 20>Correct!</font></div></div>,,,,,,105826,0.0,practice-stop-feedback,16,poldrack-single-stim,
17,,,,,,,,,,,,,,,,,stop_signal_with_cued_task_switching,,,,,,,0.0-0.0-17.0,,,,,,,,,,,,,,105828,,set_stims,17,call-function,
18,,,,,,,,,500.0,,,,,,,,stop_signal_with_cued_task_switching,practice,,,,,,0.0-0.0-18.0,-1.0,none,,-1.0,,500.0,,<div class = upperbox><div class = fixation>+</div></div><div class = lowerbox><div class = fixation>+</div></div>,,,,,,106332,0.0,fixation,18,poldrack-single-stim,
19,150.0,350.0,300.0,,,,,,150.0,,,,Magnitude,switch,0.0,4.0,stop_signal_with_cued_task_switching,practice,,,,,,0.0-0.0-19.0,-1.0,none,,-1.0,white,150.0,8.0,<div class = upperbox><div class = center-text>Magnitude</div></div><div class = lowerbox><div class = fixation>+</div></div>,,stop,magnitude,switch,,106487,0.0,cue,19,poldrack-single-stim,
20,150.0,350.0,300.0,300.0,500.0,"<div class = starbox><img class = star src=""/static/experiments/stop_signal_with_cued_task_switching/images/stop.png""></img></div>",stop,,2000.0,,-1.0,0.0,Magnitude,switch,0.0,4.0,stop_signal_with_cued_task_switching,,,,,,,0.0-0.0-20.0,90.0,"[77, 90]",,969.0,white,1000.0,8.0,"<div class = upperbox><div class = center-text>Magnitude</div></div><div class = lowerbox><div class = gng_number><div class = cue-text><img class = center src=""/static/experiments/stop_signal_with_cued_task_switching/images/8.png""></img></div></div></div>",0.0,stop,magnitude,switch,,108492,0.0,practice_trial,20,stop-signal,
21,,,,,,,,,500.0,,,,,,,,stop_signal_with_cued_task_switching,,,,,,,0.0-0.0-21.0,-1.0,none,,-1.0,,500.0,,<div class = fb_box><div class = center-text><font size = 20>There was a star.</font></div></div>,,,,,,108998,0.0,practice-stop-feedback,21,poldrack-single-stim,
22,,,,,,,,,,,,,,,,,stop_signal_with_cued_task_switching,,,,,,,0.0-0.0-22.0,,,,,,,,,,,,,,109000,,set_stims,22,call-function,
23,,,,,,,,,500.0,,,,,,,,stop_signal_with_cued_task_switching,practice,,,,,,0.0-0.0-23.0,-1.0,none,,-1.0,,500.0,,<div class = upperbox><div class = fixation>+</div></div><div class = lowerbox><div class = fixation>+</div></div>,,,,,,109504,0.0,fixation,23,poldrack-single-stim,
24,150.0,350.0,250.0,,,,,,150.0,,,,High-Low,switch,0.0,5.0,stop_signal_with_cued_task_switching,practice,,,,,,0.0-0.0-24.0,-1.0,none,,-1.0,white,150.0,7.0,<div class = upperbox><div class = center-text>High-Low</div></div><div class = lowerbox><div class = fixation>+</div></div>,,go,magnitude,stay,,109659,0.0,cue,24,poldrack-single-stim,
25,150.0,350.0,250.0,350.0,500.0,"<div class = starbox><img class = star src=""/static/experiments/stop_signal_with_cued_task_switching/images/stop.png""></img></div>",go,,2000.0,,77.0,0.0,High-Low,switch,0.0,5.0,stop_signal_with_cued_task_switching,,,,,,,0.0-0.0-25.0,90.0,"[77, 90]",,618.0,white,1000.0,7.0,"<div class = upperbox><div class = center-text>High-Low</div></div><div class = lowerbox><div class = gng_number><div class = cue-text><img class = center src=""/static/experiments/stop_signal_with_cued_task_switching/images/7.png""></img></div></div></div>",,go,magnitude,stay,,111663,0.0,practice_trial,25,stop-signal,
26,,,,,,,,,500.0,,,,,,,,stop_signal_with_cued_task_switching,,,,,,,0.0-0.0-26.0,-1.0,none,,-1.0,,500.0,,<div class = fb_box><div class = center-text><font size = 20>Incorrect</font></div></div>,,,,,,112168,0.0,practice-stop-feedback,26,poldrack-single-stim,
27,,,,,,,,,,,,,,,,,stop_signal_with_cued_task_switching,,,,,,,0.0-0.0-27.0,,,,,,,,,,,,,,112170,,set_stims,27,call-function,
28,,,,,,,,,500.0,,,,,,,,stop_signal_with_cued_task_switching,practice,,,,,,0.0-0.0-28.0,-1.0,none,,-1.0,,500.0,,<div class = upperbox><div class = fixation>+</div></div><div class = lowerbox><div class = fixation>+</div></div>,,,,,,112675,0.0,fixation,28,poldrack-single-stim,
29,150.0,350.0,250.0,,,,,,150.0,,,,Parity,switch,0.0,6.0,stop_signal_with_cued_task_switching,practice,,,,,,0.0-0.0-29.0,-1.0,none,,-1.0,white,150.0,6.0,<div class = upperbox><div class = center-text>Parity</div></div><div class = lowerbox><div class = fixation>+</div></div>,,go,parity,switch,,112829,0.0,cue,29,poldrack-single-stim,
30,150.0,350.0,250.0,250.0,500.0,"<div class = starbox><img class = star src=""/static/experiments/stop_signal_with_cued_task_switching/images/stop.png""></img></div>",go,,2000.0,,77.0,1.0,Parity,switch,0.0,6.0,stop_signal_with_cued_task_switching,,,,,,,0.0-0.0-30.0,77.0,"[77, 90]",,735.0,white,1000.0,6.0,"<div class = upperbox><div class = center-text>Parity</div></div><div class = lowerbox><div class = gng_number><div class = cue-text><img class = center src=""/static/experiments/stop_signal_with_cued_task_switching/images/6.png""></img></div></div></div>",,go,parity,switch,,114836,0.0,practice_trial,30,stop-signal,
31,,,,,,,,,500.0,,,,,,,,stop_signal_with_cued_task_switching,,,,,,,0.0-0.0-31.0,-1.0,none,,-1.0,,500.0,,<div class = fb_box><div class = center-text><font size = 20>Correct!</font></div></div>,,,,,,115341,0.0,practice-stop-feedback,31,poldrack-single-stim,
32,,,,,,,,,,,,,,,,,stop_signal_with_cued_task_switching,,,,,,,0.0-0.0-32.0,,,,,,,,,,,,,,115343,,set_stims,32,call-function,
33,,,,,,,,,500.0,,,,,,,,stop_signal_with_cued_task_switching,practice,,,,,,0.0-0.0-33.0,-1.0,none,,-1.0,,500.0,,<div class = upperbox><div class = fixation>+</div></div><div class = lowerbox><div class = fixation>+</div></div>,,,,,,115847,0.0,fixation,33,poldrack-single-stim,
34,150.0,350.0,250.0,,,,,,150.0,,,,Odd-Even,switch,0.0,7.0,stop_signal_with_cued_task_switching,practice,,,,,,0.0-0.0-34.0,-1.0,none,,-1.0,white,150.0,4.0,<div class = upperbox><div class = center-text>Odd-Even</div></div><div class = lowerbox><div class = fixation>+</div></div>,,stop,parity,stay,,116002,0.0,cue,34,poldrack-single-stim,
35,150.0,350.0,250.0,350.0,500.0,"<div class = starbox><img class = star src=""/static/experiments/stop_signal_with_cued_task_switching/images/stop.png""></img></div>",stop,,2000.0,,-1.0,0.0,Odd-Even,switch,0.0,7.0,stop_signal_with_cued_task_switching,,,,,,,0.0-0.0-35.0,77.0,"[77, 90]",,753.0,white,1000.0,4.0,"<div class = upperbox><div class = center-text>Odd-Even</div></div><div class = lowerbox><div class = gng_number><div class = cue-text><img class = center src=""/static/experiments/stop_signal_with_cued_task_switching/images/4.png""></img></div></div></div>",0.0,stop,parity,stay,,118007,0.0,practice_trial,35,stop-signal,
36,,,,,,,,,500.0,,,,,,,,stop_signal_with_cued_task_switching,,,,,,,0.0-0.0-36.0,-1.0,none,,-1.0,,500.0,,<div class = fb_box><div class = center-text><font size = 20>There was a star.</font></div></div>,,,,,,118512,0.0,practice-stop-feedback,36,poldrack-single-stim,
37,,,,,,,,,,,,,,,,,stop_signal_with_cued_task_switching,,,,,,,0.0-0.0-37.0,,,,,,,,,,,,,,118514,,set_stims,37,call-function,
38,,,,,,,,,500.0,,,,,,,,stop_signal_with_cued_task_switching,practice,,,,,,0.0-0.0-38.0,-1.0,none,,-1.0,,500.0,,<div class = upperbox><div class = fixation>+</div></div><div class = lowerbox><div class = fixation>+</div></div>,,,,,,119018,0.0,fixation,38,poldrack-single-stim,
39,150.0,300.0,250.0,,,,,,150.0,,,,Odd-Even,stay,0.0,8.0,stop_signal_with_cued_task_switching,practice,,,,,,0.0-0.0-39.0,-1.0,none,,-1.0,white,150.0,6.0,<div class = upperbox><div class = center-text>Odd-Even</div></div><div class = lowerbox><div class = fixation>+</div></div>,,stop,parity,stay,,119172,0.0,cue,39,poldrack-single-stim,
40,150.0,300.0,250.0,300.0,500.0,"<div class = starbox><img class = star src=""/static/experiments/stop_signal_with_cued_task_switching/images/stop.png""></img></div>",stop,,2000.0,,-1.0,1.0,Odd-Even,stay,0.0,8.0,stop_signal_with_cued_task_switching,,,,,,,0.0-0.0-40.0,-1.0,"[77, 90]",,-1.0,white,1000.0,6.0,"<div class = upperbox><div class = center-text>Odd-Even</div></div><div class = lowerbox><div class = gng_number><div class = cue-text><img class = center src=""/static/experiments/stop_signal_with_cued_task_switching/images/6.png""></img></div></div></div>",1.0,stop,parity,stay,,121177,0.0,practice_trial,40,stop-signal,
41,,,,,,,,,500.0,,,,,,,,stop_signal_with_cued_task_switching,,,,,,,0.0-0.0-41.0,-1.0,none,,-1.0,,500.0,,<div class = fb_box><div class = center-text><font size = 20>Correct!</font></div></div>,,,,,,121682,0.0,practice-stop-feedback,41,poldrack-single-stim,
42,,,,,,,,,,,,,,,,,stop_signal_with_cued_task_switching,,,,,,,0.0-0.0-42.0,,,,,,,,,,,,,,121683,,set_stims,42,call-function,
43,,,,,,,,,500.0,,,,,,,,stop_signal_with_cued_task_switching,practice,,,,,,0.0-0.0-43.0,-1.0,none,,-1.0,,500.0,,<div class = upperbox><div class = fixation>+</div></div><div class = lowerbox><div class = fixation>+</div></div>,,,,,,122188,0.0,fixation,43,poldrack-single-stim,
44,150.0,350.0,250.0,,,,,,150.0,,,,High-Low,switch,0.0,9.0,stop_signal_with_cued_task_switching,practice,,,,,,0.0-0.0-44.0,-1.0,none,,-1.0,white,150.0,2.0,<div class = upperbox><div class = center-text>High-Low</div></div><div class = lowerbox><div class = fixation>+</div></div>,,go,magnitude,switch,,122343,0.0,cue,44,poldrack-single-stim,
45,150.0,350.0,250.0,250.0,500.0,"<div class = starbox><img class = star src=""/static/experiments/stop_signal_with_cued_task_switching/images/stop.png""></img></div>",go,,2000.0,,90.0,0.0,High-Low,switch,0.0,9.0,stop_signal_with_cued_task_switching,,,,,,,0.0-0.0-45.0,77.0,"[77, 90]",,1140.0,white,1000.0,2.0,"<div class = upperbox><div class = center-text>High-Low</div></div><div class = lowerbox><div class = gng_number><div class = cue-text><img class = center src=""/static/experiments/stop_signal_with_cued_task_switching/images/2.png""></img></div></div></div>",,go,magnitude,switch,,124348,0.0,practice_trial,45,stop-signal,
46,,,,,,,,,500.0,,,,,,,,stop_signal_with_cued_task_switching,,,,,,,0.0-0.0-46.0,-1.0,none,,-1.0,,500.0,,<div class = fb_box><div class = center-text><font size = 20>Incorrect</font></div></div>,,,,,,124856,0.0,practice-stop-feedback,46,poldrack-single-stim,
47,,,,,,,,,,,,,,,,,stop_signal_with_cued_task_switching,,,,,,,0.0-0.0-47.0,,,,,,,,,,,,,,124858,,set_stims,47,call-function,
48,,,,,,,,,500.0,,,,,,,,stop_signal_with_cued_task_switching,practice,,,,,,0.0-0.0-48.0,-1.0,none,,-1.0,,500.0,,<div class = upperbox><div class = fixation>+</div></div><div class = lowerbox><div class = fixation>+</div></div>,,,,,,125364,0.0,fixation,48,poldrack-single-stim,
49,150.0,350.0,250.0,,,,,,150.0,,,,Parity,switch,0.0,10.0,stop_signal_with_cued_task_switching,practice,,,,,,0.0-0.0-49.0,-1.0,none,,-1.0,white,150.0,8.0,<div class = upperbox><div class = center-text>Parity</div></div><div class = lowerbox><div class = fixation>+</div></div>,,go,parity,switch,,125519,0.0,cue,49,poldrack-single-stim,
50,150.0,350.0,250.0,250.0,500.0,"<div class = starbox><img class = star src=""/static/experiments/stop_signal_with_cued_task_switching/images/stop.png""></img></div>",go,,2000.0,,77.0,1.0,Parity,switch,0.0,10.0,stop_signal_with_cued_task_switching,,,,,,,0.0-0.0-50.0,77.0,"[77, 90]",,1285.0,white,1000.0,8.0,"<div class = upperbox><div class = center-text>Parity</div></div><div class = lowerbox><div class = gng_number><div class = cue-text><img class = center src=""/static/experiments/stop_signal_with_cued_task_switching/images/8.png""></img></div></div></div>",,go,parity,switch,,127524,0.0,practice_trial,50,stop-signal,
51,,,,,,,,,500.0,,,,,,,,stop_signal_with_cued_task_switching,,,,,,,0.0-0.0-51.0,-1.0,none,,-1.0,,500.0,,<div class = fb_box><div class = center-text><font size = 20>Correct!</font></div></div>,,,,,,128029,0.0,practice-stop-feedback,51,poldrack-single-stim,
52,,,,,,,,,,,,,,,,,stop_signal_with_cued_task_switching,,,,,,,0.0-0.0-52.0,,,,,,,,,,,,,,128031,,set_stims,52,call-function,
53,,,,,,,,,500.0,,,,,,,,stop_signal_with_cued_task_switching,practice,,,,,,0.0-0.0-53.0,-1.0,none,,-1.0,,500.0,,<div class = upperbox><div class = fixation>+</div></div><div class = lowerbox><div class = fixation>+</div></div>,,,,,,128535,0.0,fixation,53,poldrack-single-stim,
54,150.0,350.0,250.0,,,,,,150.0,,,,High-Low,switch,0.0,11.0,stop_signal_with_cued_task_switching,practice,,,,,,0.0-0.0-54.0,-1.0,none,,-1.0,white,150.0,8.0,<div class = upperbox><div class = center-text>High-Low</div></div><div class = lowerbox><div class = fixation>+</div></div>,,go,magnitude,switch,,128689,0.0,cue,54,poldrack-single-stim,
55,150.0,350.0,250.0,250.0,500.0,"<div class = starbox><img class = star src=""/static/experiments/stop_signal_with_cued_task_switching/images/stop.png""></img></div>",go,,2000.0,,77.0,0.0,High-Low,switch,0.0,11.0,stop_signal_with_cued_task_switching,,,,,,,0.0-0.0-55.0,90.0,"[77, 90]",,1035.0,white,1000.0,8.0,"<div class = upperbox><div class = center-text>High-Low</div></div><div class = lowerbox><div class = gng_number><div class = cue-text><img class = center src=""/static/experiments/stop_signal_with_cued_task_switching/images/8.png""></img></div></div></div>",,go,magnitude,switch,,130694,0.0,practice_trial,55,stop-signal,
56,,,,,,,,,500.0,,,,,,,,stop_signal_with_cued_task_switching,,,,,,,0.0-0.0-56.0,-1.0,none,,-1.0,,500.0,,<div class = fb_box><div class = center-text><font size = 20>Incorrect</font></div></div>,,,,,,131200,0.0,practice-stop-feedback,56,poldrack-single-stim,
57,,,,,,,,,,,,,,,,,stop_signal_with_cued_task_switching,,,,,,,0.0-0.0-57.0,,,,,,,,,,,,,,131202,,set_stims,57,call-function,
58,,,,,,,,,500.0,,,,,,,,stop_signal_with_cued_task_switching,practice,,,,,,0.0-0.0-58.0,-1.0,none,,-1.0,,500.0,,<div class = upperbox><div class = fixation>+</div></div><div class = lowerbox><div class = fixation>+</div></div>,,,,,,131708,0.0,fixation,58,poldrack-single-stim,
59,150.0,350.0,250.0,,,,,,150.0,,,,Parity,switch,0.0,12.0,stop_signal_with_cued_task_switching,practice,,,,,,0.0-0.0-59.0,-1.0,none,,-1.0,white,150.0,1.0,<div class = upperbox><div class = center-text>Parity</div></div><div class = lowerbox><div class = fixation>+</div></div>,,stop,parity,switch,,131862,0.0,cue,59,poldrack-single-stim,
60,150.0,350.0,250.0,250.0,500.0,"<div class = starbox><img class = star src=""/static/experiments/stop_signal_with_cued_task_switching/images/stop.png""></img></div>",stop,,2000.0,,-1.0,1.0,Parity,switch,0.0,12.0,stop_signal_with_cued_task_switching,,,,,,,0.0-0.0-60.0,-1.0,"[77, 90]",,-1.0,white,1000.0,1.0,"<div class = upperbox><div class = center-text>Parity</div></div><div class = lowerbox><div class = gng_number><div class = cue-text><img class = center src=""/static/experiments/stop_signal_with_cued_task_switching/images/1.png""></img></div></div></div>",1.0,stop,parity,switch,,133867,0.0,practice_trial,60,stop-signal,
61,,,,,,,,,500.0,,,,,,,,stop_signal_with_cued_task_switching,,,,,,,0.0-0.0-61.0,-1.0,none,,-1.0,,500.0,,<div class = fb_box><div class = center-text><font size = 20>Correct!</font></div></div>,,,,,,134372,0.0,practice-stop-feedback,61,poldrack-single-stim,
62,,,,,,,,,,,,,,,,,stop_signal_with_cued_task_switching,,,,,,,0.0-0.0-62.0,,,,,,,,,,,,,,134374,,set_stims,62,call-function,
63,,,,,,,,,500.0,,,,,,,,stop_signal_with_cued_task_switching,practice,,,,,,0.0-0.0-63.0,-1.0,none,,-1.0,,500.0,,<div class = upperbox><div class = fixation>+</div></div><div class = lowerbox><div class = fixation>+</div></div>,,,,,,134878,0.0,fixation,63,poldrack-single-stim,
64,150.0,350.0,300.0,,,,,,150.0,,,,Parity,stay,0.0,13.0,stop_signal_with_cued_task_switching,practice,,,,,,0.0-0.0-64.0,-1.0,none,,-1.0,white,150.0,2.0,<div class = upperbox><div class = center-text>Parity</div></div><div class = lowerbox><div class = fixation>+</div></div>,,go,parity,stay,,135033,0.0,cue,64,poldrack-single-stim,
65,150.0,350.0,300.0,350.0,500.0,"<div class = starbox><img class = star src=""/static/experiments/stop_signal_with_cued_task_switching/images/stop.png""></img></div>",go,,2000.0,,77.0,1.0,Parity,stay,0.0,13.0,stop_signal_with_cued_task_switching,,,,,,,0.0-0.0-65.0,77.0,"[77, 90]",,931.0,white,1000.0,2.0,"<div class = upperbox><div class = center-text>Parity</div></div><div class = lowerbox><div class = gng_number><div class = cue-text><img class = center src=""/static/experiments/stop_signal_with_cued_task_switching/images/2.png""></img></div></div></div>",,go,parity,stay,,137038,0.0,practice_trial,65,stop-signal,
66,,,,,,,,,500.0,,,,,,,,stop_signal_with_cued_task_switching,,,,,,,0.0-0.0-66.0,-1.0,none,,-1.0,,500.0,,<div class = fb_box><div class = center-text><font size = 20>Correct!</font></div></div>,,,,,,137546,0.0,practice-stop-feedback,66,poldrack-single-stim,
67,,,,,,,,,,,,,,,,,stop_signal_with_cued_task_switching,,,,,,,0.0-0.0-67.0,,,,,,,,,,,,,,137548,,set_stims,67,call-function,
68,,,,,,,,,500.0,,,,,,,,stop_signal_with_cued_task_switching,practice,,,,,,0.0-0.0-68.0,-1.0,none,,-1.0,,500.0,,<div class = upperbox><div class = fixation>+</div></div><div class = lowerbox><div class = fixation>+</div></div>,,,,,,138052,0.0,fixation,68,poldrack-single-stim,
69,150.0,350.0,300.0,,,,,,150.0,,,,Odd-Even,switch,0.0,14.0,stop_signal_with_cued_task_switching,practice,,,,,,0.0-0.0-69.0,-1.0,none,,-1.0,white,150.0,2.0,<div class = upperbox><div class = center-text>Odd-Even</div></div><div class = lowerbox><div class = fixation>+</div></div>,,go,parity,stay,,138206,0.0,cue,69,poldrack-single-stim,
70,150.0,350.0,300.0,350.0,500.0,"<div class = starbox><img class = star src=""/static/experiments/stop_signal_with_cued_task_switching/images/stop.png""></img></div>",go,,2000.0,,77.0,1.0,Odd-Even,switch,0.0,14.0,stop_signal_with_cued_task_switching,,,,,,,0.0-0.0-70.0,77.0,"[77, 90]",,834.0,white,1000.0,2.0,"<div class = upperbox><div class = center-text>Odd-Even</div></div><div class = lowerbox><div class = gng_number><div class = cue-text><img class = center src=""/static/experiments/stop_signal_with_cued_task_switching/images/2.png""></img></div></div></div>",,go,parity,stay,,140212,0.0,practice_trial,70,stop-signal,
71,,,,,,,,,500.0,,,,,,,,stop_signal_with_cued_task_switching,,,,,,,0.0-0.0-71.0,-1.0,none,,-1.0,,500.0,,<div class = fb_box><div class = center-text><font size = 20>Correct!</font></div></div>,,,,,,140717,0.0,practice-stop-feedback,71,poldrack-single-stim,
72,,,,,,,,,,,,,,,,,stop_signal_with_cued_task_switching,,,,,,,0.0-0.0-72.0,,,,,,,,,,,,,,140719,,set_stims,72,call-function,
73,,,,,,,,,500.0,,,,,,,,stop_signal_with_cued_task_switching,practice,,,,,,0.0-0.0-73.0,-1.0,none,,-1.0,,500.0,,<div class = upperbox><div class = fixation>+</div></div><div class = lowerbox><div class = fixation>+</div></div>,,,,,,141224,0.0,fixation,73,poldrack-single-stim,
74,150.0,350.0,300.0,,,,,,150.0,,,,Odd-Even,stay,0.0,15.0,stop_signal_with_cued_task_switching,practice,,,,,,0.0-0.0-74.0,-1.0,none,,-1.0,white,150.0,4.0,<div class = upperbox><div class = center-text>Odd-Even</div></div><div class = lowerbox><div class = fixation>+</div></div>,,go,parity,stay,,141378,0.0,cue,74,poldrack-single-stim,
75,150.0,350.0,300.0,350.0,500.0,"<div class = starbox><img class = star src=""/static/experiments/stop_signal_with_cued_task_switching/images/stop.png""></img></div>",go,,2000.0,,77.0,1.0,Odd-Even,stay,0.0,15.0,stop_signal_with_cued_task_switching,,,,,,,0.0-0.0-75.0,77.0,"[77, 90]",,745.0,white,1000.0,4.0,"<div class = upperbox><div class = center-text>Odd-Even</div></div><div class = lowerbox><div class = gng_number><div class = cue-text><img class = center src=""/static/experiments/stop_signal_with_cued_task_switching/images/4.png""></img></div></div></div>",,go,parity,stay,,143384,0.0,practice_trial,75,stop-signal,
76,,,,,,,,,500.0,,,,,,,,stop_signal_with_cued_task_switching,,,,,,,0.0-0.0-76.0,-1.0,none,,-1.0,,500.0,,<div class = fb_box><div class = center-text><font size = 20>Correct!</font></div></div>,,,,,,143889,0.0,practice-stop-feedback,76,poldrack-single-stim,
77,,,,,,,,,,,,,,,,,stop_signal_with_cued_task_switching,,,,,,,0.0-0.0-77.0,,,,,,,,,,,,,,143891,,set_stims,77,call-function,
78,,,,,,,,,500.0,,,,,,,,stop_signal_with_cued_task_switching,practice,,,,,,0.0-0.0-78.0,-1.0,none,,-1.0,,500.0,,<div class = upperbox><div class = fixation>+</div></div><div class = lowerbox><div class = fixation>+</div></div>,,,,,,144394,0.0,fixation,78,poldrack-single-stim,
79,150.0,350.0,300.0,,,,,,150.0,,,,High-Low,switch,0.0,16.0,stop_signal_with_cued_task_switching,practice,,,,,,0.0-0.0-79.0,-1.0,none,,-1.0,white,150.0,3.0,<div class = upperbox><div class = center-text>High-Low</div></div><div class = lowerbox><div class = fixation>+</div></div>,,go,magnitude,switch,,144549,0.0,cue,79,poldrack-single-stim,
80,150.0,350.0,300.0,300.0,500.0,"<div class = starbox><img class = star src=""/static/experiments/stop_signal_with_cued_task_switching/images/stop.png""></img></div>",go,,2000.0,,90.0,1.0,High-Low,switch,0.0,16.0,stop_signal_with_cued_task_switching,,,,,,,0.0-0.0-80.0,90.0,"[77, 90]",,1038.0,white,1000.0,3.0,"<div class = upperbox><div class = center-text>High-Low</div></div><div class = lowerbox><div class = gng_number><div class = cue-text><img class = center src=""/static/experiments/stop_signal_with_cued_task_switching/images/3.png""></img></div></div></div>",,go,magnitude,switch,,146554,0.0,practice_trial,80,stop-signal,
81,,,,,,,,,500.0,,,,,,,,stop_signal_with_cued_task_switching,,,,,,,0.0-0.0-81.0,-1.0,none,,-1.0,,500.0,,<div class = fb_box><div class = center-text><font size = 20>Correct!</font></div></div>,,,,,,147060,0.0,practice-stop-feedback,81,poldrack-single-stim,
82,,,,,,,,,,,,,,,,,stop_signal_with_cued_task_switching,,,,,,,0.0-0.0-82.0,,,,,,,,,,,,,,147061,,set_stims,82,call-function,
83,,,,,,,,,500.0,,,,,,,,stop_signal_with_cued_task_switching,practice,,,,,,0.0-0.0-83.0,-1.0,none,,-1.0,,500.0,,<div class = upperbox><div class = fixation>+</div></div><div class = lowerbox><div class = fixation>+</div></div>,,,,,,147565,0.0,fixation,83,poldrack-single-stim,
84,150.0,350.0,300.0,,,,,,150.0,,,,High-Low,stay,0.0,17.0,stop_signal_with_cued_task_switching,practice,,,,,,0.0-0.0-84.0,-1.0,none,,-1.0,white,150.0,8.0,<div class = upperbox><div class = center-text>High-Low</div></div><div class = lowerbox><div class = fixation>+</div></div>,,go,magnitude,stay,,147720,0.0,cue,84,poldrack-single-stim,
85,150.0,350.0,300.0,350.0,500.0,"<div class = starbox><img class = star src=""/static/experiments/stop_signal_with_cued_task_switching/images/stop.png""></img></div>",go,,2000.0,,77.0,0.0,High-Low,stay,0.0,17.0,stop_signal_with_cued_task_switching,,,,,,,0.0-0.0-85.0,90.0,"[77, 90]",,1489.0,white,1000.0,8.0,"<div class = upperbox><div class = center-text>High-Low</div></div><div class = lowerbox><div class = gng_number><div class = cue-text><img class = center src=""/static/experiments/stop_signal_with_cued_task_switching/images/8.png""></img></div></div></div>",,go,magnitude,stay,,149725,0.0,practice_trial,85,stop-signal,
86,,,,,,,,,500.0,,,,,,,,stop_signal_with_cued_task_switching,,,,,,,0.0-0.0-86.0,-1.0,none,,-1.0,,500.0,,<div class = fb_box><div class = center-text><font size = 20>Incorrect</font></div></div>,,,,,,150230,0.0,practice-stop-feedback,86,poldrack-single-stim,
87,,,,,,,,,,,,,,,,,stop_signal_with_cued_task_switching,,,,,,,0.0-0.0-87.0,,,,,,,,,,,,,,150232,,set_stims,87,call-function,
88,,,,,,,,,500.0,,,,,,,,stop_signal_with_cued_task_switching,practice,,,,,,0.0-0.0-88.0,-1.0,none,,-1.0,,500.0,,<div class = upperbox><div class = fixation>+</div></div><div class = lowerbox><div class = fixation>+</div></div>,,,,,,150737,0.0,fixation,88,poldrack-single-stim,
89,150.0,350.0,300.0,,,,,,150.0,,,,Odd-Even,switch,0.0,18.0,stop_signal_with_cued_task_switching,practice,,,,,,0.0-0.0-89.0,-1.0,none,,-1.0,white,150.0,6.0,<div class = upperbox><div class = center-text>Odd-Even</div></div><div class = lowerbox><div class = fixation>+</div></div>,,go,parity,switch,,150892,0.0,cue,89,poldrack-single-stim,
90,150.0,350.0,300.0,300.0,500.0,"<div class = starbox><img class = star src=""/static/experiments/stop_signal_with_cued_task_switching/images/stop.png""></img></div>",go,,2000.0,,77.0,1.0,Odd-Even,switch,0.0,18.0,stop_signal_with_cued_task_switching,,,,,,,0.0-0.0-90.0,77.0,"[77, 90]",,754.0,white,1000.0,6.0,"<div class = upperbox><div class = center-text>Odd-Even</div></div><div class = lowerbox><div class = gng_number><div class = cue-text><img class = center src=""/static/experiments/stop_signal_with_cued_task_switching/images/6.png""></img></div></div></div>",,go,parity,switch,,152898,0.0,practice_trial,90,stop-signal,
91,,,,,,,,,500.0,,,,,,,,stop_signal_with_cued_task_switching,,,,,,,0.0-0.0-91.0,-1.0,none,,-1.0,,500.0,,<div class = fb_box><div class = center-text><font size = 20>Correct!</font></div></div>,,,,,,153403,0.0,practice-stop-feedback,91,poldrack-single-stim,
92,,,,,,,,,,,,,,,,,stop_signal_with_cued_task_switching,,,,,,,0.0-0.0-92.0,,,,,,,,,,,,,,153404,,set_stims,92,call-function,
93,,,,,,,,,500.0,,,,,,,,stop_signal_with_cued_task_switching,practice,,,,,,0.0-0.0-93.0,-1.0,none,,-1.0,,500.0,,<div class = upperbox><div class = fixation>+</div></div><div class = lowerbox><div class = fixation>+</div></div>,,,,,,153909,0.0,fixation,93,poldrack-single-stim,
94,150.0,350.0,300.0,,,,,,150.0,,,,Parity,switch,0.0,19.0,stop_signal_with_cued_task_switching,practice,,,,,,0.0-0.0-94.0,-1.0,none,,-1.0,white,150.0,3.0,<div class = upperbox><div class = center-text>Parity</div></div><div class = lowerbox><div class = fixation>+</div></div>,,go,parity,stay,,154063,0.0,cue,94,poldrack-single-stim,
95,150.0,350.0,300.0,350.0,500.0,"<div class = starbox><img class = star src=""/static/experiments/stop_signal_with_cued_task_switching/images/stop.png""></img></div>",go,,2000.0,,90.0,1.0,Parity,switch,0.0,19.0,stop_signal_with_cued_task_switching,,,,,,,0.0-0.0-95.0,90.0,"[77, 90]",,844.0,white,1000.0,3.0,"<div class = upperbox><div class = center-text>Parity</div></div><div class = lowerbox><div class = gng_number><div class = cue-text><img class = center src=""/static/experiments/stop_signal_with_cued_task_switching/images/3.png""></img></div></div></div>",,go,parity,stay,,156068,0.0,practice_trial,95,stop-signal,
96,,,,,,,,,500.0,,,,,,,,stop_signal_with_cued_task_switching,,,,,,,0.0-0.0-96.0,-1.0,none,,-1.0,,500.0,,<div class = fb_box><div class = center-text><font size = 20>Correct!</font></div></div>,,,,,,156573,0.0,practice-stop-feedback,96,poldrack-single-stim,
97,,,,,,,,,,,,,,,,,stop_signal_with_cued_task_switching,,,,,,,0.0-0.0-97.0,,,,,,,,,,,,,,156575,,set_stims,97,call-function,
98,,,,,,,,,500.0,,,,,,,,stop_signal_with_cued_task_switching,practice,,,,,,0.0-0.0-98.0,-1.0,none,,-1.0,,500.0,,<div class = upperbox><div class = fixation>+</div></div><div class = lowerbox><div class = fixation>+</div></div>,,,,,,157079,0.0,fixation,98,poldrack-single-stim,
99,150.0,350.0,300.0,,,,,,150.0,,,,Magnitude,switch,0.0,20.0,stop_signal_with_cued_task_switching,practice,,,,,,0.0-0.0-99.0,-1.0,none,,-1.0,white,150.0,2.0,<div class = upperbox><div class = center-text>Magnitude</div></div><div class = lowerbox><div class = fixation>+</div></div>,,go,magnitude,switch,,157233,0.0,cue,99,poldrack-single-stim,
100,150.0,350.0,300.0,300.0,500.0,"<div class = starbox><img class = star src=""/static/experiments/stop_signal_with_cued_task_switching/images/stop.png""></img></div>",go,,2000.0,,90.0,1.0,Magnitude,switch,0.0,20.0,stop_signal_with_cued_task_switching,,,,,,,0.0-0.0-100.0,90.0,"[77, 90]",,1052.0,white,1000.0,2.0,"<div class = upperbox><div class = center-text>Magnitude</div></div><div class = lowerbox><div class = gng_number><div class = cue-text><img class = center src=""/static/experiments/stop_signal_with_cued_task_switching/images/2.png""></img></div></div></div>",,go,magnitude,switch,,159238,0.0,practice_trial,100,stop-signal,
101,,,,,,,,,500.0,,,,,,,,stop_signal_with_cued_task_switching,,,,,,,0.0-0.0-101.0,-1.0,none,,-1.0,,500.0,,<div class = fb_box><div class = center-text><font size = 20>Correct!</font></div></div>,,,,,,159743,0.0,practice-stop-feedback,101,poldrack-single-stim,
102,,,,,,,,,,,,,,,,,stop_signal_with_cued_task_switching,,,,,,,0.0-0.0-102.0,,,,,,,,,,,,,,159745,,set_stims,102,call-function,
103,,,,,,,,,500.0,,,,,,,,stop_signal_with_cued_task_switching,practice,,,,,,0.0-0.0-103.0,-1.0,none,,-1.0,,500.0,,<div class = upperbox><div class = fixation>+</div></div><div class = lowerbox><div class = fixation>+</div></div>,,,,,,160250,0.0,fixation,103,poldrack-single-stim,
104,150.0,350.0,300.0,,,,,,150.0,,,,High-Low,switch,0.0,21.0,stop_signal_with_cued_task_switching,practice,,,,,,0.0-0.0-104.0,-1.0,none,,-1.0,white,150.0,4.0,<div class = upperbox><div class = center-text>High-Low</div></div><div class = lowerbox><div class = fixation>+</div></div>,,go,magnitude,stay,,160404,0.0,cue,104,poldrack-single-stim,
105,150.0,350.0,300.0,350.0,500.0,"<div class = starbox><img class = star src=""/static/experiments/stop_signal_with_cued_task_switching/images/stop.png""></img></div>",go,,2000.0,,90.0,1.0,High-Low,switch,0.0,21.0,stop_signal_with_cued_task_switching,,,,,,,0.0-0.0-105.0,90.0,"[77, 90]",,1433.0,white,1000.0,4.0,"<div class = upperbox><div class = center-text>High-Low</div></div><div class = lowerbox><div class = gng_number><div class = cue-text><img class = center src=""/static/experiments/stop_signal_with_cued_task_switching/images/4.png""></img></div></div></div>",,go,magnitude,stay,,162409,0.0,practice_trial,105,stop-signal,
106,,,,,,,,,500.0,,,,,,,,stop_signal_with_cued_task_switching,,,,,,,0.0-0.0-106.0,-1.0,none,,-1.0,,500.0,,<div class = fb_box><div class = center-text><font size = 20>Correct!</font></div></div>,,,,,,162915,0.0,practice-stop-feedback,106,poldrack-single-stim,
107,,,,,,,,,,,,,,,,,stop_signal_with_cued_task_switching,,,,,,,0.0-0.0-107.0,,,,,,,,,,,,,,162917,,set_stims,107,call-function,
108,,,,,,,,,500.0,,,,,,,,stop_signal_with_cued_task_switching,practice,,,,,,0.0-0.0-108.0,-1.0,none,,-1.0,,500.0,,<div class = upperbox><div class = fixation>+</div></div><div class = lowerbox><div class = fixation>+</div></div>,,,,,,163422,0.0,fixation,108,poldrack-single-stim,
109,150.0,350.0,300.0,,,,,,150.0,,,,Magnitude,switch,0.0,22.0,stop_signal_with_cued_task_switching,practice,,,,,,0.0-0.0-109.0,-1.0,none,,-1.0,white,150.0,3.0,<div class = upperbox><div class = center-text>Magnitude</div></div><div class = lowerbox><div class = fixation>+</div></div>,,stop,magnitude,stay,,163577,0.0,cue,109,poldrack-single-stim,
110,150.0,350.0,300.0,350.0,500.0,"<div class = starbox><img class = star src=""/static/experiments/stop_signal_with_cued_task_switching/images/stop.png""></img></div>",stop,,2000.0,,-1.0,1.0,Magnitude,switch,0.0,22.0,stop_signal_with_cued_task_switching,,,,,,,0.0-0.0-110.0,-1.0,"[77, 90]",,-1.0,white,1000.0,3.0,"<div class = upperbox><div class = center-text>Magnitude</div></div><div class = lowerbox><div class = gng_number><div class = cue-text><img class = center src=""/static/experiments/stop_signal_with_cued_task_switching/images/3.png""></img></div></div></div>",1.0,stop,magnitude,stay,,165582,0.0,practice_trial,110,stop-signal,
111,,,,,,,,,500.0,,,,,,,,stop_signal_with_cued_task_switching,,,,,,,0.0-0.0-111.0,-1.0,none,,-1.0,,500.0,,<div class = fb_box><div class = center-text><font size = 20>Correct!</font></div></div>,,,,,,166087,0.0,practice-stop-feedback,111,poldrack-single-stim,
112,,,,,,,,,,,,,,,,,stop_signal_with_cued_task_switching,,,,,,,0.0-0.0-112.0,,,,,,,,,,,,,,166089,,set_stims,112,call-function,
113,,,,,,,,,500.0,,,,,,,,stop_signal_with_cued_task_switching,practice,,,,,,0.0-0.0-113.0,-1.0,none,,-1.0,,500.0,,<div class = upperbox><div class = fixation>+</div></div><div class = lowerbox><div class = fixation>+</div></div>,,,,,,166594,0.0,fixation,113,poldrack-single-stim,
114,150.0,400.0,300.0,,,,,,150.0,,,,Magnitude,stay,0.0,23.0,stop_signal_with_cued_task_switching,practice,,,,,,0.0-0.0-114.0,-1.0,none,,-1.0,white,150.0,2.0,<div class = upperbox><div class = center-text>Magnitude</div></div><div class = lowerbox><div class = fixation>+</div></div>,,stop,magnitude,stay,,166749,0.0,cue,114,poldrack-single-stim,
115,150.0,400.0,300.0,400.0,500.0,"<div class = starbox><img class = star src=""/static/experiments/stop_signal_with_cued_task_switching/images/stop.png""></img></div>",stop,,2000.0,,-1.0,1.0,Magnitude,stay,0.0,23.0,stop_signal_with_cued_task_switching,,,,,,,0.0-0.0-115.0,-1.0,"[77, 90]",,-1.0,white,1000.0,2.0,"<div class = upperbox><div class = center-text>Magnitude</div></div><div class = lowerbox><div class = gng_number><div class = cue-text><img class = center src=""/static/experiments/stop_signal_with_cued_task_switching/images/2.png""></img></div></div></div>",1.0,stop,magnitude,stay,,168755,0.0,practice_trial,115,stop-signal,
116,,,,,,,,,500.0,,,,,,,,stop_signal_with_cued_task_switching,,,,,,,0.0-0.0-116.0,-1.0,none,,-1.0,,500.0,,<div class = fb_box><div class = center-text><font size = 20>Correct!</font></div></div>,,,,,,169260,0.0,practice-stop-feedback,116,poldrack-single-stim,
117,,,,,,,,,,,,,,,,,stop_signal_with_cued_task_switching,,,,,,,0.0-0.0-117.0,,,,,,,,,,,,,,169262,,set_stims,117,call-function,
118,,,,,,,,,500.0,,,,,,,,stop_signal_with_cued_task_switching,practice,,,,,,0.0-0.0-118.0,-1.0,none,,-1.0,,500.0,,<div class = upperbox><div class = fixation>+</div></div><div class = lowerbox><div class = fixation>+</div></div>,,,,,,169771,0.0,fixation,118,poldrack-single-stim,
119,150.0,450.0,300.0,,,,,,150.0,,,,Parity,switch,0.0,24.0,stop_signal_with_cued_task_switching,practice,,,,,,0.0-0.0-119.0,-1.0,none,,-1.0,white,150.0,8.0,<div class = upperbox><div class = center-text>Parity</div></div><div class = lowerbox><div class = fixation>+</div></div>,,stop,parity,switch,,169928,0.0,cue,119,poldrack-single-stim,
120,150.0,450.0,300.0,300.0,500.0,"<div class = starbox><img class = star src=""/static/experiments/stop_signal_with_cued_task_switching/images/stop.png""></img></div>",stop,,2000.0,,-1.0,1.0,Parity,switch,0.0,24.0,stop_signal_with_cued_task_switching,,,,,,,0.0-0.0-120.0,-1.0,"[77, 90]",,-1.0,white,1000.0,8.0,"<div class = upperbox><div class = center-text>Parity</div></div><div class = lowerbox><div class = gng_number><div class = cue-text><img class = center src=""/static/experiments/stop_signal_with_cued_task_switching/images/8.png""></img></div></div></div>",1.0,stop,parity,switch,,171934,0.0,practice_trial,120,stop-signal,
121,,,,,,,,,500.0,,,,,,,,stop_signal_with_cued_task_switching,,,,,,,0.0-0.0-121.0,-1.0,none,,-1.0,,500.0,,<div class = fb_box><div class = center-text><font size = 20>Correct!</font></div></div>,,,,,,172438,0.0,practice-stop-feedback,121,poldrack-single-stim,
122,,,,,,,,,,,,,,,,,stop_signal_with_cued_task_switching,,,,,,,0.0-0.0-122.0,,,,,,,,,,,,,,172440,,set_stims,122,call-function,
123,,,,,,,,,500.0,,,,,,,,stop_signal_with_cued_task_switching,practice,,,,,,0.0-0.0-123.0,-1.0,none,,-1.0,,500.0,,<div class = upperbox><div class = fixation>+</div></div><div class = lowerbox><div class = fixation>+</div></div>,,,,,,172944,0.0,fixation,123,poldrack-single-stim,
124,150.0,450.0,350.0,,,,,,150.0,,,,Parity,stay,0.0,25.0,stop_signal_with_cued_task_switching,practice,,,,,,0.0-0.0-124.0,-1.0,none,,-1.0,white,150.0,9.0,<div class = upperbox><div class = center-text>Parity</div></div><div class = lowerbox><div class = fixation>+</div></div>,,go,parity,stay,,173099,0.0,cue,124,poldrack-single-stim,
125,150.0,450.0,350.0,450.0,500.0,"<div class = starbox><img class = star src=""/static/experiments/stop_signal_with_cued_task_switching/images/stop.png""></img></div>",go,,2000.0,,90.0,0.0,Parity,stay,0.0,25.0,stop_signal_with_cued_task_switching,,,,,,,0.0-0.0-125.0,77.0,"[77, 90]",,1020.0,white,1000.0,9.0,"<div class = upperbox><div class = center-text>Parity</div></div><div class = lowerbox><div class = gng_number><div class = cue-text><img class = center src=""/static/experiments/stop_signal_with_cued_task_switching/images/9.png""></img></div></div></div>",,go,parity,stay,,175104,0.0,practice_trial,125,stop-signal,
126,,,,,,,,,500.0,,,,,,,,stop_signal_with_cued_task_switching,,,,,,,0.0-0.0-126.0,-1.0,none,,-1.0,,500.0,,<div class = fb_box><div class = center-text><font size = 20>Incorrect</font></div></div>,,,,,,175608,0.0,practice-stop-feedback,126,poldrack-single-stim,
127,,,,,,,,,14410.0,,,,,,,,stop_signal_with_cued_task_switching,,,,,,,0.0-0.1-0.1,13.0,[13],,14410.0,,14410.0,,"<div class = bigbox><div class = picture_box><p class = block-text><font color=""white""><br>Please take this time to read your feedback and to take a short break! Press enter to continue</p><p class = block-text>We are going to try practice again to see if you can achieve higher accuracy.  Remember: <br><ul style = ""text-align:left; font-size: 23px""><li><i>Odd-Even</i> or <i>Parity</i>: Z if odd and M if even.</li><li><i>High-Low</i> or <i>Magnitude</i>: Z if <5 and M if >5.</li><li>Do not respond if there is a star!</li></ul></p><p class = block-text>Redoing this practice. Press Enter to continue.</font></p></div></div>",,,,,,190036,0.0,practice-stop-feedback,127,poldrack-single-stim,
128,,,,,,,,,,,,,,,,,stop_signal_with_cued_task_switching,,,,,,,0.0-0.1-1.1,,,,12657.0,,,,,,,,,,202695,,instruction,128,poldrack-instructions,"[{""page_index"":0,""viewing_time"":2322},{""page_index"":1,""viewing_time"":5786},{""page_index"":2,""viewing_time"":2748},{""page_index"":3,""viewing_time"":1800}]"
129,,,,,,,,,,,,,,,,,stop_signal_with_cued_task_switching,,,,,,,0.0-0.1-2.1,,,,,,,,,,,,,,203699,,set_stims,129,call-function,
130,,,,,,,,,500.0,,,,,,,,stop_signal_with_cued_task_switching,practice,,,,,,0.0-0.1-3.1,-1.0,none,,-1.0,,500.0,,<div class = upperbox><div class = fixation>+</div></div><div class = lowerbox><div class = fixation>+</div></div>,,,,,,204203,0.0,fixation,130,poldrack-single-stim,
131,150.0,450.0,350.0,,,,,,150.0,,,,Magnitude,na,0.0,1.0,stop_signal_with_cued_task_switching,practice,,,,,,0.0-0.1-4.1,-1.0,none,,-1.0,white,150.0,7.0,<div class = upperbox><div class = center-text>Magnitude</div></div><div class = lowerbox><div class = fixation>+</div></div>,,go,magnitude,na,,204358,0.0,cue,131,poldrack-single-stim,
132,150.0,450.0,350.0,,500.0,"<div class = starbox><img class = star src=""/static/experiments/stop_signal_with_cued_task_switching/images/stop.png""></img></div>",go,,2000.0,,77.0,1.0,Magnitude,na,1.0,1.0,stop_signal_with_cued_task_switching,,,,,,,0.0-0.1-5.1,77.0,"[77, 90]",,691.0,white,1000.0,7.0,"<div class = upperbox><div class = center-text>Magnitude</div></div><div class = lowerbox><div class = gng_number><div class = cue-text><img class = center src=""/static/experiments/stop_signal_with_cued_task_switching/images/7.png""></img></div></div></div>",,go,magnitude,na,,206363,0.0,practice_trial,132,stop-signal,
133,,,,,,,,,500.0,,,,,,,,stop_signal_with_cued_task_switching,,,,,,,0.0-0.1-6.1,-1.0,none,,-1.0,,500.0,,<div class = fb_box><div class = center-text><font size = 20>Correct!</font></div></div>,,,,,,206867,0.0,practice-stop-feedback,133,poldrack-single-stim,
134,,,,,,,,,,,,,,,,,stop_signal_with_cued_task_switching,,,,,,,0.0-0.1-7.1,,,,,,,,,,,,,,206869,,set_stims,134,call-function,
135,,,,,,,,,500.0,,,,,,,,stop_signal_with_cued_task_switching,practice,,,,,,0.0-0.1-8.1,-1.0,none,,-1.0,,500.0,,<div class = upperbox><div class = fixation>+</div></div><div class = lowerbox><div class = fixation>+</div></div>,,,,,,207373,0.0,fixation,135,poldrack-single-stim,
136,150.0,450.0,350.0,,,,,,150.0,,,,Magnitude,stay,1.0,2.0,stop_signal_with_cued_task_switching,practice,,,,,,0.0-0.1-9.1,-1.0,none,,-1.0,white,150.0,7.0,<div class = upperbox><div class = center-text>Magnitude</div></div><div class = lowerbox><div class = fixation>+</div></div>,,go,magnitude,stay,,207528,0.0,cue,136,poldrack-single-stim,
137,150.0,450.0,350.0,450.0,500.0,"<div class = starbox><img class = star src=""/static/experiments/stop_signal_with_cued_task_switching/images/stop.png""></img></div>",go,,2000.0,,77.0,1.0,Magnitude,stay,1.0,2.0,stop_signal_with_cued_task_switching,,,,,,,0.0-0.1-10.1,77.0,"[77, 90]",,991.0,white,1000.0,7.0,"<div class = upperbox><div class = center-text>Magnitude</div></div><div class = lowerbox><div class = gng_number><div class = cue-text><img class = center src=""/static/experiments/stop_signal_with_cued_task_switching/images/7.png""></img></div></div></div>",,go,magnitude,stay,,209533,0.0,practice_trial,137,stop-signal,
138,,,,,,,,,500.0,,,,,,,,stop_signal_with_cued_task_switching,,,,,,,0.0-0.1-11.1,-1.0,none,,-1.0,,500.0,,<div class = fb_box><div class = center-text><font size = 20>Correct!</font></div></div>,,,,,,210039,0.0,practice-stop-feedback,138,poldrack-single-stim,
139,,,,,,,,,,,,,,,,,stop_signal_with_cued_task_switching,,,,,,,0.0-0.1-12.1,,,,,,,,,,,,,,210040,,set_stims,139,call-function,
140,,,,,,,,,500.0,,,,,,,,stop_signal_with_cued_task_switching,practice,,,,,,0.0-0.1-13.1,-1.0,none,,-1.0,,500.0,,<div class = upperbox><div class = fixation>+</div></div><div class = lowerbox><div class = fixation>+</div></div>,,,,,,210544,0.0,fixation,140,poldrack-single-stim,
141,150.0,450.0,350.0,,,,,,150.0,,,,Magnitude,stay,1.0,3.0,stop_signal_with_cued_task_switching,practice,,,,,,0.0-0.1-14.1,-1.0,none,,-1.0,white,150.0,1.0,<div class = upperbox><div class = center-text>Magnitude</div></div><div class = lowerbox><div class = fixation>+</div></div>,,stop,magnitude,stay,,210700,0.0,cue,141,poldrack-single-stim,
142,150.0,450.0,350.0,450.0,500.0,"<div class = starbox><img class = star src=""/static/experiments/stop_signal_with_cued_task_switching/images/stop.png""></img></div>",stop,,2000.0,,-1.0,1.0,Magnitude,stay,1.0,3.0,stop_signal_with_cued_task_switching,,,,,,,0.0-0.1-15.1,-1.0,"[77, 90]",,-1.0,white,1000.0,1.0,"<div class = upperbox><div class = center-text>Magnitude</div></div><div class = lowerbox><div class = gng_number><div class = cue-text><img class = center src=""/static/experiments/stop_signal_with_cued_task_switching/images/1.png""></img></div></div></div>",1.0,stop,magnitude,stay,,212706,0.0,practice_trial,142,stop-signal,
143,,,,,,,,,500.0,,,,,,,,stop_signal_with_cued_task_switching,,,,,,,0.0-0.1-16.1,-1.0,none,,-1.0,,500.0,,<div class = fb_box><div class = center-text><font size = 20>Correct!</font></div></div>,,,,,,213211,0.0,practice-stop-feedback,143,poldrack-single-stim,
144,,,,,,,,,,,,,,,,,stop_signal_with_cued_task_switching,,,,,,,0.0-0.1-17.1,,,,,,,,,,,,,,213213,,set_stims,144,call-function,
145,,,,,,,,,500.0,,,,,,,,stop_signal_with_cued_task_switching,practice,,,,,,0.0-0.1-18.1,-1.0,none,,-1.0,,500.0,,<div class = upperbox><div class = fixation>+</div></div><div class = lowerbox><div class = fixation>+</div></div>,,,,,,213717,0.0,fixation,145,poldrack-single-stim,
146,150.0,500.0,350.0,,,,,,150.0,,,,Parity,switch,1.0,4.0,stop_signal_with_cued_task_switching,practice,,,,,,0.0-0.1-19.1,-1.0,none,,-1.0,white,150.0,2.0,<div class = upperbox><div class = center-text>Parity</div></div><div class = lowerbox><div class = fixation>+</div></div>,,go,parity,switch,,213871,0.0,cue,146,poldrack-single-stim,
147,150.0,500.0,350.0,350.0,500.0,"<div class = starbox><img class = star src=""/static/experiments/stop_signal_with_cued_task_switching/images/stop.png""></img></div>",go,,2000.0,,77.0,1.0,Parity,switch,1.0,4.0,stop_signal_with_cued_task_switching,,,,,,,0.0-0.1-20.1,77.0,"[77, 90]",,791.0,white,1000.0,2.0,"<div class = upperbox><div class = center-text>Parity</div></div><div class = lowerbox><div class = gng_number><div class = cue-text><img class = center src=""/static/experiments/stop_signal_with_cued_task_switching/images/2.png""></img></div></div></div>",,go,parity,switch,,215876,0.0,practice_trial,147,stop-signal,
148,,,,,,,,,500.0,,,,,,,,stop_signal_with_cued_task_switching,,,,,,,0.0-0.1-21.1,-1.0,none,,-1.0,,500.0,,<div class = fb_box><div class = center-text><font size = 20>Correct!</font></div></div>,,,,,,216381,0.0,practice-stop-feedback,148,poldrack-single-stim,
149,,,,,,,,,,,,,,,,,stop_signal_with_cued_task_switching,,,,,,,0.0-0.1-22.1,,,,,,,,,,,,,,216383,,set_stims,149,call-function,
150,,,,,,,,,500.0,,,,,,,,stop_signal_with_cued_task_switching,practice,,,,,,0.0-0.1-23.1,-1.0,none,,-1.0,,500.0,,<div class = upperbox><div class = fixation>+</div></div><div class = lowerbox><div class = fixation>+</div></div>,,,,,,216886,0.0,fixation,150,poldrack-single-stim,
151,150.0,500.0,350.0,,,,,,150.0,,,,High-Low,switch,1.0,5.0,stop_signal_with_cued_task_switching,practice,,,,,,0.0-0.1-24.1,-1.0,none,,-1.0,white,150.0,8.0,<div class = upperbox><div class = center-text>High-Low</div></div><div class = lowerbox><div class = fixation>+</div></div>,,go,magnitude,switch,,217041,0.0,cue,151,poldrack-single-stim,
152,150.0,500.0,350.0,350.0,500.0,"<div class = starbox><img class = star src=""/static/experiments/stop_signal_with_cued_task_switching/images/stop.png""></img></div>",go,,2000.0,,77.0,1.0,High-Low,switch,1.0,5.0,stop_signal_with_cued_task_switching,,,,,,,0.0-0.1-25.1,77.0,"[77, 90]",,1227.0,white,1000.0,8.0,"<div class = upperbox><div class = center-text>High-Low</div></div><div class = lowerbox><div class = gng_number><div class = cue-text><img class = center src=""/static/experiments/stop_signal_with_cued_task_switching/images/8.png""></img></div></div></div>",,go,magnitude,switch,,219046,0.0,practice_trial,152,stop-signal,
153,,,,,,,,,500.0,,,,,,,,stop_signal_with_cued_task_switching,,,,,,,0.0-0.1-26.1,-1.0,none,,-1.0,,500.0,,<div class = fb_box><div class = center-text><font size = 20>Correct!</font></div></div>,,,,,,219552,0.0,practice-stop-feedback,153,poldrack-single-stim,
154,,,,,,,,,,,,,,,,,stop_signal_with_cued_task_switching,,,,,,,0.0-0.1-27.1,,,,,,,,,,,,,,219554,,set_stims,154,call-function,
155,,,,,,,,,500.0,,,,,,,,stop_signal_with_cued_task_switching,practice,,,,,,0.0-0.1-28.1,-1.0,none,,-1.0,,500.0,,<div class = upperbox><div class = fixation>+</div></div><div class = lowerbox><div class = fixation>+</div></div>,,,,,,220059,0.0,fixation,155,poldrack-single-stim,
156,150.0,500.0,350.0,,,,,,150.0,,,,Magnitude,switch,1.0,6.0,stop_signal_with_cued_task_switching,practice,,,,,,0.0-0.1-29.1,-1.0,none,,-1.0,white,150.0,7.0,<div class = upperbox><div class = center-text>Magnitude</div></div><div class = lowerbox><div class = fixation>+</div></div>,,go,magnitude,stay,,220215,0.0,cue,156,poldrack-single-stim,
157,150.0,500.0,350.0,500.0,500.0,"<div class = starbox><img class = star src=""/static/experiments/stop_signal_with_cued_task_switching/images/stop.png""></img></div>",go,,2000.0,,77.0,1.0,Magnitude,switch,1.0,6.0,stop_signal_with_cued_task_switching,,,,,,,0.0-0.1-30.1,77.0,"[77, 90]",,1546.0,white,1000.0,7.0,"<div class = upperbox><div class = center-text>Magnitude</div></div><div class = lowerbox><div class = gng_number><div class = cue-text><img class = center src=""/static/experiments/stop_signal_with_cued_task_switching/images/7.png""></img></div></div></div>",,go,magnitude,stay,,222220,0.0,practice_trial,157,stop-signal,
158,,,,,,,,,500.0,,,,,,,,stop_signal_with_cued_task_switching,,,,,,,0.0-0.1-31.1,-1.0,none,,-1.0,,500.0,,<div class = fb_box><div class = center-text><font size = 20>Correct!</font></div></div>,,,,,,222725,0.0,practice-stop-feedback,158,poldrack-single-stim,
159,,,,,,,,,,,,,,,,,stop_signal_with_cued_task_switching,,,,,,,0.0-0.1-32.1,,,,,,,,,,,,,,222727,,set_stims,159,call-function,
160,,,,,,,,,500.0,,,,,,,,stop_signal_with_cued_task_switching,practice,,,,,,0.0-0.1-33.1,-1.0,none,,-1.0,,500.0,,<div class = upperbox><div class = fixation>+</div></div><div class = lowerbox><div class = fixation>+</div></div>,,,,,,223231,0.0,fixation,160,poldrack-single-stim,
161,150.0,500.0,350.0,,,,,,150.0,,,,Odd-Even,switch,1.0,7.0,stop_signal_with_cued_task_switching,practice,,,,,,0.0-0.1-34.1,-1.0,none,,-1.0,white,150.0,2.0,<div class = upperbox><div class = center-text>Odd-Even</div></div><div class = lowerbox><div class = fixation>+</div></div>,,go,parity,switch,,223385,0.0,cue,161,poldrack-single-stim,
162,150.0,500.0,350.0,350.0,500.0,"<div class = starbox><img class = star src=""/static/experiments/stop_signal_with_cued_task_switching/images/stop.png""></img></div>",go,,2000.0,,77.0,1.0,Odd-Even,switch,1.0,7.0,stop_signal_with_cued_task_switching,,,,,,,0.0-0.1-35.1,77.0,"[77, 90]",,1099.0,white,1000.0,2.0,"<div class = upperbox><div class = center-text>Odd-Even</div></div><div class = lowerbox><div class = gng_number><div class = cue-text><img class = center src=""/static/experiments/stop_signal_with_cued_task_switching/images/2.png""></img></div></div></div>",,go,parity,switch,,225390,0.0,practice_trial,162,stop-signal,
163,,,,,,,,,500.0,,,,,,,,stop_signal_with_cued_task_switching,,,,,,,0.0-0.1-36.1,-1.0,none,,-1.0,,500.0,,<div class = fb_box><div class = center-text><font size = 20>Correct!</font></div></div>,,,,,,225899,0.0,practice-stop-feedback,163,poldrack-single-stim,
164,,,,,,,,,,,,,,,,,stop_signal_with_cued_task_switching,,,,,,,0.0-0.1-37.1,,,,,,,,,,,,,,225901,,set_stims,164,call-function,
165,,,,,,,,,500.0,,,,,,,,stop_signal_with_cued_task_switching,practice,,,,,,0.0-0.1-38.1,-1.0,none,,-1.0,,500.0,,<div class = upperbox><div class = fixation>+</div></div><div class = lowerbox><div class = fixation>+</div></div>,,,,,,226405,0.0,fixation,165,poldrack-single-stim,
166,150.0,500.0,350.0,,,,,,150.0,,,,Parity,switch,1.0,8.0,stop_signal_with_cued_task_switching,practice,,,,,,0.0-0.1-39.1,-1.0,none,,-1.0,white,150.0,6.0,<div class = upperbox><div class = center-text>Parity</div></div><div class = lowerbox><div class = fixation>+</div></div>,,go,parity,stay,,226559,0.0,cue,166,poldrack-single-stim,
167,150.0,500.0,350.0,500.0,500.0,"<div class = starbox><img class = star src=""/static/experiments/stop_signal_with_cued_task_switching/images/stop.png""></img></div>",go,,2000.0,,77.0,1.0,Parity,switch,1.0,8.0,stop_signal_with_cued_task_switching,,,,,,,0.0-0.1-40.1,77.0,"[77, 90]",,774.0,white,1000.0,6.0,"<div class = upperbox><div class = center-text>Parity</div></div><div class = lowerbox><div class = gng_number><div class = cue-text><img class = center src=""/static/experiments/stop_signal_with_cued_task_switching/images/6.png""></img></div></div></div>",,go,parity,stay,,228564,0.0,practice_trial,167,stop-signal,
168,,,,,,,,,500.0,,,,,,,,stop_signal_with_cued_task_switching,,,,,,,0.0-0.1-41.1,-1.0,none,,-1.0,,500.0,,<div class = fb_box><div class = center-text><font size = 20>Correct!</font></div></div>,,,,,,229069,0.0,practice-stop-feedback,168,poldrack-single-stim,
169,,,,,,,,,,,,,,,,,stop_signal_with_cued_task_switching,,,,,,,0.0-0.1-42.1,,,,,,,,,,,,,,229071,,set_stims,169,call-function,
170,,,,,,,,,500.0,,,,,,,,stop_signal_with_cued_task_switching,practice,,,,,,0.0-0.1-43.1,-1.0,none,,-1.0,,500.0,,<div class = upperbox><div class = fixation>+</div></div><div class = lowerbox><div class = fixation>+</div></div>,,,,,,229574,0.0,fixation,170,poldrack-single-stim,
171,150.0,500.0,350.0,,,,,,150.0,,,,Parity,stay,1.0,9.0,stop_signal_with_cued_task_switching,practice,,,,,,0.0-0.1-44.1,-1.0,none,,-1.0,white,150.0,4.0,<div class = upperbox><div class = center-text>Parity</div></div><div class = lowerbox><div class = fixation>+</div></div>,,stop,parity,stay,,229729,0.0,cue,171,poldrack-single-stim,
172,150.0,500.0,350.0,500.0,500.0,"<div class = starbox><img class = star src=""/static/experiments/stop_signal_with_cued_task_switching/images/stop.png""></img></div>",stop,,2000.0,,-1.0,1.0,Parity,stay,1.0,9.0,stop_signal_with_cued_task_switching,,,,,,,0.0-0.1-45.1,-1.0,"[77, 90]",,-1.0,white,1000.0,4.0,"<div class = upperbox><div class = center-text>Parity</div></div><div class = lowerbox><div class = gng_number><div class = cue-text><img class = center src=""/static/experiments/stop_signal_with_cued_task_switching/images/4.png""></img></div></div></div>",1.0,stop,parity,stay,,231734,0.0,practice_trial,172,stop-signal,
173,,,,,,,,,500.0,,,,,,,,stop_signal_with_cued_task_switching,,,,,,,0.0-0.1-46.1,-1.0,none,,-1.0,,500.0,,<div class = fb_box><div class = center-text><font size = 20>Correct!</font></div></div>,,,,,,232239,0.0,practice-stop-feedback,173,poldrack-single-stim,
174,,,,,,,,,,,,,,,,,stop_signal_with_cued_task_switching,,,,,,,0.0-0.1-47.1,,,,,,,,,,,,,,232241,,set_stims,174,call-function,
175,,,,,,,,,500.0,,,,,,,,stop_signal_with_cued_task_switching,practice,,,,,,0.0-0.1-48.1,-1.0,none,,-1.0,,500.0,,<div class = upperbox><div class = fixation>+</div></div><div class = lowerbox><div class = fixation>+</div></div>,,,,,,232745,0.0,fixation,175,poldrack-single-stim,
176,150.0,550.0,350.0,,,,,,150.0,,,,Magnitude,switch,1.0,10.0,stop_signal_with_cued_task_switching,practice,,,,,,0.0-0.1-49.1,-1.0,none,,-1.0,white,150.0,9.0,<div class = upperbox><div class = center-text>Magnitude</div></div><div class = lowerbox><div class = fixation>+</div></div>,,stop,magnitude,switch,,232899,0.0,cue,176,poldrack-single-stim,
177,150.0,550.0,350.0,350.0,500.0,"<div class = starbox><img class = star src=""/static/experiments/stop_signal_with_cued_task_switching/images/stop.png""></img></div>",stop,,2000.0,,-1.0,0.0,Magnitude,switch,1.0,10.0,stop_signal_with_cued_task_switching,,,,,,,0.0-0.1-50.1,77.0,"[77, 90]",,703.0,white,1000.0,9.0,"<div class = upperbox><div class = center-text>Magnitude</div></div><div class = lowerbox><div class = gng_number><div class = cue-text><img class = center src=""/static/experiments/stop_signal_with_cued_task_switching/images/9.png""></img></div></div></div>",0.0,stop,magnitude,switch,,234903,0.0,practice_trial,177,stop-signal,
178,,,,,,,,,500.0,,,,,,,,stop_signal_with_cued_task_switching,,,,,,,0.0-0.1-51.1,-1.0,none,,-1.0,,500.0,,<div class = fb_box><div class = center-text><font size = 20>There was a star.</font></div></div>,,,,,,235409,0.0,practice-stop-feedback,178,poldrack-single-stim,
179,,,,,,,,,,,,,,,,,stop_signal_with_cued_task_switching,,,,,,,0.0-0.1-52.1,,,,,,,,,,,,,,235410,,set_stims,179,call-function,
180,,,,,,,,,500.0,,,,,,,,stop_signal_with_cued_task_switching,practice,,,,,,0.0-0.1-53.1,-1.0,none,,-1.0,,500.0,,<div class = upperbox><div class = fixation>+</div></div><div class = lowerbox><div class = fixation>+</div></div>,,,,,,235915,0.0,fixation,180,poldrack-single-stim,
181,150.0,550.0,300.0,,,,,,150.0,,,,Parity,switch,1.0,11.0,stop_signal_with_cued_task_switching,practice,,,,,,0.0-0.1-54.1,-1.0,none,,-1.0,white,150.0,8.0,<div class = upperbox><div class = center-text>Parity</div></div><div class = lowerbox><div class = fixation>+</div></div>,,go,parity,switch,,236070,0.0,cue,181,poldrack-single-stim,
182,150.0,550.0,300.0,300.0,500.0,"<div class = starbox><img class = star src=""/static/experiments/stop_signal_with_cued_task_switching/images/stop.png""></img></div>",go,,2000.0,,77.0,1.0,Parity,switch,1.0,11.0,stop_signal_with_cued_task_switching,,,,,,,0.0-0.1-55.1,77.0,"[77, 90]",,972.0,white,1000.0,8.0,"<div class = upperbox><div class = center-text>Parity</div></div><div class = lowerbox><div class = gng_number><div class = cue-text><img class = center src=""/static/experiments/stop_signal_with_cued_task_switching/images/8.png""></img></div></div></div>",,go,parity,switch,,238078,0.0,practice_trial,182,stop-signal,
183,,,,,,,,,500.0,,,,,,,,stop_signal_with_cued_task_switching,,,,,,,0.0-0.1-56.1,-1.0,none,,-1.0,,500.0,,<div class = fb_box><div class = center-text><font size = 20>Correct!</font></div></div>,,,,,,238584,0.0,practice-stop-feedback,183,poldrack-single-stim,
184,,,,,,,,,,,,,,,,,stop_signal_with_cued_task_switching,,,,,,,0.0-0.1-57.1,,,,,,,,,,,,,,238585,,set_stims,184,call-function,
185,,,,,,,,,500.0,,,,,,,,stop_signal_with_cued_task_switching,practice,,,,,,0.0-0.1-58.1,-1.0,none,,-1.0,,500.0,,<div class = upperbox><div class = fixation>+</div></div><div class = lowerbox><div class = fixation>+</div></div>,,,,,,239090,0.0,fixation,185,poldrack-single-stim,
186,150.0,550.0,300.0,,,,,,150.0,,,,High-Low,switch,1.0,12.0,stop_signal_with_cued_task_switching,practice,,,,,,0.0-0.1-59.1,-1.0,none,,-1.0,white,150.0,3.0,<div class = upperbox><div class = center-text>High-Low</div></div><div class = lowerbox><div class = fixation>+</div></div>,,go,magnitude,switch,,239244,0.0,cue,186,poldrack-single-stim,
187,150.0,550.0,300.0,300.0,500.0,"<div class = starbox><img class = star src=""/static/experiments/stop_signal_with_cued_task_switching/images/stop.png""></img></div>",go,,2000.0,,90.0,1.0,High-Low,switch,1.0,12.0,stop_signal_with_cued_task_switching,,,,,,,0.0-0.1-60.1,90.0,"[77, 90]",,839.0,white,1000.0,3.0,"<div class = upperbox><div class = center-text>High-Low</div></div><div class = lowerbox><div class = gng_number><div class = cue-text><img class = center src=""/static/experiments/stop_signal_with_cued_task_switching/images/3.png""></img></div></div></div>",,go,magnitude,switch,,241248,0.0,practice_trial,187,stop-signal,
188,,,,,,,,,500.0,,,,,,,,stop_signal_with_cued_task_switching,,,,,,,0.0-0.1-61.1,-1.0,none,,-1.0,,500.0,,<div class = fb_box><div class = center-text><font size = 20>Correct!</font></div></div>,,,,,,241754,0.0,practice-stop-feedback,188,poldrack-single-stim,
189,,,,,,,,,,,,,,,,,stop_signal_with_cued_task_switching,,,,,,,0.0-0.1-62.1,,,,,,,,,,,,,,241756,,set_stims,189,call-function,
190,,,,,,,,,500.0,,,,,,,,stop_signal_with_cued_task_switching,practice,,,,,,0.0-0.1-63.1,-1.0,none,,-1.0,,500.0,,<div class = upperbox><div class = fixation>+</div></div><div class = lowerbox><div class = fixation>+</div></div>,,,,,,242260,0.0,fixation,190,poldrack-single-stim,
191,150.0,550.0,300.0,,,,,,150.0,,,,Magnitude,switch,1.0,13.0,stop_signal_with_cued_task_switching,practice,,,,,,0.0-0.1-64.1,-1.0,none,,-1.0,white,150.0,7.0,<div class = upperbox><div class = center-text>Magnitude</div></div><div class = lowerbox><div class = fixation>+</div></div>,,go,magnitude,stay,,242415,0.0,cue,191,poldrack-single-stim,
192,150.0,550.0,300.0,550.0,500.0,"<div class = starbox><img class = star src=""/static/experiments/stop_signal_with_cued_task_switching/images/stop.png""></img></div>",go,,2000.0,,77.0,1.0,Magnitude,switch,1.0,13.0,stop_signal_with_cued_task_switching,,,,,,,0.0-0.1-65.1,77.0,"[77, 90]",,815.0,white,1000.0,7.0,"<div class = upperbox><div class = center-text>Magnitude</div></div><div class = lowerbox><div class = gng_number><div class = cue-text><img class = center src=""/static/experiments/stop_signal_with_cued_task_switching/images/7.png""></img></div></div></div>",,go,magnitude,stay,,244420,0.0,practice_trial,192,stop-signal,
193,,,,,,,,,500.0,,,,,,,,stop_signal_with_cued_task_switching,,,,,,,0.0-0.1-66.1,-1.0,none,,-1.0,,500.0,,<div class = fb_box><div class = center-text><font size = 20>Correct!</font></div></div>,,,,,,244925,0.0,practice-stop-feedback,193,poldrack-single-stim,
194,,,,,,,,,,,,,,,,,stop_signal_with_cued_task_switching,,,,,,,0.0-0.1-67.1,,,,,,,,,,,,,,244927,,set_stims,194,call-function,
195,,,,,,,,,500.0,,,,,,,,stop_signal_with_cued_task_switching,practice,,,,,,0.0-0.1-68.1,-1.0,none,,-1.0,,500.0,,<div class = upperbox><div class = fixation>+</div></div><div class = lowerbox><div class = fixation>+</div></div>,,,,,,245430,0.0,fixation,195,poldrack-single-stim,
196,150.0,550.0,300.0,,,,,,150.0,,,,Magnitude,stay,1.0,14.0,stop_signal_with_cued_task_switching,practice,,,,,,0.0-0.1-69.1,-1.0,none,,-1.0,white,150.0,6.0,<div class = upperbox><div class = center-text>Magnitude</div></div><div class = lowerbox><div class = fixation>+</div></div>,,go,magnitude,stay,,245585,0.0,cue,196,poldrack-single-stim,
197,150.0,550.0,300.0,550.0,500.0,"<div class = starbox><img class = star src=""/static/experiments/stop_signal_with_cued_task_switching/images/stop.png""></img></div>",go,,2000.0,,77.0,1.0,Magnitude,stay,1.0,14.0,stop_signal_with_cued_task_switching,,,,,,,0.0-0.1-70.1,77.0,"[77, 90]",,879.0,white,1000.0,6.0,"<div class = upperbox><div class = center-text>Magnitude</div></div><div class = lowerbox><div class = gng_number><div class = cue-text><img class = center src=""/static/experiments/stop_signal_with_cued_task_switching/images/6.png""></img></div></div></div>",,go,magnitude,stay,,247590,0.0,practice_trial,197,stop-signal,
198,,,,,,,,,500.0,,,,,,,,stop_signal_with_cued_task_switching,,,,,,,0.0-0.1-71.1,-1.0,none,,-1.0,,500.0,,<div class = fb_box><div class = center-text><font size = 20>Correct!</font></div></div>,,,,,,248096,0.0,practice-stop-feedback,198,poldrack-single-stim,
199,,,,,,,,,,,,,,,,,stop_signal_with_cued_task_switching,,,,,,,0.0-0.1-72.1,,,,,,,,,,,,,,248098,,set_stims,199,call-function,
200,,,,,,,,,500.0,,,,,,,,stop_signal_with_cued_task_switching,practice,,,,,,0.0-0.1-73.1,-1.0,none,,-1.0,,500.0,,<div class = upperbox><div class = fixation>+</div></div><div class = lowerbox><div class = fixation>+</div></div>,,,,,,248602,0.0,fixation,200,poldrack-single-stim,
201,150.0,550.0,300.0,,,,,,150.0,,,,Odd-Even,switch,1.0,15.0,stop_signal_with_cued_task_switching,practice,,,,,,0.0-0.1-74.1,-1.0,none,,-1.0,white,150.0,9.0,<div class = upperbox><div class = center-text>Odd-Even</div></div><div class = lowerbox><div class = fixation>+</div></div>,,go,parity,switch,,248756,0.0,cue,201,poldrack-single-stim,
202,150.0,550.0,300.0,300.0,500.0,"<div class = starbox><img class = star src=""/static/experiments/stop_signal_with_cued_task_switching/images/stop.png""></img></div>",go,,2000.0,,90.0,0.0,Odd-Even,switch,1.0,15.0,stop_signal_with_cued_task_switching,,,,,,,0.0-0.1-75.1,77.0,"[77, 90]",,1025.0,white,1000.0,9.0,"<div class = upperbox><div class = center-text>Odd-Even</div></div><div class = lowerbox><div class = gng_number><div class = cue-text><img class = center src=""/static/experiments/stop_signal_with_cued_task_switching/images/9.png""></img></div></div></div>",,go,parity,switch,,250761,0.0,practice_trial,202,stop-signal,
203,,,,,,,,,500.0,,,,,,,,stop_signal_with_cued_task_switching,,,,,,,0.0-0.1-76.1,-1.0,none,,-1.0,,500.0,,<div class = fb_box><div class = center-text><font size = 20>Incorrect</font></div></div>,,,,,,251265,0.0,practice-stop-feedback,203,poldrack-single-stim,
204,,,,,,,,,,,,,,,,,stop_signal_with_cued_task_switching,,,,,,,0.0-0.1-77.1,,,,,,,,,,,,,,251267,,set_stims,204,call-function,
205,,,,,,,,,500.0,,,,,,,,stop_signal_with_cued_task_switching,practice,,,,,,0.0-0.1-78.1,-1.0,none,,-1.0,,500.0,,<div class = upperbox><div class = fixation>+</div></div><div class = lowerbox><div class = fixation>+</div></div>,,,,,,251771,0.0,fixation,205,poldrack-single-stim,
206,150.0,550.0,300.0,,,,,,150.0,,,,Parity,switch,1.0,16.0,stop_signal_with_cued_task_switching,practice,,,,,,0.0-0.1-79.1,-1.0,none,,-1.0,white,150.0,6.0,<div class = upperbox><div class = center-text>Parity</div></div><div class = lowerbox><div class = fixation>+</div></div>,,go,parity,stay,,251925,0.0,cue,206,poldrack-single-stim,
207,150.0,550.0,300.0,550.0,500.0,"<div class = starbox><img class = star src=""/static/experiments/stop_signal_with_cued_task_switching/images/stop.png""></img></div>",go,,2000.0,,77.0,1.0,Parity,switch,1.0,16.0,stop_signal_with_cued_task_switching,,,,,,,0.0-0.1-80.1,77.0,"[77, 90]",,764.0,white,1000.0,6.0,"<div class = upperbox><div class = center-text>Parity</div></div><div class = lowerbox><div class = gng_number><div class = cue-text><img class = center src=""/static/experiments/stop_signal_with_cued_task_switching/images/6.png""></img></div></div></div>",,go,parity,stay,,253930,0.0,practice_trial,207,stop-signal,
208,,,,,,,,,500.0,,,,,,,,stop_signal_with_cued_task_switching,,,,,,,0.0-0.1-81.1,-1.0,none,,-1.0,,500.0,,<div class = fb_box><div class = center-text><font size = 20>Correct!</font></div></div>,,,,,,254435,0.0,practice-stop-feedback,208,poldrack-single-stim,
209,,,,,,,,,,,,,,,,,stop_signal_with_cued_task_switching,,,,,,,0.0-0.1-82.1,,,,,,,,,,,,,,254437,,set_stims,209,call-function,
210,,,,,,,,,500.0,,,,,,,,stop_signal_with_cued_task_switching,practice,,,,,,0.0-0.1-83.1,-1.0,none,,-1.0,,500.0,,<div class = upperbox><div class = fixation>+</div></div><div class = lowerbox><div class = fixation>+</div></div>,,,,,,254941,0.0,fixation,210,poldrack-single-stim,
211,150.0,550.0,300.0,,,,,,150.0,,,,Odd-Even,switch,1.0,17.0,stop_signal_with_cued_task_switching,practice,,,,,,0.0-0.1-84.1,-1.0,none,,-1.0,white,150.0,9.0,<div class = upperbox><div class = center-text>Odd-Even</div></div><div class = lowerbox><div class = fixation>+</div></div>,,stop,parity,stay,,255095,0.0,cue,211,poldrack-single-stim,
212,150.0,550.0,300.0,550.0,500.0,"<div class = starbox><img class = star src=""/static/experiments/stop_signal_with_cued_task_switching/images/stop.png""></img></div>",stop,,2000.0,,-1.0,0.0,Odd-Even,switch,1.0,17.0,stop_signal_with_cued_task_switching,,,,,,,0.0-0.1-85.1,90.0,"[77, 90]",,690.0,white,1000.0,9.0,"<div class = upperbox><div class = center-text>Odd-Even</div></div><div class = lowerbox><div class = gng_number><div class = cue-text><img class = center src=""/static/experiments/stop_signal_with_cued_task_switching/images/9.png""></img></div></div></div>",0.0,stop,parity,stay,,257101,0.0,practice_trial,212,stop-signal,
213,,,,,,,,,500.0,,,,,,,,stop_signal_with_cued_task_switching,,,,,,,0.0-0.1-86.1,-1.0,none,,-1.0,,500.0,,<div class = fb_box><div class = center-text><font size = 20>There was a star.</font></div></div>,,,,,,257606,0.0,practice-stop-feedback,213,poldrack-single-stim,
214,,,,,,,,,,,,,,,,,stop_signal_with_cued_task_switching,,,,,,,0.0-0.1-87.1,,,,,,,,,,,,,,257608,,set_stims,214,call-function,
215,,,,,,,,,500.0,,,,,,,,stop_signal_with_cued_task_switching,practice,,,,,,0.0-0.1-88.1,-1.0,none,,-1.0,,500.0,,<div class = upperbox><div class = fixation>+</div></div><div class = lowerbox><div class = fixation>+</div></div>,,,,,,258115,0.0,fixation,215,poldrack-single-stim,
216,150.0,500.0,300.0,,,,,,150.0,,,,Odd-Even,stay,1.0,18.0,stop_signal_with_cued_task_switching,practice,,,,,,0.0-0.1-89.1,-1.0,none,,-1.0,white,150.0,4.0,<div class = upperbox><div class = center-text>Odd-Even</div></div><div class = lowerbox><div class = fixation>+</div></div>,,go,parity,stay,,258270,0.0,cue,216,poldrack-single-stim,
217,150.0,500.0,300.0,500.0,500.0,"<div class = starbox><img class = star src=""/static/experiments/stop_signal_with_cued_task_switching/images/stop.png""></img></div>",go,,2000.0,,77.0,1.0,Odd-Even,stay,1.0,18.0,stop_signal_with_cued_task_switching,,,,,,,0.0-0.1-90.1,77.0,"[77, 90]",,879.0,white,1000.0,4.0,"<div class = upperbox><div class = center-text>Odd-Even</div></div><div class = lowerbox><div class = gng_number><div class = cue-text><img class = center src=""/static/experiments/stop_signal_with_cued_task_switching/images/4.png""></img></div></div></div>",,go,parity,stay,,260275,0.0,practice_trial,217,stop-signal,
218,,,,,,,,,500.0,,,,,,,,stop_signal_with_cued_task_switching,,,,,,,0.0-0.1-91.1,-1.0,none,,-1.0,,500.0,,<div class = fb_box><div class = center-text><font size = 20>Correct!</font></div></div>,,,,,,260782,0.0,practice-stop-feedback,218,poldrack-single-stim,
219,,,,,,,,,,,,,,,,,stop_signal_with_cued_task_switching,,,,,,,0.0-0.1-92.1,,,,,,,,,,,,,,260784,,set_stims,219,call-function,
220,,,,,,,,,500.0,,,,,,,,stop_signal_with_cued_task_switching,practice,,,,,,0.0-0.1-93.1,-1.0,none,,-1.0,,500.0,,<div class = upperbox><div class = fixation>+</div></div><div class = lowerbox><div class = fixation>+</div></div>,,,,,,261290,0.0,fixation,220,poldrack-single-stim,
221,150.0,500.0,300.0,,,,,,150.0,,,,High-Low,switch,1.0,19.0,stop_signal_with_cued_task_switching,practice,,,,,,0.0-0.1-94.1,-1.0,none,,-1.0,white,150.0,6.0,<div class = upperbox><div class = center-text>High-Low</div></div><div class = lowerbox><div class = fixation>+</div></div>,,go,magnitude,switch,,261445,0.0,cue,221,poldrack-single-stim,
222,150.0,500.0,300.0,300.0,500.0,"<div class = starbox><img class = star src=""/static/experiments/stop_signal_with_cued_task_switching/images/stop.png""></img></div>",go,,2000.0,,77.0,1.0,High-Low,switch,1.0,19.0,stop_signal_with_cued_task_switching,,,,,,,0.0-0.1-95.1,77.0,"[77, 90]",,795.0,white,1000.0,6.0,"<div class = upperbox><div class = center-text>High-Low</div></div><div class = lowerbox><div class = gng_number><div class = cue-text><img class = center src=""/static/experiments/stop_signal_with_cued_task_switching/images/6.png""></img></div></div></div>",,go,magnitude,switch,,263450,0.0,practice_trial,222,stop-signal,
223,,,,,,,,,500.0,,,,,,,,stop_signal_with_cued_task_switching,,,,,,,0.0-0.1-96.1,-1.0,none,,-1.0,,500.0,,<div class = fb_box><div class = center-text><font size = 20>Correct!</font></div></div>,,,,,,263956,0.0,practice-stop-feedback,223,poldrack-single-stim,
224,,,,,,,,,,,,,,,,,stop_signal_with_cued_task_switching,,,,,,,0.0-0.1-97.1,,,,,,,,,,,,,,263958,,set_stims,224,call-function,
225,,,,,,,,,500.0,,,,,,,,stop_signal_with_cued_task_switching,practice,,,,,,0.0-0.1-98.1,-1.0,none,,-1.0,,500.0,,<div class = upperbox><div class = fixation>+</div></div><div class = lowerbox><div class = fixation>+</div></div>,,,,,,264462,0.0,fixation,225,poldrack-single-stim,
226,150.0,500.0,300.0,,,,,,150.0,,,,Parity,switch,1.0,20.0,stop_signal_with_cued_task_switching,practice,,,,,,0.0-0.1-99.1,-1.0,none,,-1.0,white,150.0,1.0,<div class = upperbox><div class = center-text>Parity</div></div><div class = lowerbox><div class = fixation>+</div></div>,,stop,parity,switch,,264617,0.0,cue,226,poldrack-single-stim,
227,150.0,500.0,300.0,300.0,500.0,"<div class = starbox><img class = star src=""/static/experiments/stop_signal_with_cued_task_switching/images/stop.png""></img></div>",stop,,2000.0,,-1.0,1.0,Parity,switch,1.0,20.0,stop_signal_with_cued_task_switching,,,,,,,0.0-0.1-100.1,-1.0,"[77, 90]",,-1.0,white,1000.0,1.0,"<div class = upperbox><div class = center-text>Parity</div></div><div class = lowerbox><div class = gng_number><div class = cue-text><img class = center src=""/static/experiments/stop_signal_with_cued_task_switching/images/1.png""></img></div></div></div>",1.0,stop,parity,switch,,266623,0.0,practice_trial,227,stop-signal,
228,,,,,,,,,500.0,,,,,,,,stop_signal_with_cued_task_switching,,,,,,,0.0-0.1-101.1,-1.0,none,,-1.0,,500.0,,<div class = fb_box><div class = center-text><font size = 20>Correct!</font></div></div>,,,,,,267128,0.0,practice-stop-feedback,228,poldrack-single-stim,
229,,,,,,,,,,,,,,,,,stop_signal_with_cued_task_switching,,,,,,,0.0-0.1-102.1,,,,,,,,,,,,,,267130,,set_stims,229,call-function,
230,,,,,,,,,500.0,,,,,,,,stop_signal_with_cued_task_switching,practice,,,,,,0.0-0.1-103.1,-1.0,none,,-1.0,,500.0,,<div class = upperbox><div class = fixation>+</div></div><div class = lowerbox><div class = fixation>+</div></div>,,,,,,267634,0.0,fixation,230,poldrack-single-stim,
231,150.0,500.0,350.0,,,,,,150.0,,,,Magnitude,switch,1.0,21.0,stop_signal_with_cued_task_switching,practice,,,,,,0.0-0.1-104.1,-1.0,none,,-1.0,white,150.0,8.0,<div class = upperbox><div class = center-text>Magnitude</div></div><div class = lowerbox><div class = fixation>+</div></div>,,go,magnitude,switch,,267789,0.0,cue,231,poldrack-single-stim,
232,150.0,500.0,350.0,350.0,500.0,"<div class = starbox><img class = star src=""/static/experiments/stop_signal_with_cued_task_switching/images/stop.png""></img></div>",go,,2000.0,,77.0,1.0,Magnitude,switch,1.0,21.0,stop_signal_with_cued_task_switching,,,,,,,0.0-0.1-105.1,77.0,"[77, 90]",,944.0,white,1000.0,8.0,"<div class = upperbox><div class = center-text>Magnitude</div></div><div class = lowerbox><div class = gng_number><div class = cue-text><img class = center src=""/static/experiments/stop_signal_with_cued_task_switching/images/8.png""></img></div></div></div>",,go,magnitude,switch,,269795,0.0,practice_trial,232,stop-signal,
233,,,,,,,,,500.0,,,,,,,,stop_signal_with_cued_task_switching,,,,,,,0.0-0.1-106.1,-1.0,none,,-1.0,,500.0,,<div class = fb_box><div class = center-text><font size = 20>Correct!</font></div></div>,,,,,,270302,0.0,practice-stop-feedback,233,poldrack-single-stim,
234,,,,,,,,,,,,,,,,,stop_signal_with_cued_task_switching,,,,,,,0.0-0.1-107.1,,,,,,,,,,,,,,270304,,set_stims,234,call-function,
235,,,,,,,,,500.0,,,,,,,,stop_signal_with_cued_task_switching,practice,,,,,,0.0-0.1-108.1,-1.0,none,,-1.0,,500.0,,<div class = upperbox><div class = fixation>+</div></div><div class = lowerbox><div class = fixation>+</div></div>,,,,,,270809,0.0,fixation,235,poldrack-single-stim,
236,150.0,500.0,350.0,,,,,,150.0,,,,High-Low,switch,1.0,22.0,stop_signal_with_cued_task_switching,practice,,,,,,0.0-0.1-109.1,-1.0,none,,-1.0,white,150.0,9.0,<div class = upperbox><div class = center-text>High-Low</div></div><div class = lowerbox><div class = fixation>+</div></div>,,stop,magnitude,stay,,270963,0.0,cue,236,poldrack-single-stim,
237,150.0,500.0,350.0,500.0,500.0,"<div class = starbox><img class = star src=""/static/experiments/stop_signal_with_cued_task_switching/images/stop.png""></img></div>",stop,,2000.0,,-1.0,1.0,High-Low,switch,1.0,22.0,stop_signal_with_cued_task_switching,,,,,,,0.0-0.1-110.1,-1.0,"[77, 90]",,-1.0,white,1000.0,9.0,"<div class = upperbox><div class = center-text>High-Low</div></div><div class = lowerbox><div class = gng_number><div class = cue-text><img class = center src=""/static/experiments/stop_signal_with_cued_task_switching/images/9.png""></img></div></div></div>",1.0,stop,magnitude,stay,,272968,0.0,practice_trial,237,stop-signal,
238,,,,,,,,,500.0,,,,,,,,stop_signal_with_cued_task_switching,,,,,,,0.0-0.1-111.1,-1.0,none,,-1.0,,500.0,,<div class = fb_box><div class = center-text><font size = 20>Correct!</font></div></div>,,,,,,273473,0.0,practice-stop-feedback,238,poldrack-single-stim,
239,,,,,,,,,,,,,,,,,stop_signal_with_cued_task_switching,,,,,,,0.0-0.1-112.1,,,,,,,,,,,,,,273475,,set_stims,239,call-function,
240,,,,,,,,,500.0,,,,,,,,stop_signal_with_cued_task_switching,practice,,,,,,0.0-0.1-113.1,-1.0,none,,-1.0,,500.0,,<div class = upperbox><div class = fixation>+</div></div><div class = lowerbox><div class = fixation>+</div></div>,,,,,,273979,0.0,fixation,240,poldrack-single-stim,
241,150.0,550.0,350.0,,,,,,150.0,,,,Odd-Even,switch,1.0,23.0,stop_signal_with_cued_task_switching,practice,,,,,,0.0-0.1-114.1,-1.0,none,,-1.0,white,150.0,3.0,<div class = upperbox><div class = center-text>Odd-Even</div></div><div class = lowerbox><div class = fixation>+</div></div>,,stop,parity,switch,,274133,0.0,cue,241,poldrack-single-stim,
242,150.0,550.0,350.0,350.0,500.0,"<div class = starbox><img class = star src=""/static/experiments/stop_signal_with_cued_task_switching/images/stop.png""></img></div>",stop,,2000.0,,-1.0,1.0,Odd-Even,switch,1.0,23.0,stop_signal_with_cued_task_switching,,,,,,,0.0-0.1-115.1,-1.0,"[77, 90]",,-1.0,white,1000.0,3.0,"<div class = upperbox><div class = center-text>Odd-Even</div></div><div class = lowerbox><div class = gng_number><div class = cue-text><img class = center src=""/static/experiments/stop_signal_with_cued_task_switching/images/3.png""></img></div></div></div>",1.0,stop,parity,switch,,276138,0.0,practice_trial,242,stop-signal,
243,,,,,,,,,500.0,,,,,,,,stop_signal_with_cued_task_switching,,,,,,,0.0-0.1-116.1,-1.0,none,,-1.0,,500.0,,<div class = fb_box><div class = center-text><font size = 20>Correct!</font></div></div>,,,,,,276643,0.0,practice-stop-feedback,243,poldrack-single-stim,
244,,,,,,,,,,,,,,,,,stop_signal_with_cued_task_switching,,,,,,,0.0-0.1-117.1,,,,,,,,,,,,,,276645,,set_stims,244,call-function,
245,,,,,,,,,500.0,,,,,,,,stop_signal_with_cued_task_switching,practice,,,,,,0.0-0.1-118.1,-1.0,none,,-1.0,,500.0,,<div class = upperbox><div class = fixation>+</div></div><div class = lowerbox><div class = fixation>+</div></div>,,,,,,277149,0.0,fixation,245,poldrack-single-stim,
246,150.0,550.0,400.0,,,,,,150.0,,,,Odd-Even,stay,1.0,24.0,stop_signal_with_cued_task_switching,practice,,,,,,0.0-0.1-119.1,-1.0,none,,-1.0,white,150.0,3.0,<div class = upperbox><div class = center-text>Odd-Even</div></div><div class = lowerbox><div class = fixation>+</div></div>,,go,parity,stay,,277304,0.0,cue,246,poldrack-single-stim,
247,150.0,550.0,400.0,550.0,500.0,"<div class = starbox><img class = star src=""/static/experiments/stop_signal_with_cued_task_switching/images/stop.png""></img></div>",go,,2000.0,,90.0,1.0,Odd-Even,stay,1.0,24.0,stop_signal_with_cued_task_switching,,,,,,,0.0-0.1-120.1,90.0,"[77, 90]",,719.0,white,1000.0,3.0,"<div class = upperbox><div class = center-text>Odd-Even</div></div><div class = lowerbox><div class = gng_number><div class = cue-text><img class = center src=""/static/experiments/stop_signal_with_cued_task_switching/images/3.png""></img></div></div></div>",,go,parity,stay,,279309,0.0,practice_trial,247,stop-signal,
248,,,,,,,,,500.0,,,,,,,,stop_signal_with_cued_task_switching,,,,,,,0.0-0.1-121.1,-1.0,none,,-1.0,,500.0,,<div class = fb_box><div class = center-text><font size = 20>Correct!</font></div></div>,,,,,,279814,0.0,practice-stop-feedback,248,poldrack-single-stim,
249,,,,,,,,,,,,,,,,,stop_signal_with_cued_task_switching,,,,,,,0.0-0.1-122.1,,,,,,,,,,,,,,279816,,set_stims,249,call-function,
250,,,,,,,,,500.0,,,,,,,,stop_signal_with_cued_task_switching,practice,,,,,,0.0-0.1-123.1,-1.0,none,,-1.0,,500.0,,<div class = upperbox><div class = fixation>+</div></div><div class = lowerbox><div class = fixation>+</div></div>,,,,,,280320,0.0,fixation,250,poldrack-single-stim,
251,150.0,550.0,400.0,,,,,,150.0,,,,High-Low,switch,1.0,25.0,stop_signal_with_cued_task_switching,practice,,,,,,0.0-0.1-124.1,-1.0,none,,-1.0,white,150.0,6.0,<div class = upperbox><div class = center-text>High-Low</div></div><div class = lowerbox><div class = fixation>+</div></div>,,stop,magnitude,switch,,280474,0.0,cue,251,poldrack-single-stim,
252,150.0,550.0,400.0,400.0,500.0,"<div class = starbox><img class = star src=""/static/experiments/stop_signal_with_cued_task_switching/images/stop.png""></img></div>",stop,,2000.0,,-1.0,1.0,High-Low,switch,1.0,25.0,stop_signal_with_cued_task_switching,,,,,,,0.0-0.1-125.1,-1.0,"[77, 90]",,-1.0,white,1000.0,6.0,"<div class = upperbox><div class = center-text>High-Low</div></div><div class = lowerbox><div class = gng_number><div class = cue-text><img class = center src=""/static/experiments/stop_signal_with_cued_task_switching/images/6.png""></img></div></div></div>",1.0,stop,magnitude,switch,,282478,0.0,practice_trial,252,stop-signal,
253,,,,,,,,,500.0,,,,,,,,stop_signal_with_cued_task_switching,,,,,,,0.0-0.1-126.1,-1.0,none,,-1.0,,500.0,,<div class = fb_box><div class = center-text><font size = 20>Correct!</font></div></div>,,,,,,282983,0.0,practice-stop-feedback,253,poldrack-single-stim,
254,,,,,,,,,2753.0,,,,,,,,stop_signal_with_cued_task_switching,,,,,,,0.0-1.0,13.0,[13],,2753.0,,2753.0,,"<div class = bigbox><div class = picture_box><p class = block-text><font color=""white""><br>Please take this time to read your feedback and to take a short break! Press enter to continue</p><p class = block-text>Done with this practice. Press Enter to continue.</font></p></div></div>",,,,,,285750,0.0,practice-stop-feedback,254,poldrack-single-stim,
255,,,,,,,,,2032.0,,,,,,,,stop_signal_with_cued_task_switching,,,,,,,0.0-2.0,13.0,,,2032.0,,,,,,,,,"<div class = centerbox><p class = block-text>Practice completed. Starting test.</p><p class = block-text>The cue before the number will be a word indicating the task. There will be four different cues indicating 2 different tasks. The cues and tasks are described below:</p><ul style = ""font-size: 23px""><li><i>Odd-Even</i> or <i>Parity</i>: Z if odd and M if even.</li><li><i>High-Low</i> or <i>Magnitude</i>: Z if <5 and M if >5.</li></ul><p class = block-text>Do not make a response if a star appears.</p><p class = block-text>Press <i>enter</i> to begin.</p></div>",287786,1000.0,test_intro,255,poldrack-text,
256,,,,,,,,,18371.0,,,,,,,,stop_signal_with_cued_task_switching,,,,,,,0.0-3.0-0.0,13.0,[13],,18371.0,,18371.0,,"<div class = bigbox><div class = picture_box><p class = block-text><font color=""white"">Starting a test block.</font></p></div></div>",,,,,,307162,0.0,practice-stop-feedback,256,poldrack-single-stim,
257,,,,,,,,,7958.0,True,87.0,,,,,,stop_signal_with_cued_task_switching,,,,,,,0.0-3.0-1.0-0.0,87.0,[],,7958.0,,7958.0,,"<p>Press the letter key that is like the letter key indicated at the end of this instructions page, but flipped upside down.<p><p>Press the ""M"" key.</p>",,,,,,315125,200.0,attention_check,257,attention-check,
258,,,,,,,,,,,,,,,,,stop_signal_with_cued_task_switching,,,,,,,0.0-3.0-2.0,,,,,,,,,,,,,,315328,,set_stims,258,call-function,
259,,,,,,,,,500.0,,,,,,,,stop_signal_with_cued_task_switching,practice,,,,,,0.0-3.0-3.0,-1.0,none,,-1.0,,500.0,,<div class = upperbox><div class = fixation>+</div></div><div class = lowerbox><div class = fixation>+</div></div>,,,,,,315833,0.0,fixation,259,poldrack-single-stim,
260,150.0,550.0,450.0,,,,,,150.0,,,,Odd-Even,na,1.0,1.0,stop_signal_with_cued_task_switching,practice,,,,,,0.0-3.0-4.0,-1.0,none,,-1.0,white,150.0,9.0,<div class = upperbox><div class = center-text>Odd-Even</div></div><div class = lowerbox><div class = fixation>+</div></div>,,go,parity,na,,315988,0.0,cue,260,poldrack-single-stim,
261,150.0,550.0,450.0,,500.0,"<div class = starbox><img class = star src=""/static/experiments/stop_signal_with_cued_task_switching/images/stop.png""></img></div>",go,,2000.0,False,90.0,0.0,Odd-Even,na,0.0,1.0,stop_signal_with_cued_task_switching,test,,,,,,0.0-3.0-5.0,77.0,"[77, 90]",,640.0,white,1000.0,9.0,"<div class = upperbox><div class = center-text>Odd-Even</div></div><div class = lowerbox><div class = gng_number><div class = cue-text><img class = center src=""/static/experiments/stop_signal_with_cued_task_switching/images/9.png""></img></div></div></div>",,go,parity,na,,317993,0.0,test_trial,261,stop-signal,
262,,,,,,,,,,,,,,,,,stop_signal_with_cued_task_switching,,,,,,,0.0-3.0-6.0,,,,,,,,,,,,,,317996,,set_stims,262,call-function,
263,,,,,,,,,500.0,,,,,,,,stop_signal_with_cued_task_switching,practice,,,,,,0.0-3.0-7.0,-1.0,none,,-1.0,,500.0,,<div class = upperbox><div class = fixation>+</div></div><div class = lowerbox><div class = fixation>+</div></div>,,,,,,318499,0.0,fixation,263,poldrack-single-stim,
264,150.0,550.0,450.0,,,,,,150.0,,,,Magnitude,switch,0.0,2.0,stop_signal_with_cued_task_switching,practice,,,,,,0.0-3.0-8.0,-1.0,none,,-1.0,white,150.0,6.0,<div class = upperbox><div class = center-text>Magnitude</div></div><div class = lowerbox><div class = fixation>+</div></div>,,stop,magnitude,switch,,318653,0.0,cue,264,poldrack-single-stim,
265,150.0,550.0,450.0,450.0,500.0,"<div class = starbox><img class = star src=""/static/experiments/stop_signal_with_cued_task_switching/images/stop.png""></img></div>",stop,,2000.0,False,-1.0,0.0,Magnitude,switch,0.0,2.0,stop_signal_with_cued_task_switching,test,,,,,,0.0-3.0-9.0,77.0,"[77, 90]",,717.0,white,1000.0,6.0,"<div class = upperbox><div class = center-text>Magnitude</div></div><div class = lowerbox><div class = gng_number><div class = cue-text><img class = center src=""/static/experiments/stop_signal_with_cued_task_switching/images/6.png""></img></div></div></div>",0.0,stop,magnitude,switch,,320658,0.0,test_trial,265,stop-signal,
266,,,,,,,,,,,,,,,,,stop_signal_with_cued_task_switching,,,,,,,0.0-3.0-10.0,,,,,,,,,,,,,,320661,,set_stims,266,call-function,
267,,,,,,,,,500.0,,,,,,,,stop_signal_with_cued_task_switching,practice,,,,,,0.0-3.0-11.0,-1.0,none,,-1.0,,500.0,,<div class = upperbox><div class = fixation>+</div></div><div class = lowerbox><div class = fixation>+</div></div>,,,,,,321165,0.0,fixation,267,poldrack-single-stim,
268,150.0,550.0,400.0,,,,,,150.0,,,,High-Low,switch,0.0,3.0,stop_signal_with_cued_task_switching,practice,,,,,,0.0-3.0-12.0,-1.0,none,,-1.0,white,150.0,8.0,<div class = upperbox><div class = center-text>High-Low</div></div><div class = lowerbox><div class = fixation>+</div></div>,,stop,magnitude,stay,,321318,0.0,cue,268,poldrack-single-stim,
269,150.0,550.0,400.0,550.0,500.0,"<div class = starbox><img class = star src=""/static/experiments/stop_signal_with_cued_task_switching/images/stop.png""></img></div>",stop,,2000.0,False,-1.0,0.0,High-Low,switch,0.0,3.0,stop_signal_with_cued_task_switching,test,,,,,,0.0-3.0-13.0,77.0,"[77, 90]",,733.0,white,1000.0,8.0,"<div class = upperbox><div class = center-text>High-Low</div></div><div class = lowerbox><div class = gng_number><div class = cue-text><img class = center src=""/static/experiments/stop_signal_with_cued_task_switching/images/8.png""></img></div></div></div>",0.0,stop,magnitude,stay,,323324,0.0,test_trial,269,stop-signal,
270,,,,,,,,,,,,,,,,,stop_signal_with_cued_task_switching,,,,,,,0.0-3.0-14.0,,,,,,,,,,,,,,323326,,set_stims,270,call-function,
271,,,,,,,,,500.0,,,,,,,,stop_signal_with_cued_task_switching,practice,,,,,,0.0-3.0-15.0,-1.0,none,,-1.0,,500.0,,<div class = upperbox><div class = fixation>+</div></div><div class = lowerbox><div class = fixation>+</div></div>,,,,,,323829,0.0,fixation,271,poldrack-single-stim,
272,150.0,500.0,400.0,,,,,,150.0,,,,Odd-Even,switch,0.0,4.0,stop_signal_with_cued_task_switching,practice,,,,,,0.0-3.0-16.0,-1.0,none,,-1.0,white,150.0,6.0,<div class = upperbox><div class = center-text>Odd-Even</div></div><div class = lowerbox><div class = fixation>+</div></div>,,go,parity,switch,,323985,0.0,cue,272,poldrack-single-stim,
273,150.0,500.0,400.0,400.0,500.0,"<div class = starbox><img class = star src=""/static/experiments/stop_signal_with_cued_task_switching/images/stop.png""></img></div>",go,,2000.0,True,77.0,0.0,Odd-Even,switch,0.0,4.0,stop_signal_with_cued_task_switching,test,,,,,,0.0-3.0-17.0,77.0,"[77, 90]",,765.0,white,1000.0,6.0,"<div class = upperbox><div class = center-text>Odd-Even</div></div><div class = lowerbox><div class = gng_number><div class = cue-text><img class = center src=""/static/experiments/stop_signal_with_cued_task_switching/images/6.png""></img></div></div></div>",,go,parity,switch,,325990,0.0,test_trial,273,stop-signal,
274,,,,,,,,,,,,,,,,,stop_signal_with_cued_task_switching,,,,,,,0.0-3.0-18.0,,,,,,,,,,,,,,325995,,set_stims,274,call-function,
275,,,,,,,,,500.0,,,,,,,,stop_signal_with_cued_task_switching,practice,,,,,,0.0-3.0-19.0,-1.0,none,,-1.0,,500.0,,<div class = upperbox><div class = fixation>+</div></div><div class = lowerbox><div class = fixation>+</div></div>,,,,,,326499,0.0,fixation,275,poldrack-single-stim,
276,150.0,500.0,400.0,,,,,,150.0,,,,High-Low,switch,0.0,5.0,stop_signal_with_cued_task_switching,practice,,,,,,0.0-3.0-20.0,-1.0,none,,-1.0,white,150.0,8.0,<div class = upperbox><div class = center-text>High-Low</div></div><div class = lowerbox><div class = fixation>+</div></div>,,go,magnitude,switch,,326653,0.0,cue,276,poldrack-single-stim,
277,150.0,500.0,400.0,400.0,500.0,"<div class = starbox><img class = star src=""/static/experiments/stop_signal_with_cued_task_switching/images/stop.png""></img></div>",go,,2000.0,True,77.0,1.0,High-Low,switch,0.0,5.0,stop_signal_with_cued_task_switching,test,,,,,,0.0-3.0-21.0,77.0,"[77, 90]",,806.0,white,1000.0,8.0,"<div class = upperbox><div class = center-text>High-Low</div></div><div class = lowerbox><div class = gng_number><div class = cue-text><img class = center src=""/static/experiments/stop_signal_with_cued_task_switching/images/8.png""></img></div></div></div>",,go,magnitude,switch,,328657,0.0,test_trial,277,stop-signal,
278,,,,,,,,,,,,,,,,,stop_signal_with_cued_task_switching,,,,,,,0.0-3.0-22.0,,,,,,,,,,,,,,328659,,set_stims,278,call-function,
279,,,,,,,,,500.0,,,,,,,,stop_signal_with_cued_task_switching,practice,,,,,,0.0-3.0-23.0,-1.0,none,,-1.0,,500.0,,<div class = upperbox><div class = fixation>+</div></div><div class = lowerbox><div class = fixation>+</div></div>,,,,,,329163,0.0,fixation,279,poldrack-single-stim,
280,150.0,500.0,400.0,,,,,,150.0,,,,Parity,switch,0.0,6.0,stop_signal_with_cued_task_switching,practice,,,,,,0.0-3.0-24.0,-1.0,none,,-1.0,white,150.0,7.0,<div class = upperbox><div class = center-text>Parity</div></div><div class = lowerbox><div class = fixation>+</div></div>,,stop,parity,switch,,329318,0.0,cue,280,poldrack-single-stim,
281,150.0,500.0,400.0,400.0,500.0,"<div class = starbox><img class = star src=""/static/experiments/stop_signal_with_cued_task_switching/images/stop.png""></img></div>",stop,,2000.0,True,-1.0,0.0,Parity,switch,0.0,6.0,stop_signal_with_cued_task_switching,test,,,,,,0.0-3.0-25.0,-1.0,"[77, 90]",,-1.0,white,1000.0,7.0,"<div class = upperbox><div class = center-text>Parity</div></div><div class = lowerbox><div class = gng_number><div class = cue-text><img class = center src=""/static/experiments/stop_signal_with_cued_task_switching/images/7.png""></img></div></div></div>",1.0,stop,parity,switch,,331324,0.0,test_trial,281,stop-signal,
282,,,,,,,,,,,,,,,,,stop_signal_with_cued_task_switching,,,,,,,0.0-3.0-26.0,,,,,,,,,,,,,,331326,,set_stims,282,call-function,
283,,,,,,,,,500.0,,,,,,,,stop_signal_with_cued_task_switching,practice,,,,,,0.0-3.0-27.0,-1.0,none,,-1.0,,500.0,,<div class = upperbox><div class = fixation>+</div></div><div class = lowerbox><div class = fixation>+</div></div>,,,,,,331830,0.0,fixation,283,poldrack-single-stim,
284,150.0,500.0,450.0,,,,,,150.0,,,,Magnitude,switch,0.0,7.0,stop_signal_with_cued_task_switching,practice,,,,,,0.0-3.0-28.0,-1.0,none,,-1.0,white,150.0,9.0,<div class = upperbox><div class = center-text>Magnitude</div></div><div class = lowerbox><div class = fixation>+</div></div>,,stop,magnitude,switch,,331984,0.0,cue,284,poldrack-single-stim,
285,150.0,500.0,450.0,450.0,500.0,"<div class = starbox><img class = star src=""/static/experiments/stop_signal_with_cued_task_switching/images/stop.png""></img></div>",stop,,2000.0,False,-1.0,0.0,Magnitude,switch,0.0,7.0,stop_signal_with_cued_task_switching,test,,,,,,0.0-3.0-29.0,90.0,"[77, 90]",,622.0,white,1000.0,9.0,"<div class = upperbox><div class = center-text>Magnitude</div></div><div class = lowerbox><div class = gng_number><div class = cue-text><img class = center src=""/static/experiments/stop_signal_with_cued_task_switching/images/9.png""></img></div></div></div>",0.0,stop,magnitude,switch,,333988,0.0,test_trial,285,stop-signal,
286,,,,,,,,,,,,,,,,,stop_signal_with_cued_task_switching,,,,,,,0.0-3.0-30.0,,,,,,,,,,,,,,333991,,set_stims,286,call-function,
287,,,,,,,,,500.0,,,,,,,,stop_signal_with_cued_task_switching,practice,,,,,,0.0-3.0-31.0,-1.0,none,,-1.0,,500.0,,<div class = upperbox><div class = fixation>+</div></div><div class = lowerbox><div class = fixation>+</div></div>,,,,,,334495,0.0,fixation,287,poldrack-single-stim,
288,150.0,500.0,400.0,,,,,,150.0,,,,Magnitude,stay,0.0,8.0,stop_signal_with_cued_task_switching,practice,,,,,,0.0-3.0-32.0,-1.0,none,,-1.0,white,150.0,7.0,<div class = upperbox><div class = center-text>Magnitude</div></div><div class = lowerbox><div class = fixation>+</div></div>,,go,magnitude,stay,,334648,0.0,cue,288,poldrack-single-stim,
289,150.0,500.0,400.0,500.0,500.0,"<div class = starbox><img class = star src=""/static/experiments/stop_signal_with_cued_task_switching/images/stop.png""></img></div>",go,,2000.0,False,77.0,0.0,Magnitude,stay,0.0,8.0,stop_signal_with_cued_task_switching,test,,,,,,0.0-3.0-33.0,90.0,"[77, 90]",,729.0,white,1000.0,7.0,"<div class = upperbox><div class = center-text>Magnitude</div></div><div class = lowerbox><div class = gng_number><div class = cue-text><img class = center src=""/static/experiments/stop_signal_with_cued_task_switching/images/7.png""></img></div></div></div>",,go,magnitude,stay,,336652,0.0,test_trial,289,stop-signal,
290,,,,,,,,,,,,,,,,,stop_signal_with_cued_task_switching,,,,,,,0.0-3.0-34.0,,,,,,,,,,,,,,336654,,set_stims,290,call-function,
291,,,,,,,,,500.0,,,,,,,,stop_signal_with_cued_task_switching,practice,,,,,,0.0-3.0-35.0,-1.0,none,,-1.0,,500.0,,<div class = upperbox><div class = fixation>+</div></div><div class = lowerbox><div class = fixation>+</div></div>,,,,,,337158,0.0,fixation,291,poldrack-single-stim,
292,150.0,500.0,400.0,,,,,,150.0,,,,Odd-Even,switch,0.0,9.0,stop_signal_with_cued_task_switching,practice,,,,,,0.0-3.0-36.0,-1.0,none,,-1.0,white,150.0,7.0,<div class = upperbox><div class = center-text>Odd-Even</div></div><div class = lowerbox><div class = fixation>+</div></div>,,go,parity,switch,,337313,0.0,cue,292,poldrack-single-stim,
293,150.0,500.0,400.0,400.0,500.0,"<div class = starbox><img class = star src=""/static/experiments/stop_signal_with_cued_task_switching/images/stop.png""></img></div>",go,,2000.0,False,90.0,1.0,Odd-Even,switch,0.0,9.0,stop_signal_with_cued_task_switching,test,,,,,,0.0-3.0-37.0,77.0,"[77, 90]",,764.0,white,1000.0,7.0,"<div class = upperbox><div class = center-text>Odd-Even</div></div><div class = lowerbox><div class = gng_number><div class = cue-text><img class = center src=""/static/experiments/stop_signal_with_cued_task_switching/images/7.png""></img></div></div></div>",,go,parity,switch,,339317,0.0,test_trial,293,stop-signal,
294,,,,,,,,,,,,,,,,,stop_signal_with_cued_task_switching,,,,,,,0.0-3.0-38.0,,,,,,,,,,,,,,339319,,set_stims,294,call-function,
295,,,,,,,,,500.0,,,,,,,,stop_signal_with_cued_task_switching,practice,,,,,,0.0-3.0-39.0,-1.0,none,,-1.0,,500.0,,<div class = upperbox><div class = fixation>+</div></div><div class = lowerbox><div class = fixation>+</div></div>,,,,,,339822,0.0,fixation,295,poldrack-single-stim,
296,150.0,500.0,400.0,,,,,,150.0,,,,High-Low,switch,0.0,10.0,stop_signal_with_cued_task_switching,practice,,,,,,0.0-3.0-40.0,-1.0,none,,-1.0,white,150.0,2.0,<div class = upperbox><div class = center-text>High-Low</div></div><div class = lowerbox><div class = fixation>+</div></div>,,go,magnitude,switch,,339977,0.0,cue,296,poldrack-single-stim,
297,150.0,500.0,400.0,400.0,500.0,"<div class = starbox><img class = star src=""/static/experiments/stop_signal_with_cued_task_switching/images/stop.png""></img></div>",go,,2000.0,True,90.0,1.0,High-Low,switch,0.0,10.0,stop_signal_with_cued_task_switching,test,,,,,,0.0-3.0-41.0,90.0,"[77, 90]",,916.0,white,1000.0,2.0,"<div class = upperbox><div class = center-text>High-Low</div></div><div class = lowerbox><div class = gng_number><div class = cue-text><img class = center src=""/static/experiments/stop_signal_with_cued_task_switching/images/2.png""></img></div></div></div>",,go,magnitude,switch,,341982,0.0,test_trial,297,stop-signal,
298,,,,,,,,,,,,,,,,,stop_signal_with_cued_task_switching,,,,,,,0.0-3.0-42.0,,,,,,,,,,,,,,341985,,set_stims,298,call-function,
