,SS_delay,SS_duration,SS_stimulus,SS_trial_type,att_check_percent,block_duration,correct,correct_response,correct_trial,current_block,current_trial,exp_id,final_accuracy,final_avg_rt,final_credit_var,final_missed_percent,final_responses_ok,go_acc,internal_node_id,key_press,possible_responses,responses,rt,stim,stim_duration,stimulus,stop_acc,stop_signal_condition,text,time_elapsed,timing_post_trial,trial_id,trial_index,trial_type,view_history
0,,,,,,6634.0,,,,,,stop_signal_single_task_network,,,,,,,0.0-0.0-0.0,13.0,[13],,6634,,6634.0,"<div class = bigbox><div class = picture_box><p class = block-text><font color=""white"">Welcome to the experiment. This experiment will take about 10 minutes. Press <i>enter</i> to begin.</font></p></div></div>",,,,6636,0.0,practice-no-stop-feedback,0,poldrack-single-stim,
1,,,,,,,,,,,,stop_signal_single_task_network,,,,,,,0.0-0.0-1.0,,,,38770,,,,,,,45408,,instruction,1,poldrack-instructions,"[{""page_index"":0,""viewing_time"":24984},{""page_index"":1,""viewing_time"":6596},{""page_index"":2,""viewing_time"":2230},{""page_index"":1,""viewing_time"":878},{""page_index"":0,""viewing_time"":2536},{""page_index"":1,""viewing_time"":789},{""page_index"":2,""viewing_time"":757}]"
2,,,,,,500.0,,,,,,stop_signal_single_task_network,,,,,,,0.0-0.0-2.0,-1.0,none,,-1,,500.0,<div class = centerbox><div class = fixation>+</div></div>,,,,45911,0.0,prompt_fixation,2,poldrack-single-stim,
3,350.0,500.0,<img class = center src='/static/experiments/stop_signal_single_task_network/images/stopSignal.png'></img>,go,,2000.0,,77.0,1.0,0.0,1.0,stop_signal_single_task_network,,,,,,1.0,0.0-0.0-3.0,77.0,"[90, 77]",,408,square,1000.0,<div class = bigbox><div class = centerbox><div class = gng_number><div class = cue-text><img class = center src='/static/experiments/stop_signal_single_task_network/images/square.png'></img></div>,,go,,47912,0.0,practice_trial,3,stop-signal,
4,,,,,,500.0,,,,,,stop_signal_single_task_network,,,,,,,0.0-0.0-4.0,-1.0,none,,-1,,500.0,"<div class = fb_box><div class = center-text><font size = 20>Correct!</font></div></div><div class = prompt_box><p class = center-block-text style = ""font-size:16px; line-height:80%%;"">circle: Z key</p><p class = center-block-text style = ""font-size:16px; line-height:80%%;"">square: M key</p><p class = center-block-text style = ""font-size:16px; line-height:80%%;"">Do not respond if a star appears!</p></div>",,,,48415,0.0,practice-stop-feedback,4,poldrack-single-stim,
5,,,,,,500.0,,,,,,stop_signal_single_task_network,,,,,,,0.0-0.0-5.0,-1.0,none,,-1,,500.0,<div class = centerbox><div class = fixation>+</div></div>,,,,48917,0.0,prompt_fixation,5,poldrack-single-stim,
6,350.0,500.0,<img class = center src='/static/experiments/stop_signal_single_task_network/images/stopSignal.png'></img>,stop,,2000.0,,-1.0,0.0,0.0,2.0,stop_signal_single_task_network,,,,,,,0.0-0.0-6.0,90.0,"[90, 77]",,458,circle,1000.0,<div class = bigbox><div class = centerbox><div class = gng_number><div class = cue-text><img class = center src='/static/experiments/stop_signal_single_task_network/images/circle.png'></img></div>,0.0,stop,,50919,0.0,practice_trial,6,stop-signal,
7,,,,,,500.0,,,,,,stop_signal_single_task_network,,,,,,,0.0-0.0-7.0,-1.0,none,,-1,,500.0,"<div class = fb_box><div class = center-text><font size = 20>There was a star.</font></div></div><div class = prompt_box><p class = center-block-text style = ""font-size:16px; line-height:80%%;"">circle: Z key</p><p class = center-block-text style = ""font-size:16px; line-height:80%%;"">square: M key</p><p class = center-block-text style = ""font-size:16px; line-height:80%%;"">Do not respond if a star appears!</p></div>",,,,51422,0.0,practice-stop-feedback,7,poldrack-single-stim,
8,,,,,,500.0,,,,,,stop_signal_single_task_network,,,,,,,0.0-0.0-8.0,-1.0,none,,-1,,500.0,<div class = centerbox><div class = fixation>+</div></div>,,,,51926,0.0,prompt_fixation,8,poldrack-single-stim,
9,300.0,500.0,<img class = center src='/static/experiments/stop_signal_single_task_network/images/stopSignal.png'></img>,go,,2000.0,,90.0,1.0,0.0,3.0,stop_signal_single_task_network,,,,,,1.0,0.0-0.0-9.0,90.0,"[90, 77]",,422,circle,1000.0,<div class = bigbox><div class = centerbox><div class = gng_number><div class = cue-text><img class = center src='/static/experiments/stop_signal_single_task_network/images/circle.png'></img></div>,,go,,53928,0.0,practice_trial,9,stop-signal,
10,,,,,,500.0,,,,,,stop_signal_single_task_network,,,,,,,0.0-0.0-10.0,-1.0,none,,-1,,500.0,"<div class = fb_box><div class = center-text><font size = 20>Correct!</font></div></div><div class = prompt_box><p class = center-block-text style = ""font-size:16px; line-height:80%%;"">circle: Z key</p><p class = center-block-text style = ""font-size:16px; line-height:80%%;"">square: M key</p><p class = center-block-text style = ""font-size:16px; line-height:80%%;"">Do not respond if a star appears!</p></div>",,,,54431,0.0,practice-stop-feedback,10,poldrack-single-stim,
11,,,,,,500.0,,,,,,stop_signal_single_task_network,,,,,,,0.0-0.0-11.0,-1.0,none,,-1,,500.0,<div class = centerbox><div class = fixation>+</div></div>,,,,54934,0.0,prompt_fixation,11,poldrack-single-stim,
12,300.0,500.0,<img class = center src='/static/experiments/stop_signal_single_task_network/images/stopSignal.png'></img>,stop,,2000.0,,-1.0,0.0,0.0,4.0,stop_signal_single_task_network,,,,,,,0.0-0.0-12.0,77.0,"[90, 77]",,374,square,1000.0,<div class = bigbox><div class = centerbox><div class = gng_number><div class = cue-text><img class = center src='/static/experiments/stop_signal_single_task_network/images/square.png'></img></div>,0.0,stop,,56935,0.0,practice_trial,12,stop-signal,
13,,,,,,500.0,,,,,,stop_signal_single_task_network,,,,,,,0.0-0.0-13.0,-1.0,none,,-1,,500.0,"<div class = fb_box><div class = center-text><font size = 20>There was a star.</font></div></div><div class = prompt_box><p class = center-block-text style = ""font-size:16px; line-height:80%%;"">circle: Z key</p><p class = center-block-text style = ""font-size:16px; line-height:80%%;"">square: M key</p><p class = center-block-text style = ""font-size:16px; line-height:80%%;"">Do not respond if a star appears!</p></div>",,,,57437,0.0,practice-stop-feedback,13,poldrack-single-stim,
14,,,,,,500.0,,,,,,stop_signal_single_task_network,,,,,,,0.0-0.0-14.0,-1.0,none,,-1,,500.0,<div class = centerbox><div class = fixation>+</div></div>,,,,57940,0.0,prompt_fixation,14,poldrack-single-stim,
15,250.0,500.0,<img class = center src='/static/experiments/stop_signal_single_task_network/images/stopSignal.png'></img>,go,,2000.0,,77.0,1.0,0.0,5.0,stop_signal_single_task_network,,,,,,1.0,0.0-0.0-15.0,77.0,"[90, 77]",,540,square,1000.0,<div class = bigbox><div class = centerbox><div class = gng_number><div class = cue-text><img class = center src='/static/experiments/stop_signal_single_task_network/images/square.png'></img></div>,,go,,59941,0.0,practice_trial,15,stop-signal,
16,,,,,,500.0,,,,,,stop_signal_single_task_network,,,,,,,0.0-0.0-16.0,-1.0,none,,-1,,500.0,"<div class = fb_box><div class = center-text><font size = 20>Correct!</font></div></div><div class = prompt_box><p class = center-block-text style = ""font-size:16px; line-height:80%%;"">circle: Z key</p><p class = center-block-text style = ""font-size:16px; line-height:80%%;"">square: M key</p><p class = center-block-text style = ""font-size:16px; line-height:80%%;"">Do not respond if a star appears!</p></div>",,,,60442,0.0,practice-stop-feedback,16,poldrack-single-stim,
17,,,,,,500.0,,,,,,stop_signal_single_task_network,,,,,,,0.0-0.0-17.0,-1.0,none,,-1,,500.0,<div class = centerbox><div class = fixation>+</div></div>,,,,60943,0.0,prompt_fixation,17,poldrack-single-stim,
18,250.0,500.0,<img class = center src='/static/experiments/stop_signal_single_task_network/images/stopSignal.png'></img>,go,,2000.0,,90.0,1.0,0.0,6.0,stop_signal_single_task_network,,,,,,1.0,0.0-0.0-18.0,90.0,"[90, 77]",,417,circle,1000.0,<div class = bigbox><div class = centerbox><div class = gng_number><div class = cue-text><img class = center src='/static/experiments/stop_signal_single_task_network/images/circle.png'></img></div>,,go,,62945,0.0,practice_trial,18,stop-signal,
19,,,,,,500.0,,,,,,stop_signal_single_task_network,,,,,,,0.0-0.0-19.0,-1.0,none,,-1,,500.0,"<div class = fb_box><div class = center-text><font size = 20>Correct!</font></div></div><div class = prompt_box><p class = center-block-text style = ""font-size:16px; line-height:80%%;"">circle: Z key</p><p class = center-block-text style = ""font-size:16px; line-height:80%%;"">square: M key</p><p class = center-block-text style = ""font-size:16px; line-height:80%%;"">Do not respond if a star appears!</p></div>",,,,63447,0.0,practice-stop-feedback,19,poldrack-single-stim,
20,,,,,,500.0,,,,,,stop_signal_single_task_network,,,,,,,0.0-0.0-20.0,-1.0,none,,-1,,500.0,<div class = centerbox><div class = fixation>+</div></div>,,,,63949,0.0,prompt_fixation,20,poldrack-single-stim,
21,250.0,500.0,<img class = center src='/static/experiments/stop_signal_single_task_network/images/stopSignal.png'></img>,go,,2000.0,,90.0,1.0,0.0,7.0,stop_signal_single_task_network,,,,,,1.0,0.0-0.0-21.0,90.0,"[90, 77]",,641,circle,1000.0,<div class = bigbox><div class = centerbox><div class = gng_number><div class = cue-text><img class = center src='/static/experiments/stop_signal_single_task_network/images/circle.png'></img></div>,,go,,65952,0.0,practice_trial,21,stop-signal,
22,,,,,,500.0,,,,,,stop_signal_single_task_network,,,,,,,0.0-0.0-22.0,-1.0,none,,-1,,500.0,"<div class = fb_box><div class = center-text><font size = 20>Correct!</font></div></div><div class = prompt_box><p class = center-block-text style = ""font-size:16px; line-height:80%%;"">circle: Z key</p><p class = center-block-text style = ""font-size:16px; line-height:80%%;"">square: M key</p><p class = center-block-text style = ""font-size:16px; line-height:80%%;"">Do not respond if a star appears!</p></div>",,,,66454,0.0,practice-stop-feedback,22,poldrack-single-stim,
23,,,,,,500.0,,,,,,stop_signal_single_task_network,,,,,,,0.0-0.0-23.0,-1.0,none,,-1,,500.0,<div class = centerbox><div class = fixation>+</div></div>,,,,66958,0.0,prompt_fixation,23,poldrack-single-stim,
24,250.0,500.0,<img class = center src='/static/experiments/stop_signal_single_task_network/images/stopSignal.png'></img>,go,,2000.0,,77.0,1.0,0.0,8.0,stop_signal_single_task_network,,,,,,1.0,0.0-0.0-24.0,77.0,"[90, 77]",,520,square,1000.0,<div class = bigbox><div class = centerbox><div class = gng_number><div class = cue-text><img class = center src='/static/experiments/stop_signal_single_task_network/images/square.png'></img></div>,,go,,68961,0.0,practice_trial,24,stop-signal,
25,,,,,,500.0,,,,,,stop_signal_single_task_network,,,,,,,0.0-0.0-25.0,-1.0,none,,-1,,500.0,"<div class = fb_box><div class = center-text><font size = 20>Correct!</font></div></div><div class = prompt_box><p class = center-block-text style = ""font-size:16px; line-height:80%%;"">circle: Z key</p><p class = center-block-text style = ""font-size:16px; line-height:80%%;"">square: M key</p><p class = center-block-text style = ""font-size:16px; line-height:80%%;"">Do not respond if a star appears!</p></div>",,,,69462,0.0,practice-stop-feedback,25,poldrack-single-stim,
26,,,,,,500.0,,,,,,stop_signal_single_task_network,,,,,,,0.0-0.0-26.0,-1.0,none,,-1,,500.0,<div class = centerbox><div class = fixation>+</div></div>,,,,69964,0.0,prompt_fixation,26,poldrack-single-stim,
27,250.0,500.0,<img class = center src='/static/experiments/stop_signal_single_task_network/images/stopSignal.png'></img>,go,,2000.0,,90.0,1.0,0.0,9.0,stop_signal_single_task_network,,,,,,1.0,0.0-0.0-27.0,90.0,"[90, 77]",,431,circle,1000.0,<div class = bigbox><div class = centerbox><div class = gng_number><div class = cue-text><img class = center src='/static/experiments/stop_signal_single_task_network/images/circle.png'></img></div>,,go,,71965,0.0,practice_trial,27,stop-signal,
28,,,,,,500.0,,,,,,stop_signal_single_task_network,,,,,,,0.0-0.0-28.0,-1.0,none,,-1,,500.0,"<div class = fb_box><div class = center-text><font size = 20>Correct!</font></div></div><div class = prompt_box><p class = center-block-text style = ""font-size:16px; line-height:80%%;"">circle: Z key</p><p class = center-block-text style = ""font-size:16px; line-height:80%%;"">square: M key</p><p class = center-block-text style = ""font-size:16px; line-height:80%%;"">Do not respond if a star appears!</p></div>",,,,72467,0.0,practice-stop-feedback,28,poldrack-single-stim,
29,,,,,,500.0,,,,,,stop_signal_single_task_network,,,,,,,0.0-0.0-29.0,-1.0,none,,-1,,500.0,<div class = centerbox><div class = fixation>+</div></div>,,,,72971,0.0,prompt_fixation,29,poldrack-single-stim,
30,250.0,500.0,<img class = center src='/static/experiments/stop_signal_single_task_network/images/stopSignal.png'></img>,go,,2000.0,,77.0,1.0,0.0,10.0,stop_signal_single_task_network,,,,,,1.0,0.0-0.0-30.0,77.0,"[90, 77]",,589,square,1000.0,<div class = bigbox><div class = centerbox><div class = gng_number><div class = cue-text><img class = center src='/static/experiments/stop_signal_single_task_network/images/square.png'></img></div>,,go,,74975,0.0,practice_trial,30,stop-signal,
31,,,,,,500.0,,,,,,stop_signal_single_task_network,,,,,,,0.0-0.0-31.0,-1.0,none,,-1,,500.0,"<div class = fb_box><div class = center-text><font size = 20>Correct!</font></div></div><div class = prompt_box><p class = center-block-text style = ""font-size:16px; line-height:80%%;"">circle: Z key</p><p class = center-block-text style = ""font-size:16px; line-height:80%%;"">square: M key</p><p class = center-block-text style = ""font-size:16px; line-height:80%%;"">Do not respond if a star appears!</p></div>",,,,75477,0.0,practice-stop-feedback,31,poldrack-single-stim,
32,,,,,,500.0,,,,,,stop_signal_single_task_network,,,,,,,0.0-0.0-32.0,-1.0,none,,-1,,500.0,<div class = centerbox><div class = fixation>+</div></div>,,,,75979,0.0,prompt_fixation,32,poldrack-single-stim,
33,250.0,500.0,<img class = center src='/static/experiments/stop_signal_single_task_network/images/stopSignal.png'></img>,go,,2000.0,,77.0,1.0,0.0,11.0,stop_signal_single_task_network,,,,,,1.0,0.0-0.0-33.0,77.0,"[90, 77]",,603,square,1000.0,<div class = bigbox><div class = centerbox><div class = gng_number><div class = cue-text><img class = center src='/static/experiments/stop_signal_single_task_network/images/square.png'></img></div>,,go,,77982,0.0,practice_trial,33,stop-signal,
34,,,,,,500.0,,,,,,stop_signal_single_task_network,,,,,,,0.0-0.0-34.0,-1.0,none,,-1,,500.0,"<div class = fb_box><div class = center-text><font size = 20>Correct!</font></div></div><div class = prompt_box><p class = center-block-text style = ""font-size:16px; line-height:80%%;"">circle: Z key</p><p class = center-block-text style = ""font-size:16px; line-height:80%%;"">square: M key</p><p class = center-block-text style = ""font-size:16px; line-height:80%%;"">Do not respond if a star appears!</p></div>",,,,78485,0.0,practice-stop-feedback,34,poldrack-single-stim,
35,,,,,,500.0,,,,,,stop_signal_single_task_network,,,,,,,0.0-0.0-35.0,-1.0,none,,-1,,500.0,<div class = centerbox><div class = fixation>+</div></div>,,,,78988,0.0,prompt_fixation,35,poldrack-single-stim,
36,250.0,500.0,<img class = center src='/static/experiments/stop_signal_single_task_network/images/stopSignal.png'></img>,go,,2000.0,,90.0,1.0,0.0,12.0,stop_signal_single_task_network,,,,,,1.0,0.0-0.0-36.0,90.0,"[90, 77]",,607,circle,1000.0,<div class = bigbox><div class = centerbox><div class = gng_number><div class = cue-text><img class = center src='/static/experiments/stop_signal_single_task_network/images/circle.png'></img></div>,,go,,80989,0.0,practice_trial,36,stop-signal,
37,,,,,,500.0,,,,,,stop_signal_single_task_network,,,,,,,0.0-0.0-37.0,-1.0,none,,-1,,500.0,"<div class = fb_box><div class = center-text><font size = 20>Correct!</font></div></div><div class = prompt_box><p class = center-block-text style = ""font-size:16px; line-height:80%%;"">circle: Z key</p><p class = center-block-text style = ""font-size:16px; line-height:80%%;"">square: M key</p><p class = center-block-text style = ""font-size:16px; line-height:80%%;"">Do not respond if a star appears!</p></div>",,,,81492,0.0,practice-stop-feedback,37,poldrack-single-stim,
38,,,,,,500.0,,,,,,stop_signal_single_task_network,,,,,,,0.0-0.0-38.0,-1.0,none,,-1,,500.0,<div class = centerbox><div class = fixation>+</div></div>,,,,81993,0.0,prompt_fixation,38,poldrack-single-stim,
39,250.0,500.0,<img class = center src='/static/experiments/stop_signal_single_task_network/images/stopSignal.png'></img>,stop,,2000.0,,-1.0,1.0,0.0,13.0,stop_signal_single_task_network,,,,,,,0.0-0.0-39.0,-1.0,"[90, 77]",,-1,square,1000.0,<div class = bigbox><div class = centerbox><div class = gng_number><div class = cue-text><img class = center src='/static/experiments/stop_signal_single_task_network/images/square.png'></img></div>,1.0,stop,,83996,0.0,practice_trial,39,stop-signal,
40,,,,,,500.0,,,,,,stop_signal_single_task_network,,,,,,,0.0-0.0-40.0,-1.0,none,,-1,,500.0,"<div class = fb_box><div class = center-text><font size = 20>Correct!</font></div></div><div class = prompt_box><p class = center-block-text style = ""font-size:16px; line-height:80%%;"">circle: Z key</p><p class = center-block-text style = ""font-size:16px; line-height:80%%;"">square: M key</p><p class = center-block-text style = ""font-size:16px; line-height:80%%;"">Do not respond if a star appears!</p></div>",,,,84498,0.0,practice-stop-feedback,40,poldrack-single-stim,
41,,,,,,500.0,,,,,,stop_signal_single_task_network,,,,,,,0.0-0.0-41.0,-1.0,none,,-1,,500.0,<div class = centerbox><div class = fixation>+</div></div>,,,,85001,0.0,prompt_fixation,41,poldrack-single-stim,
42,300.0,500.0,<img class = center src='/static/experiments/stop_signal_single_task_network/images/stopSignal.png'></img>,go,,2000.0,,90.0,1.0,0.0,14.0,stop_signal_single_task_network,,,,,,1.0,0.0-0.0-42.0,90.0,"[90, 77]",,596,circle,1000.0,<div class = bigbox><div class = centerbox><div class = gng_number><div class = cue-text><img class = center src='/static/experiments/stop_signal_single_task_network/images/circle.png'></img></div>,,go,,87006,0.0,practice_trial,42,stop-signal,
43,,,,,,500.0,,,,,,stop_signal_single_task_network,,,,,,,0.0-0.0-43.0,-1.0,none,,-1,,500.0,"<div class = fb_box><div class = center-text><font size = 20>Correct!</font></div></div><div class = prompt_box><p class = center-block-text style = ""font-size:16px; line-height:80%%;"">circle: Z key</p><p class = center-block-text style = ""font-size:16px; line-height:80%%;"">square: M key</p><p class = center-block-text style = ""font-size:16px; line-height:80%%;"">Do not respond if a star appears!</p></div>",,,,87510,0.0,practice-stop-feedback,43,poldrack-single-stim,
44,,,,,,500.0,,,,,,stop_signal_single_task_network,,,,,,,0.0-0.0-44.0,-1.0,none,,-1,,500.0,<div class = centerbox><div class = fixation>+</div></div>,,,,88011,0.0,prompt_fixation,44,poldrack-single-stim,
45,300.0,500.0,<img class = center src='/static/experiments/stop_signal_single_task_network/images/stopSignal.png'></img>,go,,2000.0,,90.0,1.0,0.0,15.0,stop_signal_single_task_network,,,,,,1.0,0.0-0.0-45.0,90.0,"[90, 77]",,544,circle,1000.0,<div class = bigbox><div class = centerbox><div class = gng_number><div class = cue-text><img class = center src='/static/experiments/stop_signal_single_task_network/images/circle.png'></img></div>,,go,,90014,0.0,practice_trial,45,stop-signal,
46,,,,,,500.0,,,,,,stop_signal_single_task_network,,,,,,,0.0-0.0-46.0,-1.0,none,,-1,,500.0,"<div class = fb_box><div class = center-text><font size = 20>Correct!</font></div></div><div class = prompt_box><p class = center-block-text style = ""font-size:16px; line-height:80%%;"">circle: Z key</p><p class = center-block-text style = ""font-size:16px; line-height:80%%;"">square: M key</p><p class = center-block-text style = ""font-size:16px; line-height:80%%;"">Do not respond if a star appears!</p></div>",,,,90516,0.0,practice-stop-feedback,46,poldrack-single-stim,
47,,,,,,500.0,,,,,,stop_signal_single_task_network,,,,,,,0.0-0.0-47.0,-1.0,none,,-1,,500.0,<div class = centerbox><div class = fixation>+</div></div>,,,,91019,0.0,prompt_fixation,47,poldrack-single-stim,
48,300.0,500.0,<img class = center src='/static/experiments/stop_signal_single_task_network/images/stopSignal.png'></img>,stop,,2000.0,,-1.0,1.0,0.0,16.0,stop_signal_single_task_network,,,,,,,0.0-0.0-48.0,-1.0,"[90, 77]",,-1,square,1000.0,<div class = bigbox><div class = centerbox><div class = gng_number><div class = cue-text><img class = center src='/static/experiments/stop_signal_single_task_network/images/square.png'></img></div>,1.0,stop,,93021,0.0,practice_trial,48,stop-signal,
49,,,,,,500.0,,,,,,stop_signal_single_task_network,,,,,,,0.0-0.0-49.0,-1.0,none,,-1,,500.0,"<div class = fb_box><div class = center-text><font size = 20>Correct!</font></div></div><div class = prompt_box><p class = center-block-text style = ""font-size:16px; line-height:80%%;"">circle: Z key</p><p class = center-block-text style = ""font-size:16px; line-height:80%%;"">square: M key</p><p class = center-block-text style = ""font-size:16px; line-height:80%%;"">Do not respond if a star appears!</p></div>",,,,93524,0.0,practice-stop-feedback,49,poldrack-single-stim,
50,,,,,,500.0,,,,,,stop_signal_single_task_network,,,,,,,0.0-0.0-50.0,-1.0,none,,-1,,500.0,<div class = centerbox><div class = fixation>+</div></div>,,,,94027,0.0,prompt_fixation,50,poldrack-single-stim,
51,350.0,500.0,<img class = center src='/static/experiments/stop_signal_single_task_network/images/stopSignal.png'></img>,stop,,2000.0,,-1.0,1.0,0.0,17.0,stop_signal_single_task_network,,,,,,,0.0-0.0-51.0,-1.0,"[90, 77]",,-1,circle,1000.0,<div class = bigbox><div class = centerbox><div class = gng_number><div class = cue-text><img class = center src='/static/experiments/stop_signal_single_task_network/images/circle.png'></img></div>,1.0,stop,,96029,0.0,practice_trial,51,stop-signal,
52,,,,,,500.0,,,,,,stop_signal_single_task_network,,,,,,,0.0-0.0-52.0,-1.0,none,,-1,,500.0,"<div class = fb_box><div class = center-text><font size = 20>Correct!</font></div></div><div class = prompt_box><p class = center-block-text style = ""font-size:16px; line-height:80%%;"">circle: Z key</p><p class = center-block-text style = ""font-size:16px; line-height:80%%;"">square: M key</p><p class = center-block-text style = ""font-size:16px; line-height:80%%;"">Do not respond if a star appears!</p></div>",,,,96532,0.0,practice-stop-feedback,52,poldrack-single-stim,
53,,,,,,500.0,,,,,,stop_signal_single_task_network,,,,,,,0.0-0.0-53.0,-1.0,none,,-1,,500.0,<div class = centerbox><div class = fixation>+</div></div>,,,,97033,0.0,prompt_fixation,53,poldrack-single-stim,
54,400.0,500.0,<img class = center src='/static/experiments/stop_signal_single_task_network/images/stopSignal.png'></img>,stop,,2000.0,,-1.0,0.0,0.0,18.0,stop_signal_single_task_network,,,,,,,0.0-0.0-54.0,77.0,"[90, 77]",,580,square,1000.0,<div class = bigbox><div class = centerbox><div class = gng_number><div class = cue-text><img class = center src='/static/experiments/stop_signal_single_task_network/images/square.png'></img></div>,0.0,stop,,99036,0.0,practice_trial,54,stop-signal,
55,,,,,,500.0,,,,,,stop_signal_single_task_network,,,,,,,0.0-0.0-55.0,-1.0,none,,-1,,500.0,"<div class = fb_box><div class = center-text><font size = 20>There was a star.</font></div></div><div class = prompt_box><p class = center-block-text style = ""font-size:16px; line-height:80%%;"">circle: Z key</p><p class = center-block-text style = ""font-size:16px; line-height:80%%;"">square: M key</p><p class = center-block-text style = ""font-size:16px; line-height:80%%;"">Do not respond if a star appears!</p></div>",,,,99538,0.0,practice-stop-feedback,55,poldrack-single-stim,
56,,,,,,500.0,,,,,,stop_signal_single_task_network,,,,,,,0.0-0.0-56.0,-1.0,none,,-1,,500.0,<div class = centerbox><div class = fixation>+</div></div>,,,,100040,0.0,prompt_fixation,56,poldrack-single-stim,
57,350.0,500.0,<img class = center src='/static/experiments/stop_signal_single_task_network/images/stopSignal.png'></img>,go,,2000.0,,90.0,1.0,0.0,19.0,stop_signal_single_task_network,,,,,,1.0,0.0-0.0-57.0,90.0,"[90, 77]",,734,circle,1000.0,<div class = bigbox><div class = centerbox><div class = gng_number><div class = cue-text><img class = center src='/static/experiments/stop_signal_single_task_network/images/circle.png'></img></div>,,go,,102042,0.0,practice_trial,57,stop-signal,
58,,,,,,500.0,,,,,,stop_signal_single_task_network,,,,,,,0.0-0.0-58.0,-1.0,none,,-1,,500.0,"<div class = fb_box><div class = center-text><font size = 20>Correct!</font></div></div><div class = prompt_box><p class = center-block-text style = ""font-size:16px; line-height:80%%;"">circle: Z key</p><p class = center-block-text style = ""font-size:16px; line-height:80%%;"">square: M key</p><p class = center-block-text style = ""font-size:16px; line-height:80%%;"">Do not respond if a star appears!</p></div>",,,,102545,0.0,practice-stop-feedback,58,poldrack-single-stim,
59,,,,,,500.0,,,,,,stop_signal_single_task_network,,,,,,,0.0-0.0-59.0,-1.0,none,,-1,,500.0,<div class = centerbox><div class = fixation>+</div></div>,,,,103046,0.0,prompt_fixation,59,poldrack-single-stim,
60,350.0,500.0,<img class = center src='/static/experiments/stop_signal_single_task_network/images/stopSignal.png'></img>,go,,2000.0,,77.0,1.0,0.0,20.0,stop_signal_single_task_network,,,,,,1.0,0.0-0.0-60.0,77.0,"[90, 77]",,721,square,1000.0,<div class = bigbox><div class = centerbox><div class = gng_number><div class = cue-text><img class = center src='/static/experiments/stop_signal_single_task_network/images/square.png'></img></div>,,go,,105047,0.0,practice_trial,60,stop-signal,
61,,,,,,500.0,,,,,,stop_signal_single_task_network,,,,,,,0.0-0.0-61.0,-1.0,none,,-1,,500.0,"<div class = fb_box><div class = center-text><font size = 20>Correct!</font></div></div><div class = prompt_box><p class = center-block-text style = ""font-size:16px; line-height:80%%;"">circle: Z key</p><p class = center-block-text style = ""font-size:16px; line-height:80%%;"">square: M key</p><p class = center-block-text style = ""font-size:16px; line-height:80%%;"">Do not respond if a star appears!</p></div>",,,,105549,0.0,practice-stop-feedback,61,poldrack-single-stim,
62,,,,,,500.0,,,,,,stop_signal_single_task_network,,,,,,,0.0-0.0-62.0,-1.0,none,,-1,,500.0,<div class = centerbox><div class = fixation>+</div></div>,,,,106052,0.0,prompt_fixation,62,poldrack-single-stim,
63,350.0,500.0,<img class = center src='/static/experiments/stop_signal_single_task_network/images/stopSignal.png'></img>,go,,2000.0,,77.0,1.0,0.0,21.0,stop_signal_single_task_network,,,,,,1.0,0.0-0.0-63.0,77.0,"[90, 77]",,702,square,1000.0,<div class = bigbox><div class = centerbox><div class = gng_number><div class = cue-text><img class = center src='/static/experiments/stop_signal_single_task_network/images/square.png'></img></div>,,go,,108054,0.0,practice_trial,63,stop-signal,
64,,,,,,500.0,,,,,,stop_signal_single_task_network,,,,,,,0.0-0.0-64.0,-1.0,none,,-1,,500.0,"<div class = fb_box><div class = center-text><font size = 20>Correct!</font></div></div><div class = prompt_box><p class = center-block-text style = ""font-size:16px; line-height:80%%;"">circle: Z key</p><p class = center-block-text style = ""font-size:16px; line-height:80%%;"">square: M key</p><p class = center-block-text style = ""font-size:16px; line-height:80%%;"">Do not respond if a star appears!</p></div>",,,,108558,0.0,practice-stop-feedback,64,poldrack-single-stim,
65,,,,,,500.0,,,,,,stop_signal_single_task_network,,,,,,,0.0-0.0-65.0,-1.0,none,,-1,,500.0,<div class = centerbox><div class = fixation>+</div></div>,,,,109062,0.0,prompt_fixation,65,poldrack-single-stim,
66,350.0,500.0,<img class = center src='/static/experiments/stop_signal_single_task_network/images/stopSignal.png'></img>,go,,2000.0,,90.0,1.0,0.0,22.0,stop_signal_single_task_network,,,,,,1.0,0.0-0.0-66.0,90.0,"[90, 77]",,712,circle,1000.0,<div class = bigbox><div class = centerbox><div class = gng_number><div class = cue-text><img class = center src='/static/experiments/stop_signal_single_task_network/images/circle.png'></img></div>,,go,,111063,0.0,practice_trial,66,stop-signal,
67,,,,,,500.0,,,,,,stop_signal_single_task_network,,,,,,,0.0-0.0-67.0,-1.0,none,,-1,,500.0,"<div class = fb_box><div class = center-text><font size = 20>Correct!</font></div></div><div class = prompt_box><p class = center-block-text style = ""font-size:16px; line-height:80%%;"">circle: Z key</p><p class = center-block-text style = ""font-size:16px; line-height:80%%;"">square: M key</p><p class = center-block-text style = ""font-size:16px; line-height:80%%;"">Do not respond if a star appears!</p></div>",,,,111565,0.0,practice-stop-feedback,67,poldrack-single-stim,
68,,,,,,500.0,,,,,,stop_signal_single_task_network,,,,,,,0.0-0.0-68.0,-1.0,none,,-1,,500.0,<div class = centerbox><div class = fixation>+</div></div>,,,,112067,0.0,prompt_fixation,68,poldrack-single-stim,
69,350.0,500.0,<img class = center src='/static/experiments/stop_signal_single_task_network/images/stopSignal.png'></img>,go,,2000.0,,77.0,1.0,0.0,23.0,stop_signal_single_task_network,,,,,,1.0,0.0-0.0-69.0,77.0,"[90, 77]",,598,square,1000.0,<div class = bigbox><div class = centerbox><div class = gng_number><div class = cue-text><img class = center src='/static/experiments/stop_signal_single_task_network/images/square.png'></img></div>,,go,,114069,0.0,practice_trial,69,stop-signal,
70,,,,,,500.0,,,,,,stop_signal_single_task_network,,,,,,,0.0-0.0-70.0,-1.0,none,,-1,,500.0,"<div class = fb_box><div class = center-text><font size = 20>Correct!</font></div></div><div class = prompt_box><p class = center-block-text style = ""font-size:16px; line-height:80%%;"">circle: Z key</p><p class = center-block-text style = ""font-size:16px; line-height:80%%;"">square: M key</p><p class = center-block-text style = ""font-size:16px; line-height:80%%;"">Do not respond if a star appears!</p></div>",,,,114573,0.0,practice-stop-feedback,70,poldrack-single-stim,
71,,,,,,500.0,,,,,,stop_signal_single_task_network,,,,,,,0.0-0.0-71.0,-1.0,none,,-1,,500.0,<div class = centerbox><div class = fixation>+</div></div>,,,,115077,0.0,prompt_fixation,71,poldrack-single-stim,
72,350.0,500.0,<img class = center src='/static/experiments/stop_signal_single_task_network/images/stopSignal.png'></img>,go,,2000.0,,77.0,1.0,0.0,24.0,stop_signal_single_task_network,,,,,,1.0,0.0-0.0-72.0,77.0,"[90, 77]",,659,square,1000.0,<div class = bigbox><div class = centerbox><div class = gng_number><div class = cue-text><img class = center src='/static/experiments/stop_signal_single_task_network/images/square.png'></img></div>,,go,,117079,0.0,practice_trial,72,stop-signal,
73,,,,,,500.0,,,,,,stop_signal_single_task_network,,,,,,,0.0-0.0-73.0,-1.0,none,,-1,,500.0,"<div class = fb_box><div class = center-text><font size = 20>Correct!</font></div></div><div class = prompt_box><p class = center-block-text style = ""font-size:16px; line-height:80%%;"">circle: Z key</p><p class = center-block-text style = ""font-size:16px; line-height:80%%;"">square: M key</p><p class = center-block-text style = ""font-size:16px; line-height:80%%;"">Do not respond if a star appears!</p></div>",,,,117581,0.0,practice-stop-feedback,73,poldrack-single-stim,
74,,,,,,2534.0,,,,,,stop_signal_single_task_network,,,,,,,0.0-1.0,13.0,[13],,2534,,2534.0,"<div class = bigbox><div class = picture_box><p class = block-text><font color=""white""><br>Please take this time to read your feedback and to take a short break. Press enter to continue.</p><p class = block-text>Done with this practice.</font></p></div></div>",,,,120120,0.0,practice-no-stop-feedback,74,poldrack-single-stim,
75,,,,,,6324.0,,,,,,stop_signal_single_task_network,,,,,,,0.0-2.0,13.0,[13],,6324,,6324.0,"<div class = centerbox><p class = block-text>We will now begin the test portion.</p><p class = block-text>You will see a shape on every trial. Please respond to each shape as quickly and accurately as possible!</p><p class = block-text>If the shape is a circle, press the Z key.</p><p class = block-text>If the shape is a square, press the M key.</p><p class = block-text>Do not respond if you see a star.</p><p class = block-text>You will no longer receive the rule prompt, so remember the instructions before you continue. Press Enter to begin.</p></div>",,,,126447,0.0,test_intro,75,poldrack-single-stim,
76,,,,,,2244.0,,,,,,stop_signal_single_task_network,,,,,,,0.0-3.0-0.0,13.0,[13],,2244,,2244.0,"<div class = bigbox><div class = picture_box><p class = block-text><font color=""white"">We will now start the test session. Please concentrate on responding quickly and accurately to each stimulus. Press Enter to begin.</font></p></div></div>",,,,128691,0.0,practice-no-stop-feedback,76,poldrack-single-stim,
77,,,,,,1850.0,True,37.0,,,,stop_signal_single_task_network,,,,,,,0.0-3.0-1.0-0.0,37.0,[],,1850,,1850.0,Press the Left Arrow</p>,,,,130542,200.0,attention_check,77,attention-check,
78,,,,,,500.0,,,,,,stop_signal_single_task_network,,,,,,,0.0-3.0-2.0,-1.0,none,,-1,,500.0,<div class = centerbox><div class = fixation>+</div></div>,,,,131246,0.0,fixation,78,poldrack-single-stim,
79,350.0,500.0,<img class = center src='/static/experiments/stop_signal_single_task_network/images/stopSignal.png'></img>,go,,2000.0,,90.0,1.0,0.0,1.0,stop_signal_single_task_network,,,,,,1.0,0.0-3.0-3.0,90.0,"[90, 77]",,557,circle,1000.0,<div class = bigbox><div class = centerbox><div class = gng_number><div class = cue-text><img class = center src='/static/experiments/stop_signal_single_task_network/images/circle.png'></img></div>,,go,,133250,0.0,test_trial,79,stop-signal,
80,,,,,,500.0,,,,,,stop_signal_single_task_network,,,,,,,0.0-3.0-4.0,-1.0,none,,-1,,500.0,<div class = centerbox><div class = fixation>+</div></div>,,,,133753,0.0,fixation,80,poldrack-single-stim,
81,350.0,500.0,<img class = center src='/static/experiments/stop_signal_single_task_network/images/stopSignal.png'></img>,stop,,2000.0,,-1.0,0.0,0.0,2.0,stop_signal_single_task_network,,,,,,,0.0-3.0-5.0,77.0,"[90, 77]",,469,square,1000.0,<div class = bigbox><div class = centerbox><div class = gng_number><div class = cue-text><img class = center src='/static/experiments/stop_signal_single_task_network/images/square.png'></img></div>,0.0,stop,,135754,0.0,test_trial,81,stop-signal,
82,,,,,,500.0,,,,,,stop_signal_single_task_network,,,,,,,0.0-3.0-6.0,-1.0,none,,-1,,500.0,<div class = centerbox><div class = fixation>+</div></div>,,,,136256,0.0,fixation,82,poldrack-single-stim,
83,300.0,500.0,<img class = center src='/static/experiments/stop_signal_single_task_network/images/stopSignal.png'></img>,go,,2000.0,,77.0,1.0,0.0,3.0,stop_signal_single_task_network,,,,,,1.0,0.0-3.0-7.0,77.0,"[90, 77]",,523,square,1000.0,<div class = bigbox><div class = centerbox><div class = gng_number><div class = cue-text><img class = center src='/static/experiments/stop_signal_single_task_network/images/square.png'></img></div>,,go,,138258,0.0,test_trial,83,stop-signal,
84,,,,,,500.0,,,,,,stop_signal_single_task_network,,,,,,,0.0-3.0-8.0,-1.0,none,,-1,,500.0,<div class = centerbox><div class = fixation>+</div></div>,,,,138760,0.0,fixation,84,poldrack-single-stim,
85,300.0,500.0,<img class = center src='/static/experiments/stop_signal_single_task_network/images/stopSignal.png'></img>,go,,2000.0,,90.0,1.0,0.0,4.0,stop_signal_single_task_network,,,,,,1.0,0.0-3.0-9.0,90.0,"[90, 77]",,449,circle,1000.0,<div class = bigbox><div class = centerbox><div class = gng_number><div class = cue-text><img class = center src='/static/experiments/stop_signal_single_task_network/images/circle.png'></img></div>,,go,,140763,0.0,test_trial,85,stop-signal,
86,,,,,,500.0,,,,,,stop_signal_single_task_network,,,,,,,0.0-3.0-10.0,-1.0,none,,-1,,500.0,<div class = centerbox><div class = fixation>+</div></div>,,,,141265,0.0,fixation,86,poldrack-single-stim,
87,300.0,500.0,<img class = center src='/static/experiments/stop_signal_single_task_network/images/stopSignal.png'></img>,go,,2000.0,,90.0,1.0,0.0,5.0,stop_signal_single_task_network,,,,,,1.0,0.0-3.0-11.0,90.0,"[90, 77]",,629,circle,1000.0,<div class = bigbox><div class = centerbox><div class = gng_number><div class = cue-text><img class = center src='/static/experiments/stop_signal_single_task_network/images/circle.png'></img></div>,,go,,143267,0.0,test_trial,87,stop-signal,
88,,,,,,500.0,,,,,,stop_signal_single_task_network,,,,,,,0.0-3.0-12.0,-1.0,none,,-1,,500.0,<div class = centerbox><div class = fixation>+</div></div>,,,,143770,0.0,fixation,88,poldrack-single-stim,
89,300.0,500.0,<img class = center src='/static/experiments/stop_signal_single_task_network/images/stopSignal.png'></img>,go,,2000.0,,77.0,1.0,0.0,6.0,stop_signal_single_task_network,,,,,,1.0,0.0-3.0-13.0,77.0,"[90, 77]",,635,square,1000.0,<div class = bigbox><div class = centerbox><div class = gng_number><div class = cue-text><img class = center src='/static/experiments/stop_signal_single_task_network/images/square.png'></img></div>,,go,,145771,0.0,test_trial,89,stop-signal,
90,,,,,,500.0,,,,,,stop_signal_single_task_network,,,,,,,0.0-3.0-14.0,-1.0,none,,-1,,500.0,<div class = centerbox><div class = fixation>+</div></div>,,,,146274,0.0,fixation,90,poldrack-single-stim,
91,300.0,500.0,<img class = center src='/static/experiments/stop_signal_single_task_network/images/stopSignal.png'></img>,go,,2000.0,,77.0,1.0,0.0,7.0,stop_signal_single_task_network,,,,,,1.0,0.0-3.0-15.0,77.0,"[90, 77]",,684,square,1000.0,<div class = bigbox><div class = centerbox><div class = gng_number><div class = cue-text><img class = center src='/static/experiments/stop_signal_single_task_network/images/square.png'></img></div>,,go,,148275,0.0,test_trial,91,stop-signal,
92,,,,,,500.0,,,,,,stop_signal_single_task_network,,,,,,,0.0-3.0-16.0,-1.0,none,,-1,,500.0,<div class = centerbox><div class = fixation>+</div></div>,,,,148777,0.0,fixation,92,poldrack-single-stim,
93,300.0,500.0,<img class = center src='/static/experiments/stop_signal_single_task_network/images/stopSignal.png'></img>,go,,2000.0,,77.0,1.0,0.0,8.0,stop_signal_single_task_network,,,,,,1.0,0.0-3.0-17.0,77.0,"[90, 77]",,649,square,1000.0,<div class = bigbox><div class = centerbox><div class = gng_number><div class = cue-text><img class = center src='/static/experiments/stop_signal_single_task_network/images/square.png'></img></div>,,go,,150778,0.0,test_trial,93,stop-signal,
94,,,,,,500.0,,,,,,stop_signal_single_task_network,,,,,,,0.0-3.0-18.0,-1.0,none,,-1,,500.0,<div class = centerbox><div class = fixation>+</div></div>,,,,151281,0.0,fixation,94,poldrack-single-stim,
95,300.0,500.0,<img class = center src='/static/experiments/stop_signal_single_task_network/images/stopSignal.png'></img>,go,,2000.0,,77.0,1.0,0.0,9.0,stop_signal_single_task_network,,,,,,1.0,0.0-3.0-19.0,77.0,"[90, 77]",,612,square,1000.0,<div class = bigbox><div class = centerbox><div class = gng_number><div class = cue-text><img class = center src='/static/experiments/stop_signal_single_task_network/images/square.png'></img></div>,,go,,153285,0.0,test_trial,95,stop-signal,
96,,,,,,500.0,,,,,,stop_signal_single_task_network,,,,,,,0.0-3.0-20.0,-1.0,none,,-1,,500.0,<div class = centerbox><div class = fixation>+</div></div>,,,,153790,0.0,fixation,96,poldrack-single-stim,
97,300.0,500.0,<img class = center src='/static/experiments/stop_signal_single_task_network/images/stopSignal.png'></img>,go,,2000.0,,77.0,1.0,0.0,10.0,stop_signal_single_task_network,,,,,,1.0,0.0-3.0-21.0,77.0,"[90, 77]",,661,square,1000.0,<div class = bigbox><div class = centerbox><div class = gng_number><div class = cue-text><img class = center src='/static/experiments/stop_signal_single_task_network/images/square.png'></img></div>,,go,,155791,0.0,test_trial,97,stop-signal,
98,,,,,,500.0,,,,,,stop_signal_single_task_network,,,,,,,0.0-3.0-22.0,-1.0,none,,-1,,500.0,<div class = centerbox><div class = fixation>+</div></div>,,,,156294,0.0,fixation,98,poldrack-single-stim,
99,300.0,500.0,<img class = center src='/static/experiments/stop_signal_single_task_network/images/stopSignal.png'></img>,go,,2000.0,,90.0,1.0,0.0,11.0,stop_signal_single_task_network,,,,,,1.0,0.0-3.0-23.0,90.0,"[90, 77]",,639,circle,1000.0,<div class = bigbox><div class = centerbox><div class = gng_number><div class = cue-text><img class = center src='/static/experiments/stop_signal_single_task_network/images/circle.png'></img></div>,,go,,158299,0.0,test_trial,99,stop-signal,
100,,,,,,500.0,,,,,,stop_signal_single_task_network,,,,,,,0.0-3.0-24.0,-1.0,none,,-1,,500.0,<div class = centerbox><div class = fixation>+</div></div>,,,,158801,0.0,fixation,100,poldrack-single-stim,
101,300.0,500.0,<img class = center src='/static/experiments/stop_signal_single_task_network/images/stopSignal.png'></img>,stop,,2000.0,,-1.0,1.0,0.0,12.0,stop_signal_single_task_network,,,,,,,0.0-3.0-25.0,-1.0,"[90, 77]",,-1,square,1000.0,<div class = bigbox><div class = centerbox><div class = gng_number><div class = cue-text><img class = center src='/static/experiments/stop_signal_single_task_network/images/square.png'></img></div>,1.0,stop,,160805,0.0,test_trial,101,stop-signal,
102,,,,,,500.0,,,,,,stop_signal_single_task_network,,,,,,,0.0-3.0-26.0,-1.0,none,,-1,,500.0,<div class = centerbox><div class = fixation>+</div></div>,,,,161310,0.0,fixation,102,poldrack-single-stim,
103,350.0,500.0,<img class = center src='/static/experiments/stop_signal_single_task_network/images/stopSignal.png'></img>,go,,2000.0,,90.0,1.0,0.0,13.0,stop_signal_single_task_network,,,,,,1.0,0.0-3.0-27.0,90.0,"[90, 77]",,586,circle,1000.0,<div class = bigbox><div class = centerbox><div class = gng_number><div class = cue-text><img class = center src='/static/experiments/stop_signal_single_task_network/images/circle.png'></img></div>,,go,,163312,0.0,test_trial,103,stop-signal,
104,,,,,,500.0,,,,,,stop_signal_single_task_network,,,,,,,0.0-3.0-28.0,-1.0,none,,-1,,500.0,<div class = centerbox><div class = fixation>+</div></div>,,,,163816,0.0,fixation,104,poldrack-single-stim,
105,350.0,500.0,<img class = center src='/static/experiments/stop_signal_single_task_network/images/stopSignal.png'></img>,go,,2000.0,,77.0,1.0,0.0,14.0,stop_signal_single_task_network,,,,,,1.0,0.0-3.0-29.0,77.0,"[90, 77]",,533,square,1000.0,<div class = bigbox><div class = centerbox><div class = gng_number><div class = cue-text><img class = center src='/static/experiments/stop_signal_single_task_network/images/square.png'></img></div>,,go,,165817,0.0,test_trial,105,stop-signal,
106,,,,,,500.0,,,,,,stop_signal_single_task_network,,,,,,,0.0-3.0-30.0,-1.0,none,,-1,,500.0,<div class = centerbox><div class = fixation>+</div></div>,,,,166320,0.0,fixation,106,poldrack-single-stim,
107,350.0,500.0,<img class = center src='/static/experiments/stop_signal_single_task_network/images/stopSignal.png'></img>,stop,,2000.0,,-1.0,1.0,0.0,15.0,stop_signal_single_task_network,,,,,,,0.0-3.0-31.0,-1.0,"[90, 77]",,-1,circle,1000.0,<div class = bigbox><div class = centerbox><div class = gng_number><div class = cue-text><img class = center src='/static/experiments/stop_signal_single_task_network/images/circle.png'></img></div>,1.0,stop,,168322,0.0,test_trial,107,stop-signal,
108,,,,,,500.0,,,,,,stop_signal_single_task_network,,,,,,,0.0-3.0-32.0,-1.0,none,,-1,,500.0,<div class = centerbox><div class = fixation>+</div></div>,,,,168825,0.0,fixation,108,poldrack-single-stim,
109,400.0,500.0,<img class = center src='/static/experiments/stop_signal_single_task_network/images/stopSignal.png'></img>,stop,,2000.0,,-1.0,1.0,0.0,16.0,stop_signal_single_task_network,,,,,,,0.0-3.0-33.0,-1.0,"[90, 77]",,-1,square,1000.0,<div class = bigbox><div class = centerbox><div class = gng_number><div class = cue-text><img class = center src='/static/experiments/stop_signal_single_task_network/images/square.png'></img></div>,1.0,stop,,170830,0.0,test_trial,109,stop-signal,
110,,,,,,500.0,,,,,,stop_signal_single_task_network,,,,,,,0.0-3.0-34.0,-1.0,none,,-1,,500.0,<div class = centerbox><div class = fixation>+</div></div>,,,,171335,0.0,fixation,110,poldrack-single-stim,
111,450.0,500.0,<img class = center src='/static/experiments/stop_signal_single_task_network/images/stopSignal.png'></img>,stop,,2000.0,,-1.0,0.0,0.0,17.0,stop_signal_single_task_network,,,,,,,0.0-3.0-35.0,90.0,"[90, 77]",,678,circle,1000.0,<div class = bigbox><div class = centerbox><div class = gng_number><div class = cue-text><img class = center src='/static/experiments/stop_signal_single_task_network/images/circle.png'></img></div>,0.0,stop,,173336,0.0,test_trial,111,stop-signal,
112,,,,,,500.0,,,,,,stop_signal_single_task_network,,,,,,,0.0-3.0-36.0,-1.0,none,,-1,,500.0,<div class = centerbox><div class = fixation>+</div></div>,,,,173837,0.0,fixation,112,poldrack-single-stim,
113,400.0,500.0,<img class = center src='/static/experiments/stop_signal_single_task_network/images/stopSignal.png'></img>,go,,2000.0,,77.0,1.0,0.0,18.0,stop_signal_single_task_network,,,,,,1.0,0.0-3.0-37.0,77.0,"[90, 77]",,677,square,1000.0,<div class = bigbox><div class = centerbox><div class = gng_number><div class = cue-text><img class = center src='/static/experiments/stop_signal_single_task_network/images/square.png'></img></div>,,go,,175840,0.0,test_trial,113,stop-signal,
114,,,,,,500.0,,,,,,stop_signal_single_task_network,,,,,,,0.0-3.0-38.0,-1.0,none,,-1,,500.0,<div class = centerbox><div class = fixation>+</div></div>,,,,176343,0.0,fixation,114,poldrack-single-stim,
115,400.0,500.0,<img class = center src='/static/experiments/stop_signal_single_task_network/images/stopSignal.png'></img>,stop,,2000.0,,-1.0,0.0,0.0,19.0,stop_signal_single_task_network,,,,,,,0.0-3.0-39.0,90.0,"[90, 77]",,563,circle,1000.0,<div class = bigbox><div class = centerbox><div class = gng_number><div class = cue-text><img class = center src='/static/experiments/stop_signal_single_task_network/images/circle.png'></img></div>,0.0,stop,,178348,0.0,test_trial,115,stop-signal,
116,,,,,,500.0,,,,,,stop_signal_single_task_network,,,,,,,0.0-3.0-40.0,-1.0,none,,-1,,500.0,<div class = centerbox><div class = fixation>+</div></div>,,,,178851,0.0,fixation,116,poldrack-single-stim,
117,350.0,500.0,<img class = center src='/static/experiments/stop_signal_single_task_network/images/stopSignal.png'></img>,go,,2000.0,,77.0,1.0,0.0,20.0,stop_signal_single_task_network,,,,,,1.0,0.0-3.0-41.0,77.0,"[90, 77]",,752,square,1000.0,<div class = bigbox><div class = centerbox><div class = gng_number><div class = cue-text><img class = center src='/static/experiments/stop_signal_single_task_network/images/square.png'></img></div>,,go,,180854,0.0,test_trial,117,stop-signal,
118,,,,,,500.0,,,,,,stop_signal_single_task_network,,,,,,,0.0-3.0-42.0,-1.0,none,,-1,,500.0,<div class = centerbox><div class = fixation>+</div></div>,,,,181356,0.0,fixation,118,poldrack-single-stim,
119,350.0,500.0,<img class = center src='/static/experiments/stop_signal_single_task_network/images/stopSignal.png'></img>,go,,2000.0,,90.0,1.0,0.0,21.0,stop_signal_single_task_network,,,,,,1.0,0.0-3.0-43.0,90.0,"[90, 77]",,698,circle,1000.0,<div class = bigbox><div class = centerbox><div class = gng_number><div class = cue-text><img class = center src='/static/experiments/stop_signal_single_task_network/images/circle.png'></img></div>,,go,,183360,0.0,test_trial,119,stop-signal,
120,,,,,,500.0,,,,,,stop_signal_single_task_network,,,,,,,0.0-3.0-44.0,-1.0,none,,-1,,500.0,<div class = centerbox><div class = fixation>+</div></div>,,,,183861,0.0,fixation,120,poldrack-single-stim,
121,350.0,500.0,<img class = center src='/static/experiments/stop_signal_single_task_network/images/stopSignal.png'></img>,go,,2000.0,,77.0,1.0,0.0,22.0,stop_signal_single_task_network,,,,,,1.0,0.0-3.0-45.0,77.0,"[90, 77]",,684,square,1000.0,<div class = bigbox><div class = centerbox><div class = gng_number><div class = cue-text><img class = center src='/static/experiments/stop_signal_single_task_network/images/square.png'></img></div>,,go,,185862,0.0,test_trial,121,stop-signal,
122,,,,,,500.0,,,,,,stop_signal_single_task_network,,,,,,,0.0-3.0-46.0,-1.0,none,,-1,,500.0,<div class = centerbox><div class = fixation>+</div></div>,,,,186365,0.0,fixation,122,poldrack-single-stim,
123,350.0,500.0,<img class = center src='/static/experiments/stop_signal_single_task_network/images/stopSignal.png'></img>,go,,2000.0,,90.0,1.0,0.0,23.0,stop_signal_single_task_network,,,,,,1.0,0.0-3.0-47.0,90.0,"[90, 77]",,773,circle,1000.0,<div class = bigbox><div class = centerbox><div class = gng_number><div class = cue-text><img class = center src='/static/experiments/stop_signal_single_task_network/images/circle.png'></img></div>,,go,,188367,0.0,test_trial,123,stop-signal,
124,,,,,,500.0,,,,,,stop_signal_single_task_network,,,,,,,0.0-3.0-48.0,-1.0,none,,-1,,500.0,<div class = centerbox><div class = fixation>+</div></div>,,,,188868,0.0,fixation,124,poldrack-single-stim,
125,350.0,500.0,<img class = center src='/static/experiments/stop_signal_single_task_network/images/stopSignal.png'></img>,go,,2000.0,,90.0,1.0,0.0,24.0,stop_signal_single_task_network,,,,,,1.0,0.0-3.0-49.0,90.0,"[90, 77]",,627,circle,1000.0,<div class = bigbox><div class = centerbox><div class = gng_number><div class = cue-text><img class = center src='/static/experiments/stop_signal_single_task_network/images/circle.png'></img></div>,,go,,190870,0.0,test_trial,125,stop-signal,
126,,,,,,500.0,,,,,,stop_signal_single_task_network,,,,,,,0.0-3.0-50.0,-1.0,none,,-1,,500.0,<div class = centerbox><div class = fixation>+</div></div>,,,,191372,0.0,fixation,126,poldrack-single-stim,
127,350.0,500.0,<img class = center src='/static/experiments/stop_signal_single_task_network/images/stopSignal.png'></img>,go,,2000.0,,90.0,1.0,0.0,25.0,stop_signal_single_task_network,,,,,,1.0,0.0-3.0-51.0,90.0,"[90, 77]",,453,circle,1000.0,<div class = bigbox><div class = centerbox><div class = gng_number><div class = cue-text><img class = center src='/static/experiments/stop_signal_single_task_network/images/circle.png'></img></div>,,go,,193375,0.0,test_trial,127,stop-signal,
128,,,,,,500.0,,,,,,stop_signal_single_task_network,,,,,,,0.0-3.0-52.0,-1.0,none,,-1,,500.0,<div class = centerbox><div class = fixation>+</div></div>,,,,193877,0.0,fixation,128,poldrack-single-stim,
129,350.0,500.0,<img class = center src='/static/experiments/stop_signal_single_task_network/images/stopSignal.png'></img>,stop,,2000.0,,-1.0,1.0,0.0,26.0,stop_signal_single_task_network,,,,,,,0.0-3.0-53.0,-1.0,"[90, 77]",,-1,square,1000.0,<div class = bigbox><div class = centerbox><div class = gng_number><div class = cue-text><img class = center src='/static/experiments/stop_signal_single_task_network/images/square.png'></img></div>,1.0,stop,,195878,0.0,test_trial,129,stop-signal,
130,,,,,,500.0,,,,,,stop_signal_single_task_network,,,,,,,0.0-3.0-54.0,-1.0,none,,-1,,500.0,<div class = centerbox><div class = fixation>+</div></div>,,,,196381,0.0,fixation,130,poldrack-single-stim,
131,400.0,500.0,<img class = center src='/static/experiments/stop_signal_single_task_network/images/stopSignal.png'></img>,go,,2000.0,,90.0,1.0,0.0,27.0,stop_signal_single_task_network,,,,,,1.0,0.0-3.0-55.0,90.0,"[90, 77]",,541,circle,1000.0,<div class = bigbox><div class = centerbox><div class = gng_number><div class = cue-text><img class = center src='/static/experiments/stop_signal_single_task_network/images/circle.png'></img></div>,,go,,198385,0.0,test_trial,131,stop-signal,
132,,,,,,500.0,,,,,,stop_signal_single_task_network,,,,,,,0.0-3.0-56.0,-1.0,none,,-1,,500.0,<div class = centerbox><div class = fixation>+</div></div>,,,,198886,0.0,fixation,132,poldrack-single-stim,
133,400.0,500.0,<img class = center src='/static/experiments/stop_signal_single_task_network/images/stopSignal.png'></img>,go,,2000.0,,77.0,1.0,0.0,28.0,stop_signal_single_task_network,,,,,,1.0,0.0-3.0-57.0,77.0,"[90, 77]",,703,square,1000.0,<div class = bigbox><div class = centerbox><div class = gng_number><div class = cue-text><img class = center src='/static/experiments/stop_signal_single_task_network/images/square.png'></img></div>,,go,,200887,0.0,test_trial,133,stop-signal,
134,,,,,,500.0,,,,,,stop_signal_single_task_network,,,,,,,0.0-3.0-58.0,-1.0,none,,-1,,500.0,<div class = centerbox><div class = fixation>+</div></div>,,,,201392,0.0,fixation,134,poldrack-single-stim,
135,400.0,500.0,<img class = center src='/static/experiments/stop_signal_single_task_network/images/stopSignal.png'></img>,go,,2000.0,,77.0,1.0,0.0,29.0,stop_signal_single_task_network,,,,,,1.0,0.0-3.0-59.0,77.0,"[90, 77]",,664,square,1000.0,<div class = bigbox><div class = centerbox><div class = gng_number><div class = cue-text><img class = center src='/static/experiments/stop_signal_single_task_network/images/square.png'></img></div>,,go,,203395,0.0,test_trial,135,stop-signal,
136,,,,,,500.0,,,,,,stop_signal_single_task_network,,,,,,,0.0-3.0-60.0,-1.0,none,,-1,,500.0,<div class = centerbox><div class = fixation>+</div></div>,,,,203897,0.0,fixation,136,poldrack-single-stim,
137,400.0,500.0,<img class = center src='/static/experiments/stop_signal_single_task_network/images/stopSignal.png'></img>,stop,,2000.0,,-1.0,1.0,0.0,30.0,stop_signal_single_task_network,,,,,,,0.0-3.0-61.0,-1.0,"[90, 77]",,-1,square,1000.0,<div class = bigbox><div class = centerbox><div class = gng_number><div class = cue-text><img class = center src='/static/experiments/stop_signal_single_task_network/images/square.png'></img></div>,1.0,stop,,205902,0.0,test_trial,137,stop-signal,
138,,,,,,500.0,,,,,,stop_signal_single_task_network,,,,,,,0.0-3.0-62.0,-1.0,none,,-1,,500.0,<div class = centerbox><div class = fixation>+</div></div>,,,,206405,0.0,fixation,138,poldrack-single-stim,
139,450.0,500.0,<img class = center src='/static/experiments/stop_signal_single_task_network/images/stopSignal.png'></img>,go,,2000.0,,90.0,1.0,0.0,31.0,stop_signal_single_task_network,,,,,,1.0,0.0-3.0-63.0,90.0,"[90, 77]",,687,circle,1000.0,<div class = bigbox><div class = centerbox><div class = gng_number><div class = cue-text><img class = center src='/static/experiments/stop_signal_single_task_network/images/circle.png'></img></div>,,go,,208411,0.0,test_trial,139,stop-signal,
140,,,,,,500.0,,,,,,stop_signal_single_task_network,,,,,,,0.0-3.0-64.0,-1.0,none,,-1,,500.0,<div class = centerbox><div class = fixation>+</div></div>,,,,208912,0.0,fixation,140,poldrack-single-stim,
141,450.0,500.0,<img class = center src='/static/experiments/stop_signal_single_task_network/images/stopSignal.png'></img>,go,,2000.0,,90.0,0.0,0.0,32.0,stop_signal_single_task_network,,,,,,0.0,0.0-3.0-65.0,77.0,"[90, 77]",,875,circle,1000.0,<div class = bigbox><div class = centerbox><div class = gng_number><div class = cue-text><img class = center src='/static/experiments/stop_signal_single_task_network/images/circle.png'></img></div>,,go,,210914,0.0,test_trial,141,stop-signal,
142,,,,,,500.0,,,,,,stop_signal_single_task_network,,,,,,,0.0-3.0-66.0,-1.0,none,,-1,,500.0,<div class = centerbox><div class = fixation>+</div></div>,,,,211420,0.0,fixation,142,poldrack-single-stim,
143,450.0,500.0,<img class = center src='/static/experiments/stop_signal_single_task_network/images/stopSignal.png'></img>,stop,,2000.0,,-1.0,0.0,0.0,33.0,stop_signal_single_task_network,,,,,,,0.0-3.0-67.0,90.0,"[90, 77]",,578,circle,1000.0,<div class = bigbox><div class = centerbox><div class = gng_number><div class = cue-text><img class = center src='/static/experiments/stop_signal_single_task_network/images/circle.png'></img></div>,0.0,stop,,213427,0.0,test_trial,143,stop-signal,
144,,,,,,500.0,,,,,,stop_signal_single_task_network,,,,,,,0.0-3.0-68.0,-1.0,none,,-1,,500.0,<div class = centerbox><div class = fixation>+</div></div>,,,,213929,0.0,fixation,144,poldrack-single-stim,
145,400.0,500.0,<img class = center src='/static/experiments/stop_signal_single_task_network/images/stopSignal.png'></img>,stop,,2000.0,,-1.0,0.0,0.0,34.0,stop_signal_single_task_network,,,,,,,0.0-3.0-69.0,77.0,"[90, 77]",,610,square,1000.0,<div class = bigbox><div class = centerbox><div class = gng_number><div class = cue-text><img class = center src='/static/experiments/stop_signal_single_task_network/images/square.png'></img></div>,0.0,stop,,215931,0.0,test_trial,145,stop-signal,
146,,,,,,500.0,,,,,,stop_signal_single_task_network,,,,,,,0.0-3.0-70.0,-1.0,none,,-1,,500.0,<div class = centerbox><div class = fixation>+</div></div>,,,,216436,0.0,fixation,146,poldrack-single-stim,
147,350.0,500.0,<img class = center src='/static/experiments/stop_signal_single_task_network/images/stopSignal.png'></img>,go,,2000.0,,90.0,1.0,0.0,35.0,stop_signal_single_task_network,,,,,,1.0,0.0-3.0-71.0,90.0,"[90, 77]",,551,circle,1000.0,<div class = bigbox><div class = centerbox><div class = gng_number><div class = cue-text><img class = center src='/static/experiments/stop_signal_single_task_network/images/circle.png'></img></div>,,go,,218439,0.0,test_trial,147,stop-signal,
148,,,,,,500.0,,,,,,stop_signal_single_task_network,,,,,,,0.0-3.0-72.0,-1.0,none,,-1,,500.0,<div class = centerbox><div class = fixation>+</div></div>,,,,218943,0.0,fixation,148,poldrack-single-stim,
149,350.0,500.0,<img class = center src='/static/experiments/stop_signal_single_task_network/images/stopSignal.png'></img>,stop,,2000.0,,-1.0,1.0,0.0,36.0,stop_signal_single_task_network,,,,,,,0.0-3.0-73.0,-1.0,"[90, 77]",,-1,circle,1000.0,<div class = bigbox><div class = centerbox><div class = gng_number><div class = cue-text><img class = center src='/static/experiments/stop_signal_single_task_network/images/circle.png'></img></div>,1.0,stop,,220947,0.0,test_trial,149,stop-signal,
150,,,,,,500.0,,,,,,stop_signal_single_task_network,,,,,,,0.0-3.0-74.0,-1.0,none,,-1,,500.0,<div class = centerbox><div class = fixation>+</div></div>,,,,221448,0.0,fixation,150,poldrack-single-stim,
151,400.0,500.0,<img class = center src='/static/experiments/stop_signal_single_task_network/images/stopSignal.png'></img>,stop,,2000.0,,-1.0,1.0,0.0,37.0,stop_signal_single_task_network,,,,,,,0.0-3.0-75.0,-1.0,"[90, 77]",,-1,circle,1000.0,<div class = bigbox><div class = centerbox><div class = gng_number><div class = cue-text><img class = center src='/static/experiments/stop_signal_single_task_network/images/circle.png'></img></div>,1.0,stop,,223451,0.0,test_trial,151,stop-signal,
152,,,,,,500.0,,,,,,stop_signal_single_task_network,,,,,,,0.0-3.0-76.0,-1.0,none,,-1,,500.0,<div class = centerbox><div class = fixation>+</div></div>,,,,223952,0.0,fixation,152,poldrack-single-stim,
153,450.0,500.0,<img class = center src='/static/experiments/stop_signal_single_task_network/images/stopSignal.png'></img>,go,,2000.0,,90.0,1.0,0.0,38.0,stop_signal_single_task_network,,,,,,1.0,0.0-3.0-77.0,90.0,"[90, 77]",,710,circle,1000.0,<div class = bigbox><div class = centerbox><div class = gng_number><div class = cue-text><img class = center src='/static/experiments/stop_signal_single_task_network/images/circle.png'></img></div>,,go,,225955,0.0,test_trial,153,stop-signal,
154,,,,,,500.0,,,,,,stop_signal_single_task_network,,,,,,,0.0-3.0-78.0,-1.0,none,,-1,,500.0,<div class = centerbox><div class = fixation>+</div></div>,,,,226460,0.0,fixation,154,poldrack-single-stim,
155,450.0,500.0,<img class = center src='/static/experiments/stop_signal_single_task_network/images/stopSignal.png'></img>,go,,2000.0,,77.0,1.0,0.0,39.0,stop_signal_single_task_network,,,,,,1.0,0.0-3.0-79.0,77.0,"[90, 77]",,688,square,1000.0,<div class = bigbox><div class = centerbox><div class = gng_number><div class = cue-text><img class = center src='/static/experiments/stop_signal_single_task_network/images/square.png'></img></div>,,go,,228461,0.0,test_trial,155,stop-signal,
156,,,,,,500.0,,,,,,stop_signal_single_task_network,,,,,,,0.0-3.0-80.0,-1.0,none,,-1,,500.0,<div class = centerbox><div class = fixation>+</div></div>,,,,228962,0.0,fixation,156,poldrack-single-stim,
157,450.0,500.0,<img class = center src='/static/experiments/stop_signal_single_task_network/images/stopSignal.png'></img>,go,,2000.0,,77.0,0.0,0.0,40.0,stop_signal_single_task_network,,,,,,0.0,0.0-3.0-81.0,90.0,"[90, 77]",,610,square,1000.0,<div class = bigbox><div class = centerbox><div class = gng_number><div class = cue-text><img class = center src='/static/experiments/stop_signal_single_task_network/images/square.png'></img></div>,,go,,230964,0.0,test_trial,157,stop-signal,
158,,,,,,500.0,,,,,,stop_signal_single_task_network,,,,,,,0.0-3.0-82.0,-1.0,none,,-1,,500.0,<div class = centerbox><div class = fixation>+</div></div>,,,,231470,0.0,fixation,158,poldrack-single-stim,
159,450.0,500.0,<img class = center src='/static/experiments/stop_signal_single_task_network/images/stopSignal.png'></img>,go,,2000.0,,77.0,1.0,0.0,41.0,stop_signal_single_task_network,,,,,,1.0,0.0-3.0-83.0,77.0,"[90, 77]",,642,square,1000.0,<div class = bigbox><div class = centerbox><div class = gng_number><div class = cue-text><img class = center src='/static/experiments/stop_signal_single_task_network/images/square.png'></img></div>,,go,,233471,0.0,test_trial,159,stop-signal,
160,,,,,,500.0,,,,,,stop_signal_single_task_network,,,,,,,0.0-3.0-84.0,-1.0,none,,-1,,500.0,<div class = centerbox><div class = fixation>+</div></div>,,,,233976,0.0,fixation,160,poldrack-single-stim,
161,450.0,500.0,<img class = center src='/static/experiments/stop_signal_single_task_network/images/stopSignal.png'></img>,go,,2000.0,,90.0,1.0,0.0,42.0,stop_signal_single_task_network,,,,,,1.0,0.0-3.0-85.0,90.0,"[90, 77]",,678,circle,1000.0,<div class = bigbox><div class = centerbox><div class = gng_number><div class = cue-text><img class = center src='/static/experiments/stop_signal_single_task_network/images/circle.png'></img></div>,,go,,235979,0.0,test_trial,161,stop-signal,
162,,,,,,500.0,,,,,,stop_signal_single_task_network,,,,,,,0.0-3.0-86.0,-1.0,none,,-1,,500.0,<div class = centerbox><div class = fixation>+</div></div>,,,,236482,0.0,fixation,162,poldrack-single-stim,
163,450.0,500.0,<img class = center src='/static/experiments/stop_signal_single_task_network/images/stopSignal.png'></img>,go,,2000.0,,77.0,1.0,0.0,43.0,stop_signal_single_task_network,,,,,,1.0,0.0-3.0-87.0,77.0,"[90, 77]",,576,square,1000.0,<div class = bigbox><div class = centerbox><div class = gng_number><div class = cue-text><img class = center src='/static/experiments/stop_signal_single_task_network/images/square.png'></img></div>,,go,,238487,0.0,test_trial,163,stop-signal,
164,,,,,,500.0,,,,,,stop_signal_single_task_network,,,,,,,0.0-3.0-88.0,-1.0,none,,-1,,500.0,<div class = centerbox><div class = fixation>+</div></div>,,,,238992,0.0,fixation,164,poldrack-single-stim,
165,450.0,500.0,<img class = center src='/static/experiments/stop_signal_single_task_network/images/stopSignal.png'></img>,stop,,2000.0,,-1.0,0.0,0.0,44.0,stop_signal_single_task_network,,,,,,,0.0-3.0-89.0,90.0,"[90, 77]",,579,circle,1000.0,<div class = bigbox><div class = centerbox><div class = gng_number><div class = cue-text><img class = center src='/static/experiments/stop_signal_single_task_network/images/circle.png'></img></div>,0.0,stop,,240993,0.0,test_trial,165,stop-signal,
166,,,,,,500.0,,,,,,stop_signal_single_task_network,,,,,,,0.0-3.0-90.0,-1.0,none,,-1,,500.0,<div class = centerbox><div class = fixation>+</div></div>,,,,241499,0.0,fixation,166,poldrack-single-stim,
167,400.0,500.0,<img class = center src='/static/experiments/stop_signal_single_task_network/images/stopSignal.png'></img>,stop,,2000.0,,-1.0,1.0,0.0,45.0,stop_signal_single_task_network,,,,,,,0.0-3.0-91.0,-1.0,"[90, 77]",,-1,circle,1000.0,<div class = bigbox><div class = centerbox><div class = gng_number><div class = cue-text><img class = center src='/static/experiments/stop_signal_single_task_network/images/circle.png'></img></div>,1.0,stop,,243500,0.0,test_trial,167,stop-signal,
168,,,,,,500.0,,,,,,stop_signal_single_task_network,,,,,,,0.0-3.0-92.0,-1.0,none,,-1,,500.0,<div class = centerbox><div class = fixation>+</div></div>,,,,244004,0.0,fixation,168,poldrack-single-stim,
169,450.0,500.0,<img class = center src='/static/experiments/stop_signal_single_task_network/images/stopSignal.png'></img>,stop,,2000.0,,-1.0,1.0,0.0,46.0,stop_signal_single_task_network,,,,,,,0.0-3.0-93.0,-1.0,"[90, 77]",,-1,square,1000.0,<div class = bigbox><div class = centerbox><div class = gng_number><div class = cue-text><img class = center src='/static/experiments/stop_signal_single_task_network/images/square.png'></img></div>,1.0,stop,,246008,0.0,test_trial,169,stop-signal,
170,,,,,,500.0,,,,,,stop_signal_single_task_network,,,,,,,0.0-3.0-94.0,-1.0,none,,-1,,500.0,<div class = centerbox><div class = fixation>+</div></div>,,,,246512,0.0,fixation,170,poldrack-single-stim,
171,500.0,500.0,<img class = center src='/static/experiments/stop_signal_single_task_network/images/stopSignal.png'></img>,stop,,2000.0,,-1.0,0.0,0.0,47.0,stop_signal_single_task_network,,,,,,,0.0-3.0-95.0,77.0,"[90, 77]",,605,square,1000.0,<div class = bigbox><div class = centerbox><div class = gng_number><div class = cue-text><img class = center src='/static/experiments/stop_signal_single_task_network/images/square.png'></img></div>,0.0,stop,,248513,0.0,test_trial,171,stop-signal,
172,,,,,,500.0,,,,,,stop_signal_single_task_network,,,,,,,0.0-3.0-96.0,-1.0,none,,-1,,500.0,<div class = centerbox><div class = fixation>+</div></div>,,,,249017,0.0,fixation,172,poldrack-single-stim,
173,450.0,500.0,<img class = center src='/static/experiments/stop_signal_single_task_network/images/stopSignal.png'></img>,go,,2000.0,,90.0,1.0,0.0,48.0,stop_signal_single_task_network,,,,,,1.0,0.0-3.0-97.0,90.0,"[90, 77]",,874,circle,1000.0,<div class = bigbox><div class = centerbox><div class = gng_number><div class = cue-text><img class = center src='/static/experiments/stop_signal_single_task_network/images/circle.png'></img></div>,,go,,251019,0.0,test_trial,173,stop-signal,
174,,,,,,80931.0,,,,,,stop_signal_single_task_network,,,,,,,0.0-3.1-0.1,13.0,[13],,80931,,80931.0,"<div class = bigbox><div class = picture_box><p class = block-text><font color=""white""><br>Please take this time to read your feedback and to take a short break. Press enter to continue.</p><p class = block-text>You have completed: 1 out of 3 blocks of trials.</font></p></div></div>",,,,331954,0.0,practice-no-stop-feedback,174,poldrack-single-stim,
175,,,,,,4921.0,True,69.0,,,,stop_signal_single_task_network,,,,,,,0.0-3.1-1.1-0.1,69.0,[],,4921,,4921.0,"<p>If (7+1+4) is even, press the ""E"" key. Otherwise press the ""O"" key. </p>",,,,336876,200.0,attention_check,175,attention-check,
176,,,,,,500.0,,,,,,stop_signal_single_task_network,,,,,,,0.0-3.1-2.1,-1.0,none,,-1,,500.0,<div class = centerbox><div class = fixation>+</div></div>,,,,337580,0.0,fixation,176,poldrack-single-stim,
177,450.0,500.0,<img class = center src='/static/experiments/stop_signal_single_task_network/images/stopSignal.png'></img>,go,,2000.0,,77.0,1.0,1.0,1.0,stop_signal_single_task_network,,,,,,1.0,0.0-3.1-3.1,77.0,"[90, 77]",,600,square,1000.0,<div class = bigbox><div class = centerbox><div class = gng_number><div class = cue-text><img class = center src='/static/experiments/stop_signal_single_task_network/images/square.png'></img></div>,,go,,339583,0.0,test_trial,177,stop-signal,
178,,,,,,500.0,,,,,,stop_signal_single_task_network,,,,,,,0.0-3.1-4.1,-1.0,none,,-1,,500.0,<div class = centerbox><div class = fixation>+</div></div>,,,,340087,0.0,fixation,178,poldrack-single-stim,
179,450.0,500.0,<img class = center src='/static/experiments/stop_signal_single_task_network/images/stopSignal.png'></img>,stop,,2000.0,,-1.0,1.0,1.0,2.0,stop_signal_single_task_network,,,,,,,0.0-3.1-5.1,-1.0,"[90, 77]",,-1,square,1000.0,<div class = bigbox><div class = centerbox><div class = gng_number><div class = cue-text><img class = center src='/static/experiments/stop_signal_single_task_network/images/square.png'></img></div>,1.0,stop,,342089,0.0,test_trial,179,stop-signal,
180,,,,,,500.0,,,,,,stop_signal_single_task_network,,,,,,,0.0-3.1-6.1,-1.0,none,,-1,,500.0,<div class = centerbox><div class = fixation>+</div></div>,,,,342591,0.0,fixation,180,poldrack-single-stim,
181,500.0,500.0,<img class = center src='/static/experiments/stop_signal_single_task_network/images/stopSignal.png'></img>,go,,2000.0,,90.0,1.0,1.0,3.0,stop_signal_single_task_network,,,,,,1.0,0.0-3.1-7.1,90.0,"[90, 77]",,686,circle,1000.0,<div class = bigbox><div class = centerbox><div class = gng_number><div class = cue-text><img class = center src='/static/experiments/stop_signal_single_task_network/images/circle.png'></img></div>,,go,,344594,0.0,test_trial,181,stop-signal,
182,,,,,,500.0,,,,,,stop_signal_single_task_network,,,,,,,0.0-3.1-8.1,-1.0,none,,-1,,500.0,<div class = centerbox><div class = fixation>+</div></div>,,,,345096,0.0,fixation,182,poldrack-single-stim,
183,500.0,500.0,<img class = center src='/static/experiments/stop_signal_single_task_network/images/stopSignal.png'></img>,go,,2000.0,,90.0,1.0,1.0,4.0,stop_signal_single_task_network,,,,,,1.0,0.0-3.1-9.1,90.0,"[90, 77]",,718,circle,1000.0,<div class = bigbox><div class = centerbox><div class = gng_number><div class = cue-text><img class = center src='/static/experiments/stop_signal_single_task_network/images/circle.png'></img></div>,,go,,347099,0.0,test_trial,183,stop-signal,
184,,,,,,500.0,,,,,,stop_signal_single_task_network,,,,,,,0.0-3.1-10.1,-1.0,none,,-1,,500.0,<div class = centerbox><div class = fixation>+</div></div>,,,,347602,0.0,fixation,184,poldrack-single-stim,
185,500.0,500.0,<img class = center src='/static/experiments/stop_signal_single_task_network/images/stopSignal.png'></img>,go,,2000.0,,90.0,1.0,1.0,5.0,stop_signal_single_task_network,,,,,,1.0,0.0-3.1-11.1,90.0,"[90, 77]",,808,circle,1000.0,<div class = bigbox><div class = centerbox><div class = gng_number><div class = cue-text><img class = center src='/static/experiments/stop_signal_single_task_network/images/circle.png'></img></div>,,go,,349608,0.0,test_trial,185,stop-signal,
186,,,,,,500.0,,,,,,stop_signal_single_task_network,,,,,,,0.0-3.1-12.1,-1.0,none,,-1,,500.0,<div class = centerbox><div class = fixation>+</div></div>,,,,350109,0.0,fixation,186,poldrack-single-stim,
187,500.0,500.0,<img class = center src='/static/experiments/stop_signal_single_task_network/images/stopSignal.png'></img>,go,,2000.0,,90.0,1.0,1.0,6.0,stop_signal_single_task_network,,,,,,1.0,0.0-3.1-13.1,90.0,"[90, 77]",,660,circle,1000.0,<div class = bigbox><div class = centerbox><div class = gng_number><div class = cue-text><img class = center src='/static/experiments/stop_signal_single_task_network/images/circle.png'></img></div>,,go,,352113,0.0,test_trial,187,stop-signal,
188,,,,,,500.0,,,,,,stop_signal_single_task_network,,,,,,,0.0-3.1-14.1,-1.0,none,,-1,,500.0,<div class = centerbox><div class = fixation>+</div></div>,,,,352615,0.0,fixation,188,poldrack-single-stim,
189,500.0,500.0,<img class = center src='/static/experiments/stop_signal_single_task_network/images/stopSignal.png'></img>,go,,2000.0,,90.0,1.0,1.0,7.0,stop_signal_single_task_network,,,,,,1.0,0.0-3.1-15.1,90.0,"[90, 77]",,655,circle,1000.0,<div class = bigbox><div class = centerbox><div class = gng_number><div class = cue-text><img class = center src='/static/experiments/stop_signal_single_task_network/images/circle.png'></img></div>,,go,,354619,0.0,test_trial,189,stop-signal,
190,,,,,,500.0,,,,,,stop_signal_single_task_network,,,,,,,0.0-3.1-16.1,-1.0,none,,-1,,500.0,<div class = centerbox><div class = fixation>+</div></div>,,,,355124,0.0,fixation,190,poldrack-single-stim,
191,500.0,500.0,<img class = center src='/static/experiments/stop_signal_single_task_network/images/stopSignal.png'></img>,go,,2000.0,,90.0,1.0,1.0,8.0,stop_signal_single_task_network,,,,,,1.0,0.0-3.1-17.1,90.0,"[90, 77]",,592,circle,1000.0,<div class = bigbox><div class = centerbox><div class = gng_number><div class = cue-text><img class = center src='/static/experiments/stop_signal_single_task_network/images/circle.png'></img></div>,,go,,357128,0.0,test_trial,191,stop-signal,
192,,,,,,500.0,,,,,,stop_signal_single_task_network,,,,,,,0.0-3.1-18.1,-1.0,none,,-1,,500.0,<div class = centerbox><div class = fixation>+</div></div>,,,,357632,0.0,fixation,192,poldrack-single-stim,
193,500.0,500.0,<img class = center src='/static/experiments/stop_signal_single_task_network/images/stopSignal.png'></img>,go,,2000.0,,90.0,1.0,1.0,9.0,stop_signal_single_task_network,,,,,,1.0,0.0-3.1-19.1,90.0,"[90, 77]",,719,circle,1000.0,<div class = bigbox><div class = centerbox><div class = gng_number><div class = cue-text><img class = center src='/static/experiments/stop_signal_single_task_network/images/circle.png'></img></div>,,go,,359636,0.0,test_trial,193,stop-signal,
194,,,,,,500.0,,,,,,stop_signal_single_task_network,,,,,,,0.0-3.1-20.1,-1.0,none,,-1,,500.0,<div class = centerbox><div class = fixation>+</div></div>,,,,360138,0.0,fixation,194,poldrack-single-stim,
195,500.0,500.0,<img class = center src='/static/experiments/stop_signal_single_task_network/images/stopSignal.png'></img>,go,,2000.0,,77.0,1.0,1.0,10.0,stop_signal_single_task_network,,,,,,1.0,0.0-3.1-21.1,77.0,"[90, 77]",,749,square,1000.0,<div class = bigbox><div class = centerbox><div class = gng_number><div class = cue-text><img class = center src='/static/experiments/stop_signal_single_task_network/images/square.png'></img></div>,,go,,362139,0.0,test_trial,195,stop-signal,
196,,,,,,500.0,,,,,,stop_signal_single_task_network,,,,,,,0.0-3.1-22.1,-1.0,none,,-1,,500.0,<div class = centerbox><div class = fixation>+</div></div>,,,,362641,0.0,fixation,196,poldrack-single-stim,
197,500.0,500.0,<img class = center src='/static/experiments/stop_signal_single_task_network/images/stopSignal.png'></img>,stop,,2000.0,,-1.0,1.0,1.0,11.0,stop_signal_single_task_network,,,,,,,0.0-3.1-23.1,-1.0,"[90, 77]",,-1,square,1000.0,<div class = bigbox><div class = centerbox><div class = gng_number><div class = cue-text><img class = center src='/static/experiments/stop_signal_single_task_network/images/square.png'></img></div>,1.0,stop,,364645,0.0,test_trial,197,stop-signal,
198,,,,,,500.0,,,,,,stop_signal_single_task_network,,,,,,,0.0-3.1-24.1,-1.0,none,,-1,,500.0,<div class = centerbox><div class = fixation>+</div></div>,,,,365148,0.0,fixation,198,poldrack-single-stim,
199,550.0,500.0,<img class = center src='/static/experiments/stop_signal_single_task_network/images/stopSignal.png'></img>,stop,,2000.0,,-1.0,1.0,1.0,12.0,stop_signal_single_task_network,,,,,,,0.0-3.1-25.1,-1.0,"[90, 77]",,-1,square,1000.0,<div class = bigbox><div class = centerbox><div class = gng_number><div class = cue-text><img class = center src='/static/experiments/stop_signal_single_task_network/images/square.png'></img></div>,1.0,stop,,367151,0.0,test_trial,199,stop-signal,
200,,,,,,500.0,,,,,,stop_signal_single_task_network,,,,,,,0.0-3.1-26.1,-1.0,none,,-1,,500.0,<div class = centerbox><div class = fixation>+</div></div>,,,,367653,0.0,fixation,200,poldrack-single-stim,
201,600.0,500.0,<img class = center src='/static/experiments/stop_signal_single_task_network/images/stopSignal.png'></img>,go,,2000.0,,77.0,1.0,1.0,13.0,stop_signal_single_task_network,,,,,,1.0,0.0-3.1-27.1,77.0,"[90, 77]",,714,square,1000.0,<div class = bigbox><div class = centerbox><div class = gng_number><div class = cue-text><img class = center src='/static/experiments/stop_signal_single_task_network/images/square.png'></img></div>,,go,,369655,0.0,test_trial,201,stop-signal,
202,,,,,,500.0,,,,,,stop_signal_single_task_network,,,,,,,0.0-3.1-28.1,-1.0,none,,-1,,500.0,<div class = centerbox><div class = fixation>+</div></div>,,,,370160,0.0,fixation,202,poldrack-single-stim,
203,600.0,500.0,<img class = center src='/static/experiments/stop_signal_single_task_network/images/stopSignal.png'></img>,go,,2000.0,,90.0,1.0,1.0,14.0,stop_signal_single_task_network,,,,,,1.0,0.0-3.1-29.1,90.0,"[90, 77]",,859,circle,1000.0,<div class = bigbox><div class = centerbox><div class = gng_number><div class = cue-text><img class = center src='/static/experiments/stop_signal_single_task_network/images/circle.png'></img></div>,,go,,372164,0.0,test_trial,203,stop-signal,
204,,,,,,500.0,,,,,,stop_signal_single_task_network,,,,,,,0.0-3.1-30.1,-1.0,none,,-1,,500.0,<div class = centerbox><div class = fixation>+</div></div>,,,,372667,0.0,fixation,204,poldrack-single-stim,
205,600.0,500.0,<img class = center src='/static/experiments/stop_signal_single_task_network/images/stopSignal.png'></img>,stop,,2000.0,,-1.0,0.0,1.0,15.0,stop_signal_single_task_network,,,,,,,0.0-3.1-31.1,77.0,"[90, 77]",,718,square,1000.0,<div class = bigbox><div class = centerbox><div class = gng_number><div class = cue-text><img class = center src='/static/experiments/stop_signal_single_task_network/images/square.png'></img></div>,0.0,stop,,374671,0.0,test_trial,205,stop-signal,
206,,,,,,500.0,,,,,,stop_signal_single_task_network,,,,,,,0.0-3.1-32.1,-1.0,none,,-1,,500.0,<div class = centerbox><div class = fixation>+</div></div>,,,,375174,0.0,fixation,206,poldrack-single-stim,
207,550.0,500.0,<img class = center src='/static/experiments/stop_signal_single_task_network/images/stopSignal.png'></img>,go,,2000.0,,77.0,1.0,1.0,16.0,stop_signal_single_task_network,,,,,,1.0,0.0-3.1-33.1,77.0,"[90, 77]",,764,square,1000.0,<div class = bigbox><div class = centerbox><div class = gng_number><div class = cue-text><img class = center src='/static/experiments/stop_signal_single_task_network/images/square.png'></img></div>,,go,,377178,0.0,test_trial,207,stop-signal,
208,,,,,,500.0,,,,,,stop_signal_single_task_network,,,,,,,0.0-3.1-34.1,-1.0,none,,-1,,500.0,<div class = centerbox><div class = fixation>+</div></div>,,,,377680,0.0,fixation,208,poldrack-single-stim,
209,550.0,500.0,<img class = center src='/static/experiments/stop_signal_single_task_network/images/stopSignal.png'></img>,stop,,2000.0,,-1.0,1.0,1.0,17.0,stop_signal_single_task_network,,,,,,,0.0-3.1-35.1,-1.0,"[90, 77]",,-1,circle,1000.0,<div class = bigbox><div class = centerbox><div class = gng_number><div class = cue-text><img class = center src='/static/experiments/stop_signal_single_task_network/images/circle.png'></img></div>,1.0,stop,,379681,0.0,test_trial,209,stop-signal,
210,,,,,,500.0,,,,,,stop_signal_single_task_network,,,,,,,0.0-3.1-36.1,-1.0,none,,-1,,500.0,<div class = centerbox><div class = fixation>+</div></div>,,,,380183,0.0,fixation,210,poldrack-single-stim,
211,600.0,500.0,<img class = center src='/static/experiments/stop_signal_single_task_network/images/stopSignal.png'></img>,go,,2000.0,,77.0,1.0,1.0,18.0,stop_signal_single_task_network,,,,,,1.0,0.0-3.1-37.1,77.0,"[90, 77]",,730,square,1000.0,<div class = bigbox><div class = centerbox><div class = gng_number><div class = cue-text><img class = center src='/static/experiments/stop_signal_single_task_network/images/square.png'></img></div>,,go,,382184,0.0,test_trial,211,stop-signal,
212,,,,,,500.0,,,,,,stop_signal_single_task_network,,,,,,,0.0-3.1-38.1,-1.0,none,,-1,,500.0,<div class = centerbox><div class = fixation>+</div></div>,,,,382686,0.0,fixation,212,poldrack-single-stim,
213,600.0,500.0,<img class = center src='/static/experiments/stop_signal_single_task_network/images/stopSignal.png'></img>,stop,,2000.0,,-1.0,1.0,1.0,19.0,stop_signal_single_task_network,,,,,,,0.0-3.1-39.1,-1.0,"[90, 77]",,-1,square,1000.0,<div class = bigbox><div class = centerbox><div class = gng_number><div class = cue-text><img class = center src='/static/experiments/stop_signal_single_task_network/images/square.png'></img></div>,1.0,stop,,384688,0.0,test_trial,213,stop-signal,
214,,,,,,500.0,,,,,,stop_signal_single_task_network,,,,,,,0.0-3.1-40.1,-1.0,none,,-1,,500.0,<div class = centerbox><div class = fixation>+</div></div>,,,,385190,0.0,fixation,214,poldrack-single-stim,
215,650.0,500.0,<img class = center src='/static/experiments/stop_signal_single_task_network/images/stopSignal.png'></img>,go,,2000.0,,77.0,1.0,1.0,20.0,stop_signal_single_task_network,,,,,,1.0,0.0-3.1-41.1,77.0,"[90, 77]",,705,square,1000.0,<div class = bigbox><div class = centerbox><div class = gng_number><div class = cue-text><img class = center src='/static/experiments/stop_signal_single_task_network/images/square.png'></img></div>,,go,,387192,0.0,test_trial,215,stop-signal,
216,,,,,,500.0,,,,,,stop_signal_single_task_network,,,,,,,0.0-3.1-42.1,-1.0,none,,-1,,500.0,<div class = centerbox><div class = fixation>+</div></div>,,,,387694,0.0,fixation,216,poldrack-single-stim,
217,650.0,500.0,<img class = center src='/static/experiments/stop_signal_single_task_network/images/stopSignal.png'></img>,go,,2000.0,,90.0,1.0,1.0,21.0,stop_signal_single_task_network,,,,,,1.0,0.0-3.1-43.1,90.0,"[90, 77]",,687,circle,1000.0,<div class = bigbox><div class = centerbox><div class = gng_number><div class = cue-text><img class = center src='/static/experiments/stop_signal_single_task_network/images/circle.png'></img></div>,,go,,389697,0.0,test_trial,217,stop-signal,
218,,,,,,500.0,,,,,,stop_signal_single_task_network,,,,,,,0.0-3.1-44.1,-1.0,none,,-1,,500.0,<div class = centerbox><div class = fixation>+</div></div>,,,,390199,0.0,fixation,218,poldrack-single-stim,
219,650.0,500.0,<img class = center src='/static/experiments/stop_signal_single_task_network/images/stopSignal.png'></img>,stop,,2000.0,,-1.0,0.0,1.0,22.0,stop_signal_single_task_network,,,,,,,0.0-3.1-45.1,77.0,"[90, 77]",,813,square,1000.0,<div class = bigbox><div class = centerbox><div class = gng_number><div class = cue-text><img class = center src='/static/experiments/stop_signal_single_task_network/images/square.png'></img></div>,0.0,stop,,392205,0.0,test_trial,219,stop-signal,
220,,,,,,500.0,,,,,,stop_signal_single_task_network,,,,,,,0.0-3.1-46.1,-1.0,none,,-1,,500.0,<div class = centerbox><div class = fixation>+</div></div>,,,,392710,0.0,fixation,220,poldrack-single-stim,
221,600.0,500.0,<img class = center src='/static/experiments/stop_signal_single_task_network/images/stopSignal.png'></img>,go,,2000.0,,77.0,1.0,1.0,23.0,stop_signal_single_task_network,,,,,,1.0,0.0-3.1-47.1,77.0,"[90, 77]",,831,square,1000.0,<div class = bigbox><div class = centerbox><div class = gng_number><div class = cue-text><img class = center src='/static/experiments/stop_signal_single_task_network/images/square.png'></img></div>,,go,,394712,0.0,test_trial,221,stop-signal,
222,,,,,,500.0,,,,,,stop_signal_single_task_network,,,,,,,0.0-3.1-48.1,-1.0,none,,-1,,500.0,<div class = centerbox><div class = fixation>+</div></div>,,,,395214,0.0,fixation,222,poldrack-single-stim,
223,600.0,500.0,<img class = center src='/static/experiments/stop_signal_single_task_network/images/stopSignal.png'></img>,stop,,2000.0,,-1.0,0.0,1.0,24.0,stop_signal_single_task_network,,,,,,,0.0-3.1-49.1,90.0,"[90, 77]",,736,circle,1000.0,<div class = bigbox><div class = centerbox><div class = gng_number><div class = cue-text><img class = center src='/static/experiments/stop_signal_single_task_network/images/circle.png'></img></div>,0.0,stop,,397219,0.0,test_trial,223,stop-signal,
224,,,,,,500.0,,,,,,stop_signal_single_task_network,,,,,,,0.0-3.1-50.1,-1.0,none,,-1,,500.0,<div class = centerbox><div class = fixation>+</div></div>,,,,397722,0.0,fixation,224,poldrack-single-stim,
225,550.0,500.0,<img class = center src='/static/experiments/stop_signal_single_task_network/images/stopSignal.png'></img>,stop,,2000.0,,-1.0,1.0,1.0,25.0,stop_signal_single_task_network,,,,,,,0.0-3.1-51.1,-1.0,"[90, 77]",,-1,circle,1000.0,<div class = bigbox><div class = centerbox><div class = gng_number><div class = cue-text><img class = center src='/static/experiments/stop_signal_single_task_network/images/circle.png'></img></div>,1.0,stop,,399723,0.0,test_trial,225,stop-signal,
226,,,,,,500.0,,,,,,stop_signal_single_task_network,,,,,,,0.0-3.1-52.1,-1.0,none,,-1,,500.0,<div class = centerbox><div class = fixation>+</div></div>,,,,400224,0.0,fixation,226,poldrack-single-stim,
227,600.0,500.0,<img class = center src='/static/experiments/stop_signal_single_task_network/images/stopSignal.png'></img>,go,,2000.0,,77.0,1.0,1.0,26.0,stop_signal_single_task_network,,,,,,1.0,0.0-3.1-53.1,77.0,"[90, 77]",,850,square,1000.0,<div class = bigbox><div class = centerbox><div class = gng_number><div class = cue-text><img class = center src='/static/experiments/stop_signal_single_task_network/images/square.png'></img></div>,,go,,402226,0.0,test_trial,227,stop-signal,
228,,,,,,500.0,,,,,,stop_signal_single_task_network,,,,,,,0.0-3.1-54.1,-1.0,none,,-1,,500.0,<div class = centerbox><div class = fixation>+</div></div>,,,,402729,0.0,fixation,228,poldrack-single-stim,
229,600.0,500.0,<img class = center src='/static/experiments/stop_signal_single_task_network/images/stopSignal.png'></img>,stop,,2000.0,,-1.0,0.0,1.0,27.0,stop_signal_single_task_network,,,,,,,0.0-3.1-55.1,90.0,"[90, 77]",,716,circle,1000.0,<div class = bigbox><div class = centerbox><div class = gng_number><div class = cue-text><img class = center src='/static/experiments/stop_signal_single_task_network/images/circle.png'></img></div>,0.0,stop,,404730,0.0,test_trial,229,stop-signal,
230,,,,,,500.0,,,,,,stop_signal_single_task_network,,,,,,,0.0-3.1-56.1,-1.0,none,,-1,,500.0,<div class = centerbox><div class = fixation>+</div></div>,,,,405233,0.0,fixation,230,poldrack-single-stim,
231,550.0,500.0,<img class = center src='/static/experiments/stop_signal_single_task_network/images/stopSignal.png'></img>,go,,2000.0,,90.0,1.0,1.0,28.0,stop_signal_single_task_network,,,,,,1.0,0.0-3.1-57.1,90.0,"[90, 77]",,688,circle,1000.0,<div class = bigbox><div class = centerbox><div class = gng_number><div class = cue-text><img class = center src='/static/experiments/stop_signal_single_task_network/images/circle.png'></img></div>,,go,,407237,0.0,test_trial,231,stop-signal,
232,,,,,,500.0,,,,,,stop_signal_single_task_network,,,,,,,0.0-3.1-58.1,-1.0,none,,-1,,500.0,<div class = centerbox><div class = fixation>+</div></div>,,,,407739,0.0,fixation,232,poldrack-single-stim,
233,550.0,500.0,<img class = center src='/static/experiments/stop_signal_single_task_network/images/stopSignal.png'></img>,go,,2000.0,,77.0,1.0,1.0,29.0,stop_signal_single_task_network,,,,,,1.0,0.0-3.1-59.1,77.0,"[90, 77]",,777,square,1000.0,<div class = bigbox><div class = centerbox><div class = gng_number><div class = cue-text><img class = center src='/static/experiments/stop_signal_single_task_network/images/square.png'></img></div>,,go,,409740,0.0,test_trial,233,stop-signal,
234,,,,,,500.0,,,,,,stop_signal_single_task_network,,,,,,,0.0-3.1-60.1,-1.0,none,,-1,,500.0,<div class = centerbox><div class = fixation>+</div></div>,,,,410244,0.0,fixation,234,poldrack-single-stim,
235,550.0,500.0,<img class = center src='/static/experiments/stop_signal_single_task_network/images/stopSignal.png'></img>,go,,2000.0,,77.0,1.0,1.0,30.0,stop_signal_single_task_network,,,,,,1.0,0.0-3.1-61.1,77.0,"[90, 77]",,842,square,1000.0,<div class = bigbox><div class = centerbox><div class = gng_number><div class = cue-text><img class = center src='/static/experiments/stop_signal_single_task_network/images/square.png'></img></div>,,go,,412245,0.0,test_trial,235,stop-signal,
236,,,,,,500.0,,,,,,stop_signal_single_task_network,,,,,,,0.0-3.1-62.1,-1.0,none,,-1,,500.0,<div class = centerbox><div class = fixation>+</div></div>,,,,412746,0.0,fixation,236,poldrack-single-stim,
237,550.0,500.0,<img class = center src='/static/experiments/stop_signal_single_task_network/images/stopSignal.png'></img>,go,,2000.0,,77.0,1.0,1.0,31.0,stop_signal_single_task_network,,,,,,1.0,0.0-3.1-63.1,77.0,"[90, 77]",,739,square,1000.0,<div class = bigbox><div class = centerbox><div class = gng_number><div class = cue-text><img class = center src='/static/experiments/stop_signal_single_task_network/images/square.png'></img></div>,,go,,414747,0.0,test_trial,237,stop-signal,
238,,,,,,500.0,,,,,,stop_signal_single_task_network,,,,,,,0.0-3.1-64.1,-1.0,none,,-1,,500.0,<div class = centerbox><div class = fixation>+</div></div>,,,,415249,0.0,fixation,238,poldrack-single-stim,
239,550.0,500.0,<img class = center src='/static/experiments/stop_signal_single_task_network/images/stopSignal.png'></img>,go,,2000.0,,90.0,1.0,1.0,32.0,stop_signal_single_task_network,,,,,,1.0,0.0-3.1-65.1,90.0,"[90, 77]",,763,circle,1000.0,<div class = bigbox><div class = centerbox><div class = gng_number><div class = cue-text><img class = center src='/static/experiments/stop_signal_single_task_network/images/circle.png'></img></div>,,go,,417253,0.0,test_trial,239,stop-signal,
240,,,,,,500.0,,,,,,stop_signal_single_task_network,,,,,,,0.0-3.1-66.1,-1.0,none,,-1,,500.0,<div class = centerbox><div class = fixation>+</div></div>,,,,417757,0.0,fixation,240,poldrack-single-stim,
241,550.0,500.0,<img class = center src='/static/experiments/stop_signal_single_task_network/images/stopSignal.png'></img>,stop,,2000.0,,-1.0,0.0,1.0,33.0,stop_signal_single_task_network,,,,,,,0.0-3.1-67.1,90.0,"[90, 77]",,694,circle,1000.0,<div class = bigbox><div class = centerbox><div class = gng_number><div class = cue-text><img class = center src='/static/experiments/stop_signal_single_task_network/images/circle.png'></img></div>,0.0,stop,,419759,0.0,test_trial,241,stop-signal,
242,,,,,,500.0,,,,,,stop_signal_single_task_network,,,,,,,0.0-3.1-68.1,-1.0,none,,-1,,500.0,<div class = centerbox><div class = fixation>+</div></div>,,,,420261,0.0,fixation,242,poldrack-single-stim,
243,500.0,500.0,<img class = center src='/static/experiments/stop_signal_single_task_network/images/stopSignal.png'></img>,go,,2000.0,,77.0,1.0,1.0,34.0,stop_signal_single_task_network,,,,,,1.0,0.0-3.1-69.1,77.0,"[90, 77]",,841,square,1000.0,<div class = bigbox><div class = centerbox><div class = gng_number><div class = cue-text><img class = center src='/static/experiments/stop_signal_single_task_network/images/square.png'></img></div>,,go,,422263,0.0,test_trial,243,stop-signal,
244,,,,,,500.0,,,,,,stop_signal_single_task_network,,,,,,,0.0-3.1-70.1,-1.0,none,,-1,,500.0,<div class = centerbox><div class = fixation>+</div></div>,,,,422766,0.0,fixation,244,poldrack-single-stim,
245,500.0,500.0,<img class = center src='/static/experiments/stop_signal_single_task_network/images/stopSignal.png'></img>,stop,,2000.0,,-1.0,1.0,1.0,35.0,stop_signal_single_task_network,,,,,,,0.0-3.1-71.1,-1.0,"[90, 77]",,-1,circle,1000.0,<div class = bigbox><div class = centerbox><div class = gng_number><div class = cue-text><img class = center src='/static/experiments/stop_signal_single_task_network/images/circle.png'></img></div>,1.0,stop,,424767,0.0,test_trial,245,stop-signal,
246,,,,,,500.0,,,,,,stop_signal_single_task_network,,,,,,,0.0-3.1-72.1,-1.0,none,,-1,,500.0,<div class = centerbox><div class = fixation>+</div></div>,,,,425269,0.0,fixation,246,poldrack-single-stim,
247,550.0,500.0,<img class = center src='/static/experiments/stop_signal_single_task_network/images/stopSignal.png'></img>,go,,2000.0,,90.0,1.0,1.0,36.0,stop_signal_single_task_network,,,,,,1.0,0.0-3.1-73.1,90.0,"[90, 77]",,745,circle,1000.0,<div class = bigbox><div class = centerbox><div class = gng_number><div class = cue-text><img class = center src='/static/experiments/stop_signal_single_task_network/images/circle.png'></img></div>,,go,,427271,0.0,test_trial,247,stop-signal,
248,,,,,,500.0,,,,,,stop_signal_single_task_network,,,,,,,0.0-3.1-74.1,-1.0,none,,-1,,500.0,<div class = centerbox><div class = fixation>+</div></div>,,,,427775,0.0,fixation,248,poldrack-single-stim,
249,550.0,500.0,<img class = center src='/static/experiments/stop_signal_single_task_network/images/stopSignal.png'></img>,go,,2000.0,,90.0,1.0,1.0,37.0,stop_signal_single_task_network,,,,,,1.0,0.0-3.1-75.1,90.0,"[90, 77]",,975,circle,1000.0,<div class = bigbox><div class = centerbox><div class = gng_number><div class = cue-text><img class = center src='/static/experiments/stop_signal_single_task_network/images/circle.png'></img></div>,,go,,429778,0.0,test_trial,249,stop-signal,
250,,,,,,500.0,,,,,,stop_signal_single_task_network,,,,,,,0.0-3.1-76.1,-1.0,none,,-1,,500.0,<div class = centerbox><div class = fixation>+</div></div>,,,,430278,0.0,fixation,250,poldrack-single-stim,
251,550.0,500.0,<img class = center src='/static/experiments/stop_signal_single_task_network/images/stopSignal.png'></img>,stop,,2000.0,,-1.0,0.0,1.0,38.0,stop_signal_single_task_network,,,,,,,0.0-3.1-77.1,90.0,"[90, 77]",,581,circle,1000.0,<div class = bigbox><div class = centerbox><div class = gng_number><div class = cue-text><img class = center src='/static/experiments/stop_signal_single_task_network/images/circle.png'></img></div>,0.0,stop,,432279,0.0,test_trial,251,stop-signal,
252,,,,,,500.0,,,,,,stop_signal_single_task_network,,,,,,,0.0-3.1-78.1,-1.0,none,,-1,,500.0,<div class = centerbox><div class = fixation>+</div></div>,,,,432781,0.0,fixation,252,poldrack-single-stim,
253,500.0,500.0,<img class = center src='/static/experiments/stop_signal_single_task_network/images/stopSignal.png'></img>,stop,,2000.0,,-1.0,0.0,1.0,39.0,stop_signal_single_task_network,,,,,,,0.0-3.1-79.1,77.0,"[90, 77]",,699,square,1000.0,<div class = bigbox><div class = centerbox><div class = gng_number><div class = cue-text><img class = center src='/static/experiments/stop_signal_single_task_network/images/square.png'></img></div>,0.0,stop,,434784,0.0,test_trial,253,stop-signal,
254,,,,,,500.0,,,,,,stop_signal_single_task_network,,,,,,,0.0-3.1-80.1,-1.0,none,,-1,,500.0,<div class = centerbox><div class = fixation>+</div></div>,,,,435287,0.0,fixation,254,poldrack-single-stim,
255,450.0,500.0,<img class = center src='/static/experiments/stop_signal_single_task_network/images/stopSignal.png'></img>,stop,,2000.0,,-1.0,1.0,1.0,40.0,stop_signal_single_task_network,,,,,,,0.0-3.1-81.1,-1.0,"[90, 77]",,-1,square,1000.0,<div class = bigbox><div class = centerbox><div class = gng_number><div class = cue-text><img class = center src='/static/experiments/stop_signal_single_task_network/images/square.png'></img></div>,1.0,stop,,437289,0.0,test_trial,255,stop-signal,
256,,,,,,500.0,,,,,,stop_signal_single_task_network,,,,,,,0.0-3.1-82.1,-1.0,none,,-1,,500.0,<div class = centerbox><div class = fixation>+</div></div>,,,,437791,0.0,fixation,256,poldrack-single-stim,
257,500.0,500.0,<img class = center src='/static/experiments/stop_signal_single_task_network/images/stopSignal.png'></img>,go,,2000.0,,77.0,1.0,1.0,41.0,stop_signal_single_task_network,,,,,,1.0,0.0-3.1-83.1,77.0,"[90, 77]",,680,square,1000.0,<div class = bigbox><div class = centerbox><div class = gng_number><div class = cue-text><img class = center src='/static/experiments/stop_signal_single_task_network/images/square.png'></img></div>,,go,,439792,0.0,test_trial,257,stop-signal,
258,,,,,,500.0,,,,,,stop_signal_single_task_network,,,,,,,0.0-3.1-84.1,-1.0,none,,-1,,500.0,<div class = centerbox><div class = fixation>+</div></div>,,,,440297,0.0,fixation,258,poldrack-single-stim,
259,500.0,500.0,<img class = center src='/static/experiments/stop_signal_single_task_network/images/stopSignal.png'></img>,go,,2000.0,,90.0,1.0,1.0,42.0,stop_signal_single_task_network,,,,,,1.0,0.0-3.1-85.1,90.0,"[90, 77]",,734,circle,1000.0,<div class = bigbox><div class = centerbox><div class = gng_number><div class = cue-text><img class = center src='/static/experiments/stop_signal_single_task_network/images/circle.png'></img></div>,,go,,442298,0.0,test_trial,259,stop-signal,
260,,,,,,500.0,,,,,,stop_signal_single_task_network,,,,,,,0.0-3.1-86.1,-1.0,none,,-1,,500.0,<div class = centerbox><div class = fixation>+</div></div>,,,,442799,0.0,fixation,260,poldrack-single-stim,
261,500.0,500.0,<img class = center src='/static/experiments/stop_signal_single_task_network/images/stopSignal.png'></img>,go,,2000.0,,77.0,1.0,1.0,43.0,stop_signal_single_task_network,,,,,,1.0,0.0-3.1-87.1,77.0,"[90, 77]",,757,square,1000.0,<div class = bigbox><div class = centerbox><div class = gng_number><div class = cue-text><img class = center src='/static/experiments/stop_signal_single_task_network/images/square.png'></img></div>,,go,,444801,0.0,test_trial,261,stop-signal,
262,,,,,,500.0,,,,,,stop_signal_single_task_network,,,,,,,0.0-3.1-88.1,-1.0,none,,-1,,500.0,<div class = centerbox><div class = fixation>+</div></div>,,,,445303,0.0,fixation,262,poldrack-single-stim,
263,500.0,500.0,<img class = center src='/static/experiments/stop_signal_single_task_network/images/stopSignal.png'></img>,go,,2000.0,,90.0,1.0,1.0,44.0,stop_signal_single_task_network,,,,,,1.0,0.0-3.1-89.1,90.0,"[90, 77]",,827,circle,1000.0,<div class = bigbox><div class = centerbox><div class = gng_number><div class = cue-text><img class = center src='/static/experiments/stop_signal_single_task_network/images/circle.png'></img></div>,,go,,447307,0.0,test_trial,263,stop-signal,
264,,,,,,500.0,,,,,,stop_signal_single_task_network,,,,,,,0.0-3.1-90.1,-1.0,none,,-1,,500.0,<div class = centerbox><div class = fixation>+</div></div>,,,,447810,0.0,fixation,264,poldrack-single-stim,
265,500.0,500.0,<img class = center src='/static/experiments/stop_signal_single_task_network/images/stopSignal.png'></img>,go,,2000.0,,77.0,1.0,1.0,45.0,stop_signal_single_task_network,,,,,,1.0,0.0-3.1-91.1,77.0,"[90, 77]",,729,square,1000.0,<div class = bigbox><div class = centerbox><div class = gng_number><div class = cue-text><img class = center src='/static/experiments/stop_signal_single_task_network/images/square.png'></img></div>,,go,,449811,0.0,test_trial,265,stop-signal,
266,,,,,,500.0,,,,,,stop_signal_single_task_network,,,,,,,0.0-3.1-92.1,-1.0,none,,-1,,500.0,<div class = centerbox><div class = fixation>+</div></div>,,,,450314,0.0,fixation,266,poldrack-single-stim,
267,500.0,500.0,<img class = center src='/static/experiments/stop_signal_single_task_network/images/stopSignal.png'></img>,stop,,2000.0,,-1.0,0.0,1.0,46.0,stop_signal_single_task_network,,,,,,,0.0-3.1-93.1,90.0,"[90, 77]",,676,circle,1000.0,<div class = bigbox><div class = centerbox><div class = gng_number><div class = cue-text><img class = center src='/static/experiments/stop_signal_single_task_network/images/circle.png'></img></div>,0.0,stop,,452317,0.0,test_trial,267,stop-signal,
268,,,,,,500.0,,,,,,stop_signal_single_task_network,,,,,,,0.0-3.1-94.1,-1.0,none,,-1,,500.0,<div class = centerbox><div class = fixation>+</div></div>,,,,452818,0.0,fixation,268,poldrack-single-stim,
269,450.0,500.0,<img class = center src='/static/experiments/stop_signal_single_task_network/images/stopSignal.png'></img>,go,,2000.0,,77.0,1.0,1.0,47.0,stop_signal_single_task_network,,,,,,1.0,0.0-3.1-95.1,77.0,"[90, 77]",,815,square,1000.0,<div class = bigbox><div class = centerbox><div class = gng_number><div class = cue-text><img class = center src='/static/experiments/stop_signal_single_task_network/images/square.png'></img></div>,,go,,454820,0.0,test_trial,269,stop-signal,
270,,,,,,500.0,,,,,,stop_signal_single_task_network,,,,,,,0.0-3.1-96.1,-1.0,none,,-1,,500.0,<div class = centerbox><div class = fixation>+</div></div>,,,,455325,0.0,fixation,270,poldrack-single-stim,
271,450.0,500.0,<img class = center src='/static/experiments/stop_signal_single_task_network/images/stopSignal.png'></img>,go,,2000.0,,90.0,1.0,1.0,48.0,stop_signal_single_task_network,,,,,,1.0,0.0-3.1-97.1,90.0,"[90, 77]",,891,circle,1000.0,<div class = bigbox><div class = centerbox><div class = gng_number><div class = cue-text><img class = center src='/static/experiments/stop_signal_single_task_network/images/circle.png'></img></div>,,go,,457327,0.0,test_trial,271,stop-signal,
272,,,,,,2138.0,,,,,,stop_signal_single_task_network,,,,,,,0.0-3.2-0.2,13.0,[13],,2138,,2138.0,"<div class = bigbox><div class = picture_box><p class = block-text><font color=""white""><br>Please take this time to read your feedback and to take a short break. Press enter to continue.</p><p class = block-text>You have completed: 2 out of 3 blocks of trials.</font></p></div></div>",,,,459468,0.0,practice-no-stop-feedback,272,poldrack-single-stim,
