,SSD_diff,SSD_neutral,SSD_same,SS_delay,SS_duration,SS_stimulus,SS_trial_type,att_check_percent,block_duration,correct,correct_response,correct_trial,current_block,current_trial,distractor,exp_id,final_accuracy,final_avg_rt,final_credit_var,final_missed_percent,final_responses_ok,internal_node_id,key_press,possible_responses,probe,responses,rt,shape_matching_condition,stim_duration,stimulus,stop_acc,stop_signal_condition,target,text,time_elapsed,timing_post_trial,trial_id,trial_index,trial_type,view_history
0,,,,,,,,,2961.0,,,,,,,stop_signal_with_shape_matching,,,,,,0.0-0.0-0.0,13.0,[13],,,2961,,2961.0,<div class = bigbox><div class = picture_box><p class = block-text>Welcome to the experiment. This experiment will take about 20 minutes. Press <i>enter</i> to begin.</p></div></div>,,,,,2962,0.0,feedback_block,0,poldrack-single-stim,
1,,,,,,,,,,,,,,,,stop_signal_with_shape_matching,,,,,,0.0-0.0-1.0,,,,,274614,,,,,,,,277577,,instruction,1,poldrack-instructions,"[{""page_index"":0,""viewing_time"":257512},{""page_index"":1,""viewing_time"":10744},{""page_index"":2,""viewing_time"":6358}]"
2,,,,,,,,,500.0,,,,,,,stop_signal_with_shape_matching,,,,,,0.0-0.0-2.0,-1.0,none,,,-1,,500.0,"<div class = bigbox><div class = leftbox><img class = center src=""/static/experiments/stop_signal_with_shape_matching/images/mask.png""></img><div class = centerbox><div class = fixation>+</div></div></div><div class = rightbox><img class = center src=""/static/experiments/stop_signal_with_shape_matching/images/mask.png""></img><div class = centerbox><div class = fixation>+</div></div></div></div>",,,,,279080,0.0,practice_mask,2,poldrack-single-stim,
3,350.0,350.0,350.0,350.0,500.0,"<div class = starbox><img class = center src=""/static/experiments/stop_signal_with_shape_matching/images/stopSignal.png""></img></div>",go,,2000.0,,77.0,1.0,0.0,1.0,5,stop_signal_with_shape_matching,,,,,,0.0-0.0-3.0,77.0,"[77, 90]",5.0,,887,SSS,1000.0,"<div class = bigbox><div class = leftbox><img class = center src=""/static/experiments/stop_signal_with_shape_matching/images/5_green.png""></img></div><div class = distractorbox><img class = center src=""/static/experiments/stop_signal_with_shape_matching/images/5_red.png""></img></div><div class = rightbox><img class = center src=""/static/experiments/stop_signal_with_shape_matching/images/5_white.png""></img></div></div>",,go,5.0,,281083,0.0,practice_trial,3,stop-signal,
4,,,,,,,,,500.0,,,,,,,stop_signal_with_shape_matching,,,,,,0.0-0.0-4.0,-1.0,none,,,-1,,500.0,"<div class = fb_box><div class = center-text><font size = 20>Correct!</font></div></div><div class = prompt_box><p class = center-block-text style = ""font-size:16px; line-height:80%;"">Respond if the green and white shapes are the same or different!</p><p class = center-block-text style = ""font-size:16px; line-height:80%;"">Same: M Key</p><p class = center-block-text style = ""font-size:16px; line-height:80%;"">Different: Z Key</p><p class = center-block-text style = ""font-size:16px; line-height:80%;"">Do not respond if you see a star around the white shape</p><p class = center-block-text style = ""font-size:16px; line-height:80%;"">Do not slow down your responses to the shape to wait for the star.</p></div>",,,,,281585,0.0,practice-stop-feedback,4,poldrack-single-stim,
5,,,,,,,,,500.0,,,,,,,stop_signal_with_shape_matching,,,,,,0.0-0.0-5.0,-1.0,none,,,-1,,500.0,"<div class = bigbox><div class = leftbox><img class = center src=""/static/experiments/stop_signal_with_shape_matching/images/mask.png""></img><div class = centerbox><div class = fixation>+</div></div></div><div class = rightbox><img class = center src=""/static/experiments/stop_signal_with_shape_matching/images/mask.png""></img><div class = centerbox><div class = fixation>+</div></div></div></div>",,,,,282088,0.0,practice_mask,5,poldrack-single-stim,
6,350.0,350.0,350.0,350.0,500.0,"<div class = starbox><img class = center src=""/static/experiments/stop_signal_with_shape_matching/images/stopSignal.png""></img></div>",go,,2000.0,,90.0,1.0,0.0,2.0,none,stop_signal_with_shape_matching,,,,,,0.0-0.0-6.0,90.0,"[77, 90]",5.0,,567,DNN,1000.0,"<div class = bigbox><div class = leftbox><img class = center src=""/static/experiments/stop_signal_with_shape_matching/images/8_green.png""></img></div><div class = distractorbox></div><div class = rightbox><img class = center src=""/static/experiments/stop_signal_with_shape_matching/images/5_white.png""></img></div></div>",,go,8.0,,284091,0.0,practice_trial,6,stop-signal,
7,,,,,,,,,500.0,,,,,,,stop_signal_with_shape_matching,,,,,,0.0-0.0-7.0,-1.0,none,,,-1,,500.0,"<div class = fb_box><div class = center-text><font size = 20>Correct!</font></div></div><div class = prompt_box><p class = center-block-text style = ""font-size:16px; line-height:80%;"">Respond if the green and white shapes are the same or different!</p><p class = center-block-text style = ""font-size:16px; line-height:80%;"">Same: M Key</p><p class = center-block-text style = ""font-size:16px; line-height:80%;"">Different: Z Key</p><p class = center-block-text style = ""font-size:16px; line-height:80%;"">Do not respond if you see a star around the white shape</p><p class = center-block-text style = ""font-size:16px; line-height:80%;"">Do not slow down your responses to the shape to wait for the star.</p></div>",,,,,284594,0.0,practice-stop-feedback,7,poldrack-single-stim,
8,,,,,,,,,500.0,,,,,,,stop_signal_with_shape_matching,,,,,,0.0-0.0-8.0,-1.0,none,,,-1,,500.0,"<div class = bigbox><div class = leftbox><img class = center src=""/static/experiments/stop_signal_with_shape_matching/images/mask.png""></img><div class = centerbox><div class = fixation>+</div></div></div><div class = rightbox><img class = center src=""/static/experiments/stop_signal_with_shape_matching/images/mask.png""></img><div class = centerbox><div class = fixation>+</div></div></div></div>",,,,,285096,0.0,practice_mask,8,poldrack-single-stim,
9,350.0,350.0,350.0,350.0,500.0,"<div class = starbox><img class = center src=""/static/experiments/stop_signal_with_shape_matching/images/stopSignal.png""></img></div>",go,,2000.0,,90.0,1.0,0.0,3.0,10,stop_signal_with_shape_matching,,,,,,0.0-0.0-9.0,90.0,"[77, 90]",10.0,,647,DDS,1000.0,"<div class = bigbox><div class = leftbox><img class = center src=""/static/experiments/stop_signal_with_shape_matching/images/8_green.png""></img></div><div class = distractorbox><img class = center src=""/static/experiments/stop_signal_with_shape_matching/images/10_red.png""></img></div><div class = rightbox><img class = center src=""/static/experiments/stop_signal_with_shape_matching/images/10_white.png""></img></div></div>",,go,8.0,,287099,0.0,practice_trial,9,stop-signal,
10,,,,,,,,,500.0,,,,,,,stop_signal_with_shape_matching,,,,,,0.0-0.0-10.0,-1.0,none,,,-1,,500.0,"<div class = fb_box><div class = center-text><font size = 20>Correct!</font></div></div><div class = prompt_box><p class = center-block-text style = ""font-size:16px; line-height:80%;"">Respond if the green and white shapes are the same or different!</p><p class = center-block-text style = ""font-size:16px; line-height:80%;"">Same: M Key</p><p class = center-block-text style = ""font-size:16px; line-height:80%;"">Different: Z Key</p><p class = center-block-text style = ""font-size:16px; line-height:80%;"">Do not respond if you see a star around the white shape</p><p class = center-block-text style = ""font-size:16px; line-height:80%;"">Do not slow down your responses to the shape to wait for the star.</p></div>",,,,,287601,0.0,practice-stop-feedback,10,poldrack-single-stim,
11,,,,,,,,,500.0,,,,,,,stop_signal_with_shape_matching,,,,,,0.0-0.0-11.0,-1.0,none,,,-1,,500.0,"<div class = bigbox><div class = leftbox><img class = center src=""/static/experiments/stop_signal_with_shape_matching/images/mask.png""></img><div class = centerbox><div class = fixation>+</div></div></div><div class = rightbox><img class = center src=""/static/experiments/stop_signal_with_shape_matching/images/mask.png""></img><div class = centerbox><div class = fixation>+</div></div></div></div>",,,,,288104,0.0,practice_mask,11,poldrack-single-stim,
12,350.0,350.0,350.0,350.0,500.0,"<div class = starbox><img class = center src=""/static/experiments/stop_signal_with_shape_matching/images/stopSignal.png""></img></div>",go,,2000.0,,77.0,1.0,0.0,4.0,6,stop_signal_with_shape_matching,,,,,,0.0-0.0-12.0,77.0,"[77, 90]",5.0,,687,SDD,1000.0,"<div class = bigbox><div class = leftbox><img class = center src=""/static/experiments/stop_signal_with_shape_matching/images/5_green.png""></img></div><div class = distractorbox><img class = center src=""/static/experiments/stop_signal_with_shape_matching/images/6_red.png""></img></div><div class = rightbox><img class = center src=""/static/experiments/stop_signal_with_shape_matching/images/5_white.png""></img></div></div>",,go,5.0,,290107,0.0,practice_trial,12,stop-signal,
13,,,,,,,,,500.0,,,,,,,stop_signal_with_shape_matching,,,,,,0.0-0.0-13.0,-1.0,none,,,-1,,500.0,"<div class = fb_box><div class = center-text><font size = 20>Correct!</font></div></div><div class = prompt_box><p class = center-block-text style = ""font-size:16px; line-height:80%;"">Respond if the green and white shapes are the same or different!</p><p class = center-block-text style = ""font-size:16px; line-height:80%;"">Same: M Key</p><p class = center-block-text style = ""font-size:16px; line-height:80%;"">Different: Z Key</p><p class = center-block-text style = ""font-size:16px; line-height:80%;"">Do not respond if you see a star around the white shape</p><p class = center-block-text style = ""font-size:16px; line-height:80%;"">Do not slow down your responses to the shape to wait for the star.</p></div>",,,,,290610,0.0,practice-stop-feedback,13,poldrack-single-stim,
14,,,,,,,,,500.0,,,,,,,stop_signal_with_shape_matching,,,,,,0.0-0.0-14.0,-1.0,none,,,-1,,500.0,"<div class = bigbox><div class = leftbox><img class = center src=""/static/experiments/stop_signal_with_shape_matching/images/mask.png""></img><div class = centerbox><div class = fixation>+</div></div></div><div class = rightbox><img class = center src=""/static/experiments/stop_signal_with_shape_matching/images/mask.png""></img><div class = centerbox><div class = fixation>+</div></div></div></div>",,,,,291112,0.0,practice_mask,14,poldrack-single-stim,
15,350.0,350.0,350.0,350.0,500.0,"<div class = starbox><img class = center src=""/static/experiments/stop_signal_with_shape_matching/images/stopSignal.png""></img></div>",stop,,2000.0,,-1.0,1.0,0.0,5.0,none,stop_signal_with_shape_matching,,,,,,0.0-0.0-15.0,-1.0,"[77, 90]",5.0,,-1,DNN,1000.0,"<div class = bigbox><div class = leftbox><img class = center src=""/static/experiments/stop_signal_with_shape_matching/images/2_green.png""></img></div><div class = distractorbox></div><div class = rightbox><img class = center src=""/static/experiments/stop_signal_with_shape_matching/images/5_white.png""></img></div></div>",1.0,stop,2.0,,293115,0.0,practice_trial,15,stop-signal,
16,,,,,,,,,500.0,,,,,,,stop_signal_with_shape_matching,,,,,,0.0-0.0-16.0,-1.0,none,,,-1,,500.0,"<div class = fb_box><div class = center-text><font size = 20>Correct!</font></div></div><div class = prompt_box><p class = center-block-text style = ""font-size:16px; line-height:80%;"">Respond if the green and white shapes are the same or different!</p><p class = center-block-text style = ""font-size:16px; line-height:80%;"">Same: M Key</p><p class = center-block-text style = ""font-size:16px; line-height:80%;"">Different: Z Key</p><p class = center-block-text style = ""font-size:16px; line-height:80%;"">Do not respond if you see a star around the white shape</p><p class = center-block-text style = ""font-size:16px; line-height:80%;"">Do not slow down your responses to the shape to wait for the star.</p></div>",,,,,293618,0.0,practice-stop-feedback,16,poldrack-single-stim,
17,,,,,,,,,500.0,,,,,,,stop_signal_with_shape_matching,,,,,,0.0-0.0-17.0,-1.0,none,,,-1,,500.0,"<div class = bigbox><div class = leftbox><img class = center src=""/static/experiments/stop_signal_with_shape_matching/images/mask.png""></img><div class = centerbox><div class = fixation>+</div></div></div><div class = rightbox><img class = center src=""/static/experiments/stop_signal_with_shape_matching/images/mask.png""></img><div class = centerbox><div class = fixation>+</div></div></div></div>",,,,,294120,0.0,practice_mask,17,poldrack-single-stim,
18,350.0,400.0,350.0,400.0,500.0,"<div class = starbox><img class = center src=""/static/experiments/stop_signal_with_shape_matching/images/stopSignal.png""></img></div>",go,,2000.0,,90.0,1.0,0.0,6.0,none,stop_signal_with_shape_matching,,,,,,0.0-0.0-18.0,90.0,"[77, 90]",7.0,,711,DNN,1000.0,"<div class = bigbox><div class = leftbox><img class = center src=""/static/experiments/stop_signal_with_shape_matching/images/8_green.png""></img></div><div class = distractorbox></div><div class = rightbox><img class = center src=""/static/experiments/stop_signal_with_shape_matching/images/7_white.png""></img></div></div>",,go,8.0,,296121,0.0,practice_trial,18,stop-signal,
19,,,,,,,,,500.0,,,,,,,stop_signal_with_shape_matching,,,,,,0.0-0.0-19.0,-1.0,none,,,-1,,500.0,"<div class = fb_box><div class = center-text><font size = 20>Correct!</font></div></div><div class = prompt_box><p class = center-block-text style = ""font-size:16px; line-height:80%;"">Respond if the green and white shapes are the same or different!</p><p class = center-block-text style = ""font-size:16px; line-height:80%;"">Same: M Key</p><p class = center-block-text style = ""font-size:16px; line-height:80%;"">Different: Z Key</p><p class = center-block-text style = ""font-size:16px; line-height:80%;"">Do not respond if you see a star around the white shape</p><p class = center-block-text style = ""font-size:16px; line-height:80%;"">Do not slow down your responses to the shape to wait for the star.</p></div>",,,,,296624,0.0,practice-stop-feedback,19,poldrack-single-stim,
20,,,,,,,,,500.0,,,,,,,stop_signal_with_shape_matching,,,,,,0.0-0.0-20.0,-1.0,none,,,-1,,500.0,"<div class = bigbox><div class = leftbox><img class = center src=""/static/experiments/stop_signal_with_shape_matching/images/mask.png""></img><div class = centerbox><div class = fixation>+</div></div></div><div class = rightbox><img class = center src=""/static/experiments/stop_signal_with_shape_matching/images/mask.png""></img><div class = centerbox><div class = fixation>+</div></div></div></div>",,,,,297127,0.0,practice_mask,20,poldrack-single-stim,
21,350.0,400.0,350.0,350.0,500.0,"<div class = starbox><img class = center src=""/static/experiments/stop_signal_with_shape_matching/images/stopSignal.png""></img></div>",stop,,2000.0,,-1.0,1.0,0.0,7.0,7,stop_signal_with_shape_matching,,,,,,0.0-0.0-21.0,-1.0,"[77, 90]",6.0,,-1,SDD,1000.0,"<div class = bigbox><div class = leftbox><img class = center src=""/static/experiments/stop_signal_with_shape_matching/images/6_green.png""></img></div><div class = distractorbox><img class = center src=""/static/experiments/stop_signal_with_shape_matching/images/7_red.png""></img></div><div class = rightbox><img class = center src=""/static/experiments/stop_signal_with_shape_matching/images/6_white.png""></img></div></div>",1.0,stop,6.0,,299129,0.0,practice_trial,21,stop-signal,
22,,,,,,,,,500.0,,,,,,,stop_signal_with_shape_matching,,,,,,0.0-0.0-22.0,-1.0,none,,,-1,,500.0,"<div class = fb_box><div class = center-text><font size = 20>Correct!</font></div></div><div class = prompt_box><p class = center-block-text style = ""font-size:16px; line-height:80%;"">Respond if the green and white shapes are the same or different!</p><p class = center-block-text style = ""font-size:16px; line-height:80%;"">Same: M Key</p><p class = center-block-text style = ""font-size:16px; line-height:80%;"">Different: Z Key</p><p class = center-block-text style = ""font-size:16px; line-height:80%;"">Do not respond if you see a star around the white shape</p><p class = center-block-text style = ""font-size:16px; line-height:80%;"">Do not slow down your responses to the shape to wait for the star.</p></div>",,,,,299632,0.0,practice-stop-feedback,22,poldrack-single-stim,
23,,,,,,,,,500.0,,,,,,,stop_signal_with_shape_matching,,,,,,0.0-0.0-23.0,-1.0,none,,,-1,,500.0,"<div class = bigbox><div class = leftbox><img class = center src=""/static/experiments/stop_signal_with_shape_matching/images/mask.png""></img><div class = centerbox><div class = fixation>+</div></div></div><div class = rightbox><img class = center src=""/static/experiments/stop_signal_with_shape_matching/images/mask.png""></img><div class = centerbox><div class = fixation>+</div></div></div></div>",,,,,300135,0.0,practice_mask,23,poldrack-single-stim,
24,400.0,400.0,350.0,400.0,500.0,"<div class = starbox><img class = center src=""/static/experiments/stop_signal_with_shape_matching/images/stopSignal.png""></img></div>",go,,2000.0,,77.0,1.0,0.0,8.0,none,stop_signal_with_shape_matching,,,,,,0.0-0.0-24.0,77.0,"[77, 90]",2.0,,624,SNN,1000.0,"<div class = bigbox><div class = leftbox><img class = center src=""/static/experiments/stop_signal_with_shape_matching/images/2_green.png""></img></div><div class = distractorbox></div><div class = rightbox><img class = center src=""/static/experiments/stop_signal_with_shape_matching/images/2_white.png""></img></div></div>",,go,2.0,,302137,0.0,practice_trial,24,stop-signal,
25,,,,,,,,,500.0,,,,,,,stop_signal_with_shape_matching,,,,,,0.0-0.0-25.0,-1.0,none,,,-1,,500.0,"<div class = fb_box><div class = center-text><font size = 20>Correct!</font></div></div><div class = prompt_box><p class = center-block-text style = ""font-size:16px; line-height:80%;"">Respond if the green and white shapes are the same or different!</p><p class = center-block-text style = ""font-size:16px; line-height:80%;"">Same: M Key</p><p class = center-block-text style = ""font-size:16px; line-height:80%;"">Different: Z Key</p><p class = center-block-text style = ""font-size:16px; line-height:80%;"">Do not respond if you see a star around the white shape</p><p class = center-block-text style = ""font-size:16px; line-height:80%;"">Do not slow down your responses to the shape to wait for the star.</p></div>",,,,,302640,0.0,practice-stop-feedback,25,poldrack-single-stim,
26,,,,,,,,,500.0,,,,,,,stop_signal_with_shape_matching,,,,,,0.0-0.0-26.0,-1.0,none,,,-1,,500.0,"<div class = bigbox><div class = leftbox><img class = center src=""/static/experiments/stop_signal_with_shape_matching/images/mask.png""></img><div class = centerbox><div class = fixation>+</div></div></div><div class = rightbox><img class = center src=""/static/experiments/stop_signal_with_shape_matching/images/mask.png""></img><div class = centerbox><div class = fixation>+</div></div></div></div>",,,,,303143,0.0,practice_mask,26,poldrack-single-stim,
27,400.0,400.0,350.0,400.0,500.0,"<div class = starbox><img class = center src=""/static/experiments/stop_signal_with_shape_matching/images/stopSignal.png""></img></div>",go,,2000.0,,77.0,1.0,0.0,9.0,none,stop_signal_with_shape_matching,,,,,,0.0-0.0-27.0,77.0,"[77, 90]",10.0,,664,SNN,1000.0,"<div class = bigbox><div class = leftbox><img class = center src=""/static/experiments/stop_signal_with_shape_matching/images/10_green.png""></img></div><div class = distractorbox></div><div class = rightbox><img class = center src=""/static/experiments/stop_signal_with_shape_matching/images/10_white.png""></img></div></div>",,go,10.0,,305146,0.0,practice_trial,27,stop-signal,
28,,,,,,,,,500.0,,,,,,,stop_signal_with_shape_matching,,,,,,0.0-0.0-28.0,-1.0,none,,,-1,,500.0,"<div class = fb_box><div class = center-text><font size = 20>Correct!</font></div></div><div class = prompt_box><p class = center-block-text style = ""font-size:16px; line-height:80%;"">Respond if the green and white shapes are the same or different!</p><p class = center-block-text style = ""font-size:16px; line-height:80%;"">Same: M Key</p><p class = center-block-text style = ""font-size:16px; line-height:80%;"">Different: Z Key</p><p class = center-block-text style = ""font-size:16px; line-height:80%;"">Do not respond if you see a star around the white shape</p><p class = center-block-text style = ""font-size:16px; line-height:80%;"">Do not slow down your responses to the shape to wait for the star.</p></div>",,,,,305648,0.0,practice-stop-feedback,28,poldrack-single-stim,
29,,,,,,,,,500.0,,,,,,,stop_signal_with_shape_matching,,,,,,0.0-0.0-29.0,-1.0,none,,,-1,,500.0,"<div class = bigbox><div class = leftbox><img class = center src=""/static/experiments/stop_signal_with_shape_matching/images/mask.png""></img><div class = centerbox><div class = fixation>+</div></div></div><div class = rightbox><img class = center src=""/static/experiments/stop_signal_with_shape_matching/images/mask.png""></img><div class = centerbox><div class = fixation>+</div></div></div></div>",,,,,306151,0.0,practice_mask,29,poldrack-single-stim,
30,400.0,400.0,350.0,400.0,500.0,"<div class = starbox><img class = center src=""/static/experiments/stop_signal_with_shape_matching/images/stopSignal.png""></img></div>",stop,,2000.0,,-1.0,0.0,0.0,10.0,10,stop_signal_with_shape_matching,,,,,,0.0-0.0-30.0,90.0,"[77, 90]",6.0,,688,DDD,1000.0,"<div class = bigbox><div class = leftbox><img class = center src=""/static/experiments/stop_signal_with_shape_matching/images/1_green.png""></img></div><div class = distractorbox><img class = center src=""/static/experiments/stop_signal_with_shape_matching/images/10_red.png""></img></div><div class = rightbox><img class = center src=""/static/experiments/stop_signal_with_shape_matching/images/6_white.png""></img></div></div>",0.0,stop,1.0,,308154,0.0,practice_trial,30,stop-signal,
31,,,,,,,,,500.0,,,,,,,stop_signal_with_shape_matching,,,,,,0.0-0.0-31.0,-1.0,none,,,-1,,500.0,"<div class = fb_box><div class = center-text><font size = 20>There was a star.</font></div></div><div class = prompt_box><p class = center-block-text style = ""font-size:16px; line-height:80%;"">Respond if the green and white shapes are the same or different!</p><p class = center-block-text style = ""font-size:16px; line-height:80%;"">Same: M Key</p><p class = center-block-text style = ""font-size:16px; line-height:80%;"">Different: Z Key</p><p class = center-block-text style = ""font-size:16px; line-height:80%;"">Do not respond if you see a star around the white shape</p><p class = center-block-text style = ""font-size:16px; line-height:80%;"">Do not slow down your responses to the shape to wait for the star.</p></div>",,,,,308656,0.0,practice-stop-feedback,31,poldrack-single-stim,
32,,,,,,,,,500.0,,,,,,,stop_signal_with_shape_matching,,,,,,0.0-0.0-32.0,-1.0,none,,,-1,,500.0,"<div class = bigbox><div class = leftbox><img class = center src=""/static/experiments/stop_signal_with_shape_matching/images/mask.png""></img><div class = centerbox><div class = fixation>+</div></div></div><div class = rightbox><img class = center src=""/static/experiments/stop_signal_with_shape_matching/images/mask.png""></img><div class = centerbox><div class = fixation>+</div></div></div></div>",,,,,309158,0.0,practice_mask,32,poldrack-single-stim,
33,350.0,400.0,350.0,350.0,500.0,"<div class = starbox><img class = center src=""/static/experiments/stop_signal_with_shape_matching/images/stopSignal.png""></img></div>",go,,2000.0,,90.0,1.0,0.0,11.0,6,stop_signal_with_shape_matching,,,,,,0.0-0.0-33.0,90.0,"[77, 90]",2.0,,673,DSD,1000.0,"<div class = bigbox><div class = leftbox><img class = center src=""/static/experiments/stop_signal_with_shape_matching/images/6_green.png""></img></div><div class = distractorbox><img class = center src=""/static/experiments/stop_signal_with_shape_matching/images/6_red.png""></img></div><div class = rightbox><img class = center src=""/static/experiments/stop_signal_with_shape_matching/images/2_white.png""></img></div></div>",,go,6.0,,311161,0.0,practice_trial,33,stop-signal,
34,,,,,,,,,500.0,,,,,,,stop_signal_with_shape_matching,,,,,,0.0-0.0-34.0,-1.0,none,,,-1,,500.0,"<div class = fb_box><div class = center-text><font size = 20>Correct!</font></div></div><div class = prompt_box><p class = center-block-text style = ""font-size:16px; line-height:80%;"">Respond if the green and white shapes are the same or different!</p><p class = center-block-text style = ""font-size:16px; line-height:80%;"">Same: M Key</p><p class = center-block-text style = ""font-size:16px; line-height:80%;"">Different: Z Key</p><p class = center-block-text style = ""font-size:16px; line-height:80%;"">Do not respond if you see a star around the white shape</p><p class = center-block-text style = ""font-size:16px; line-height:80%;"">Do not slow down your responses to the shape to wait for the star.</p></div>",,,,,311663,0.0,practice-stop-feedback,34,poldrack-single-stim,
35,,,,,,,,,500.0,,,,,,,stop_signal_with_shape_matching,,,,,,0.0-0.0-35.0,-1.0,none,,,-1,,500.0,"<div class = bigbox><div class = leftbox><img class = center src=""/static/experiments/stop_signal_with_shape_matching/images/mask.png""></img><div class = centerbox><div class = fixation>+</div></div></div><div class = rightbox><img class = center src=""/static/experiments/stop_signal_with_shape_matching/images/mask.png""></img><div class = centerbox><div class = fixation>+</div></div></div></div>",,,,,312166,0.0,practice_mask,35,poldrack-single-stim,
36,350.0,400.0,350.0,400.0,500.0,"<div class = starbox><img class = center src=""/static/experiments/stop_signal_with_shape_matching/images/stopSignal.png""></img></div>",stop,,2000.0,,-1.0,0.0,0.0,12.0,none,stop_signal_with_shape_matching,,,,,,0.0-0.0-36.0,77.0,"[77, 90]",9.0,,617,SNN,1000.0,"<div class = bigbox><div class = leftbox><img class = center src=""/static/experiments/stop_signal_with_shape_matching/images/9_green.png""></img></div><div class = distractorbox></div><div class = rightbox><img class = center src=""/static/experiments/stop_signal_with_shape_matching/images/9_white.png""></img></div></div>",0.0,stop,9.0,,314168,0.0,practice_trial,36,stop-signal,
37,,,,,,,,,500.0,,,,,,,stop_signal_with_shape_matching,,,,,,0.0-0.0-37.0,-1.0,none,,,-1,,500.0,"<div class = fb_box><div class = center-text><font size = 20>There was a star.</font></div></div><div class = prompt_box><p class = center-block-text style = ""font-size:16px; line-height:80%;"">Respond if the green and white shapes are the same or different!</p><p class = center-block-text style = ""font-size:16px; line-height:80%;"">Same: M Key</p><p class = center-block-text style = ""font-size:16px; line-height:80%;"">Different: Z Key</p><p class = center-block-text style = ""font-size:16px; line-height:80%;"">Do not respond if you see a star around the white shape</p><p class = center-block-text style = ""font-size:16px; line-height:80%;"">Do not slow down your responses to the shape to wait for the star.</p></div>",,,,,314670,0.0,practice-stop-feedback,37,poldrack-single-stim,
38,,,,,,,,,500.0,,,,,,,stop_signal_with_shape_matching,,,,,,0.0-0.0-38.0,-1.0,none,,,-1,,500.0,"<div class = bigbox><div class = leftbox><img class = center src=""/static/experiments/stop_signal_with_shape_matching/images/mask.png""></img><div class = centerbox><div class = fixation>+</div></div></div><div class = rightbox><img class = center src=""/static/experiments/stop_signal_with_shape_matching/images/mask.png""></img><div class = centerbox><div class = fixation>+</div></div></div></div>",,,,,315172,0.0,practice_mask,38,poldrack-single-stim,
39,350.0,350.0,350.0,350.0,500.0,"<div class = starbox><img class = center src=""/static/experiments/stop_signal_with_shape_matching/images/stopSignal.png""></img></div>",go,,2000.0,,90.0,1.0,0.0,13.0,3,stop_signal_with_shape_matching,,,,,,0.0-0.0-39.0,90.0,"[77, 90]",3.0,,699,DDS,1000.0,"<div class = bigbox><div class = leftbox><img class = center src=""/static/experiments/stop_signal_with_shape_matching/images/4_green.png""></img></div><div class = distractorbox><img class = center src=""/static/experiments/stop_signal_with_shape_matching/images/3_red.png""></img></div><div class = rightbox><img class = center src=""/static/experiments/stop_signal_with_shape_matching/images/3_white.png""></img></div></div>",,go,4.0,,317174,0.0,practice_trial,39,stop-signal,
40,,,,,,,,,500.0,,,,,,,stop_signal_with_shape_matching,,,,,,0.0-0.0-40.0,-1.0,none,,,-1,,500.0,"<div class = fb_box><div class = center-text><font size = 20>Correct!</font></div></div><div class = prompt_box><p class = center-block-text style = ""font-size:16px; line-height:80%;"">Respond if the green and white shapes are the same or different!</p><p class = center-block-text style = ""font-size:16px; line-height:80%;"">Same: M Key</p><p class = center-block-text style = ""font-size:16px; line-height:80%;"">Different: Z Key</p><p class = center-block-text style = ""font-size:16px; line-height:80%;"">Do not respond if you see a star around the white shape</p><p class = center-block-text style = ""font-size:16px; line-height:80%;"">Do not slow down your responses to the shape to wait for the star.</p></div>",,,,,317677,0.0,practice-stop-feedback,40,poldrack-single-stim,
41,,,,,,,,,500.0,,,,,,,stop_signal_with_shape_matching,,,,,,0.0-0.0-41.0,-1.0,none,,,-1,,500.0,"<div class = bigbox><div class = leftbox><img class = center src=""/static/experiments/stop_signal_with_shape_matching/images/mask.png""></img><div class = centerbox><div class = fixation>+</div></div></div><div class = rightbox><img class = center src=""/static/experiments/stop_signal_with_shape_matching/images/mask.png""></img><div class = centerbox><div class = fixation>+</div></div></div></div>",,,,,318179,0.0,practice_mask,41,poldrack-single-stim,
42,350.0,350.0,350.0,350.0,500.0,"<div class = starbox><img class = center src=""/static/experiments/stop_signal_with_shape_matching/images/stopSignal.png""></img></div>",go,,2000.0,,77.0,1.0,0.0,14.0,7,stop_signal_with_shape_matching,,,,,,0.0-0.0-42.0,77.0,"[77, 90]",8.0,,676,SDD,1000.0,"<div class = bigbox><div class = leftbox><img class = center src=""/static/experiments/stop_signal_with_shape_matching/images/8_green.png""></img></div><div class = distractorbox><img class = center src=""/static/experiments/stop_signal_with_shape_matching/images/7_red.png""></img></div><div class = rightbox><img class = center src=""/static/experiments/stop_signal_with_shape_matching/images/8_white.png""></img></div></div>",,go,8.0,,320182,0.0,practice_trial,42,stop-signal,
43,,,,,,,,,500.0,,,,,,,stop_signal_with_shape_matching,,,,,,0.0-0.0-43.0,-1.0,none,,,-1,,500.0,"<div class = fb_box><div class = center-text><font size = 20>Correct!</font></div></div><div class = prompt_box><p class = center-block-text style = ""font-size:16px; line-height:80%;"">Respond if the green and white shapes are the same or different!</p><p class = center-block-text style = ""font-size:16px; line-height:80%;"">Same: M Key</p><p class = center-block-text style = ""font-size:16px; line-height:80%;"">Different: Z Key</p><p class = center-block-text style = ""font-size:16px; line-height:80%;"">Do not respond if you see a star around the white shape</p><p class = center-block-text style = ""font-size:16px; line-height:80%;"">Do not slow down your responses to the shape to wait for the star.</p></div>",,,,,320685,0.0,practice-stop-feedback,43,poldrack-single-stim,
44,,,,,,,,,500.0,,,,,,,stop_signal_with_shape_matching,,,,,,0.0-0.0-44.0,-1.0,none,,,-1,,500.0,"<div class = bigbox><div class = leftbox><img class = center src=""/static/experiments/stop_signal_with_shape_matching/images/mask.png""></img><div class = centerbox><div class = fixation>+</div></div></div><div class = rightbox><img class = center src=""/static/experiments/stop_signal_with_shape_matching/images/mask.png""></img><div class = centerbox><div class = fixation>+</div></div></div></div>",,,,,321187,0.0,practice_mask,44,poldrack-single-stim,
45,350.0,350.0,350.0,350.0,500.0,"<div class = starbox><img class = center src=""/static/experiments/stop_signal_with_shape_matching/images/stopSignal.png""></img></div>",stop,,2000.0,,-1.0,0.0,0.0,15.0,8,stop_signal_with_shape_matching,,,,,,0.0-0.0-45.0,77.0,"[77, 90]",8.0,,492,SSS,1000.0,"<div class = bigbox><div class = leftbox><img class = center src=""/static/experiments/stop_signal_with_shape_matching/images/8_green.png""></img></div><div class = distractorbox><img class = center src=""/static/experiments/stop_signal_with_shape_matching/images/8_red.png""></img></div><div class = rightbox><img class = center src=""/static/experiments/stop_signal_with_shape_matching/images/8_white.png""></img></div></div>",0.0,stop,8.0,,323190,0.0,practice_trial,45,stop-signal,
46,,,,,,,,,500.0,,,,,,,stop_signal_with_shape_matching,,,,,,0.0-0.0-46.0,-1.0,none,,,-1,,500.0,"<div class = fb_box><div class = center-text><font size = 20>There was a star.</font></div></div><div class = prompt_box><p class = center-block-text style = ""font-size:16px; line-height:80%;"">Respond if the green and white shapes are the same or different!</p><p class = center-block-text style = ""font-size:16px; line-height:80%;"">Same: M Key</p><p class = center-block-text style = ""font-size:16px; line-height:80%;"">Different: Z Key</p><p class = center-block-text style = ""font-size:16px; line-height:80%;"">Do not respond if you see a star around the white shape</p><p class = center-block-text style = ""font-size:16px; line-height:80%;"">Do not slow down your responses to the shape to wait for the star.</p></div>",,,,,323693,0.0,practice-stop-feedback,46,poldrack-single-stim,
47,,,,,,,,,500.0,,,,,,,stop_signal_with_shape_matching,,,,,,0.0-0.0-47.0,-1.0,none,,,-1,,500.0,"<div class = bigbox><div class = leftbox><img class = center src=""/static/experiments/stop_signal_with_shape_matching/images/mask.png""></img><div class = centerbox><div class = fixation>+</div></div></div><div class = rightbox><img class = center src=""/static/experiments/stop_signal_with_shape_matching/images/mask.png""></img><div class = centerbox><div class = fixation>+</div></div></div></div>",,,,,324195,0.0,practice_mask,47,poldrack-single-stim,
48,350.0,350.0,300.0,300.0,500.0,"<div class = starbox><img class = center src=""/static/experiments/stop_signal_with_shape_matching/images/stopSignal.png""></img></div>",stop,,2000.0,,-1.0,1.0,0.0,16.0,4,stop_signal_with_shape_matching,,,,,,0.0-0.0-48.0,-1.0,"[77, 90]",8.0,,-1,DSD,1000.0,"<div class = bigbox><div class = leftbox><img class = center src=""/static/experiments/stop_signal_with_shape_matching/images/4_green.png""></img></div><div class = distractorbox><img class = center src=""/static/experiments/stop_signal_with_shape_matching/images/4_red.png""></img></div><div class = rightbox><img class = center src=""/static/experiments/stop_signal_with_shape_matching/images/8_white.png""></img></div></div>",1.0,stop,4.0,,326197,0.0,practice_trial,48,stop-signal,
49,,,,,,,,,500.0,,,,,,,stop_signal_with_shape_matching,,,,,,0.0-0.0-49.0,-1.0,none,,,-1,,500.0,"<div class = fb_box><div class = center-text><font size = 20>Correct!</font></div></div><div class = prompt_box><p class = center-block-text style = ""font-size:16px; line-height:80%;"">Respond if the green and white shapes are the same or different!</p><p class = center-block-text style = ""font-size:16px; line-height:80%;"">Same: M Key</p><p class = center-block-text style = ""font-size:16px; line-height:80%;"">Different: Z Key</p><p class = center-block-text style = ""font-size:16px; line-height:80%;"">Do not respond if you see a star around the white shape</p><p class = center-block-text style = ""font-size:16px; line-height:80%;"">Do not slow down your responses to the shape to wait for the star.</p></div>",,,,,326700,0.0,practice-stop-feedback,49,poldrack-single-stim,
50,,,,,,,,,500.0,,,,,,,stop_signal_with_shape_matching,,,,,,0.0-0.0-50.0,-1.0,none,,,-1,,500.0,"<div class = bigbox><div class = leftbox><img class = center src=""/static/experiments/stop_signal_with_shape_matching/images/mask.png""></img><div class = centerbox><div class = fixation>+</div></div></div><div class = rightbox><img class = center src=""/static/experiments/stop_signal_with_shape_matching/images/mask.png""></img><div class = centerbox><div class = fixation>+</div></div></div></div>",,,,,327202,0.0,practice_mask,50,poldrack-single-stim,
51,350.0,350.0,350.0,350.0,500.0,"<div class = starbox><img class = center src=""/static/experiments/stop_signal_with_shape_matching/images/stopSignal.png""></img></div>",go,,2000.0,,90.0,1.0,0.0,17.0,7,stop_signal_with_shape_matching,,,,,,0.0-0.0-51.0,90.0,"[77, 90]",6.0,,629,DDD,1000.0,"<div class = bigbox><div class = leftbox><img class = center src=""/static/experiments/stop_signal_with_shape_matching/images/4_green.png""></img></div><div class = distractorbox><img class = center src=""/static/experiments/stop_signal_with_shape_matching/images/7_red.png""></img></div><div class = rightbox><img class = center src=""/static/experiments/stop_signal_with_shape_matching/images/6_white.png""></img></div></div>",,go,4.0,,329205,0.0,practice_trial,51,stop-signal,
52,,,,,,,,,500.0,,,,,,,stop_signal_with_shape_matching,,,,,,0.0-0.0-52.0,-1.0,none,,,-1,,500.0,"<div class = fb_box><div class = center-text><font size = 20>Correct!</font></div></div><div class = prompt_box><p class = center-block-text style = ""font-size:16px; line-height:80%;"">Respond if the green and white shapes are the same or different!</p><p class = center-block-text style = ""font-size:16px; line-height:80%;"">Same: M Key</p><p class = center-block-text style = ""font-size:16px; line-height:80%;"">Different: Z Key</p><p class = center-block-text style = ""font-size:16px; line-height:80%;"">Do not respond if you see a star around the white shape</p><p class = center-block-text style = ""font-size:16px; line-height:80%;"">Do not slow down your responses to the shape to wait for the star.</p></div>",,,,,329708,0.0,practice-stop-feedback,52,poldrack-single-stim,
53,,,,,,,,,500.0,,,,,,,stop_signal_with_shape_matching,,,,,,0.0-0.0-53.0,-1.0,none,,,-1,,500.0,"<div class = bigbox><div class = leftbox><img class = center src=""/static/experiments/stop_signal_with_shape_matching/images/mask.png""></img><div class = centerbox><div class = fixation>+</div></div></div><div class = rightbox><img class = center src=""/static/experiments/stop_signal_with_shape_matching/images/mask.png""></img><div class = centerbox><div class = fixation>+</div></div></div></div>",,,,,330211,0.0,practice_mask,53,poldrack-single-stim,
54,350.0,350.0,350.0,350.0,500.0,"<div class = starbox><img class = center src=""/static/experiments/stop_signal_with_shape_matching/images/stopSignal.png""></img></div>",go,,2000.0,,90.0,1.0,0.0,18.0,4,stop_signal_with_shape_matching,,,,,,0.0-0.0-54.0,90.0,"[77, 90]",7.0,,628,DDD,1000.0,"<div class = bigbox><div class = leftbox><img class = center src=""/static/experiments/stop_signal_with_shape_matching/images/10_green.png""></img></div><div class = distractorbox><img class = center src=""/static/experiments/stop_signal_with_shape_matching/images/4_red.png""></img></div><div class = rightbox><img class = center src=""/static/experiments/stop_signal_with_shape_matching/images/7_white.png""></img></div></div>",,go,10.0,,332213,0.0,practice_trial,54,stop-signal,
55,,,,,,,,,500.0,,,,,,,stop_signal_with_shape_matching,,,,,,0.0-0.0-55.0,-1.0,none,,,-1,,500.0,"<div class = fb_box><div class = center-text><font size = 20>Correct!</font></div></div><div class = prompt_box><p class = center-block-text style = ""font-size:16px; line-height:80%;"">Respond if the green and white shapes are the same or different!</p><p class = center-block-text style = ""font-size:16px; line-height:80%;"">Same: M Key</p><p class = center-block-text style = ""font-size:16px; line-height:80%;"">Different: Z Key</p><p class = center-block-text style = ""font-size:16px; line-height:80%;"">Do not respond if you see a star around the white shape</p><p class = center-block-text style = ""font-size:16px; line-height:80%;"">Do not slow down your responses to the shape to wait for the star.</p></div>",,,,,332716,0.0,practice-stop-feedback,55,poldrack-single-stim,
56,,,,,,,,,500.0,,,,,,,stop_signal_with_shape_matching,,,,,,0.0-0.0-56.0,-1.0,none,,,-1,,500.0,"<div class = bigbox><div class = leftbox><img class = center src=""/static/experiments/stop_signal_with_shape_matching/images/mask.png""></img><div class = centerbox><div class = fixation>+</div></div></div><div class = rightbox><img class = center src=""/static/experiments/stop_signal_with_shape_matching/images/mask.png""></img><div class = centerbox><div class = fixation>+</div></div></div></div>",,,,,333219,0.0,practice_mask,56,poldrack-single-stim,
57,350.0,350.0,350.0,350.0,500.0,"<div class = starbox><img class = center src=""/static/experiments/stop_signal_with_shape_matching/images/stopSignal.png""></img></div>",stop,,2000.0,,-1.0,1.0,0.0,19.0,10,stop_signal_with_shape_matching,,,,,,0.0-0.0-57.0,-1.0,"[77, 90]",10.0,,-1,DDS,1000.0,"<div class = bigbox><div class = leftbox><img class = center src=""/static/experiments/stop_signal_with_shape_matching/images/8_green.png""></img></div><div class = distractorbox><img class = center src=""/static/experiments/stop_signal_with_shape_matching/images/10_red.png""></img></div><div class = rightbox><img class = center src=""/static/experiments/stop_signal_with_shape_matching/images/10_white.png""></img></div></div>",1.0,stop,8.0,,335221,0.0,practice_trial,57,stop-signal,
58,,,,,,,,,500.0,,,,,,,stop_signal_with_shape_matching,,,,,,0.0-0.0-58.0,-1.0,none,,,-1,,500.0,"<div class = fb_box><div class = center-text><font size = 20>Correct!</font></div></div><div class = prompt_box><p class = center-block-text style = ""font-size:16px; line-height:80%;"">Respond if the green and white shapes are the same or different!</p><p class = center-block-text style = ""font-size:16px; line-height:80%;"">Same: M Key</p><p class = center-block-text style = ""font-size:16px; line-height:80%;"">Different: Z Key</p><p class = center-block-text style = ""font-size:16px; line-height:80%;"">Do not respond if you see a star around the white shape</p><p class = center-block-text style = ""font-size:16px; line-height:80%;"">Do not slow down your responses to the shape to wait for the star.</p></div>",,,,,335724,0.0,practice-stop-feedback,58,poldrack-single-stim,
59,,,,,,,,,500.0,,,,,,,stop_signal_with_shape_matching,,,,,,0.0-0.0-59.0,-1.0,none,,,-1,,500.0,"<div class = bigbox><div class = leftbox><img class = center src=""/static/experiments/stop_signal_with_shape_matching/images/mask.png""></img><div class = centerbox><div class = fixation>+</div></div></div><div class = rightbox><img class = center src=""/static/experiments/stop_signal_with_shape_matching/images/mask.png""></img><div class = centerbox><div class = fixation>+</div></div></div></div>",,,,,336227,0.0,practice_mask,59,poldrack-single-stim,
60,400.0,350.0,350.0,350.0,500.0,"<div class = starbox><img class = center src=""/static/experiments/stop_signal_with_shape_matching/images/stopSignal.png""></img></div>",go,,2000.0,,90.0,1.0,0.0,20.0,2,stop_signal_with_shape_matching,,,,,,0.0-0.0-60.0,90.0,"[77, 90]",7.0,,692,DSD,1000.0,"<div class = bigbox><div class = leftbox><img class = center src=""/static/experiments/stop_signal_with_shape_matching/images/2_green.png""></img></div><div class = distractorbox><img class = center src=""/static/experiments/stop_signal_with_shape_matching/images/2_red.png""></img></div><div class = rightbox><img class = center src=""/static/experiments/stop_signal_with_shape_matching/images/7_white.png""></img></div></div>",,go,2.0,,338228,0.0,practice_trial,60,stop-signal,
61,,,,,,,,,500.0,,,,,,,stop_signal_with_shape_matching,,,,,,0.0-0.0-61.0,-1.0,none,,,-1,,500.0,"<div class = fb_box><div class = center-text><font size = 20>Correct!</font></div></div><div class = prompt_box><p class = center-block-text style = ""font-size:16px; line-height:80%;"">Respond if the green and white shapes are the same or different!</p><p class = center-block-text style = ""font-size:16px; line-height:80%;"">Same: M Key</p><p class = center-block-text style = ""font-size:16px; line-height:80%;"">Different: Z Key</p><p class = center-block-text style = ""font-size:16px; line-height:80%;"">Do not respond if you see a star around the white shape</p><p class = center-block-text style = ""font-size:16px; line-height:80%;"">Do not slow down your responses to the shape to wait for the star.</p></div>",,,,,338731,0.0,practice-stop-feedback,61,poldrack-single-stim,
62,,,,,,,,,500.0,,,,,,,stop_signal_with_shape_matching,,,,,,0.0-0.0-62.0,-1.0,none,,,-1,,500.0,"<div class = bigbox><div class = leftbox><img class = center src=""/static/experiments/stop_signal_with_shape_matching/images/mask.png""></img><div class = centerbox><div class = fixation>+</div></div></div><div class = rightbox><img class = center src=""/static/experiments/stop_signal_with_shape_matching/images/mask.png""></img><div class = centerbox><div class = fixation>+</div></div></div></div>",,,,,339234,0.0,practice_mask,62,poldrack-single-stim,
63,400.0,350.0,350.0,350.0,500.0,"<div class = starbox><img class = center src=""/static/experiments/stop_signal_with_shape_matching/images/stopSignal.png""></img></div>",go,,2000.0,,77.0,0.0,0.0,21.0,4,stop_signal_with_shape_matching,,,,,,0.0-0.0-63.0,90.0,"[77, 90]",4.0,,917,SSS,1000.0,"<div class = bigbox><div class = leftbox><img class = center src=""/static/experiments/stop_signal_with_shape_matching/images/4_green.png""></img></div><div class = distractorbox><img class = center src=""/static/experiments/stop_signal_with_shape_matching/images/4_red.png""></img></div><div class = rightbox><img class = center src=""/static/experiments/stop_signal_with_shape_matching/images/4_white.png""></img></div></div>",,go,4.0,,341237,0.0,practice_trial,63,stop-signal,
64,,,,,,,,,500.0,,,,,,,stop_signal_with_shape_matching,,,,,,0.0-0.0-64.0,-1.0,none,,,-1,,500.0,"<div class = fb_box><div class = center-text><font size = 20>Incorrect</font></div></div><div class = prompt_box><p class = center-block-text style = ""font-size:16px; line-height:80%;"">Respond if the green and white shapes are the same or different!</p><p class = center-block-text style = ""font-size:16px; line-height:80%;"">Same: M Key</p><p class = center-block-text style = ""font-size:16px; line-height:80%;"">Different: Z Key</p><p class = center-block-text style = ""font-size:16px; line-height:80%;"">Do not respond if you see a star around the white shape</p><p class = center-block-text style = ""font-size:16px; line-height:80%;"">Do not slow down your responses to the shape to wait for the star.</p></div>",,,,,341739,0.0,practice-stop-feedback,64,poldrack-single-stim,
65,,,,,,,,,3772.0,,,,,,,stop_signal_with_shape_matching,,,,,,0.0-1.0,13.0,[13],,,3772,,3772.0,<div class = bigbox><div class = picture_box><p class = block-text><br>Please take this time to read your feedback and to take a short break! Press enter to continue</p><p class = block-text>Done with this practice. Press Enter to continue.</p></div></div>,,,,,345513,0.0,feedback_block,65,poldrack-single-stim,
66,,,,,,,,,5007.0,,,,,,,stop_signal_with_shape_matching,,,,,,0.0-2.0,13.0,,,,5007,,,,,,,"<div class = centerbox><p class = block-text>We will now start the test portion</p><p class = block-text>In this experiment you will see at least green shape on the left side of the screen, and a white shape on the right.</p> <p class = block-text>You will be asked to judge whether the green shape on the left is the same the white shape on the right.</p><p class = block-text>If the shapes are the same, please press the M Key.  If the shapes are different, press the Z Key.</p><p class = block-text>On some trials, a red shape will overlap the green shape. Ignore this red shape, your job is to match the green shape to the white shape.</p><p class = block-text>On some trials, you will see a star appear at the same time, or shortly after, the shapes appear. Do not respond if you see a star.</p><p class = block-text>If the star appears on a trial, and you try your best to withhold your response, you will find that you will be able to stop sometimes but not always.</p><p class = block-text>Do not slow down your responses to the shapes in order to wait for the star.</p><p class = block-text>You will no longer receive the rule prompt, so remember the instructions before you continue. Press Enter to begin.</p></div>",350521,1000.0,instruction,66,poldrack-text,
67,,,,,,,,,1429.0,,,,,,,stop_signal_with_shape_matching,,,,,,0.0-3.0-0.0,13.0,[13],,,1429,,1429.0,<div class = bigbox><div class = picture_box><p class = block-text>We will now start the test portion. Press enter to begin.</p></div></div>,,,,,352953,0.0,feedback_block,67,poldrack-single-stim,
68,,,,,,,,,2736.0,True,54.0,,,,,stop_signal_with_shape_matching,,,,,,0.0-3.0-1.0-0.0,54.0,[],,,2736,,2736.0,<p>Press the number corresponding to the number of sides that a cube has.<p>,,,,,355689,200.0,attention_check,68,attention-check,
69,,,,,,,,,500.0,,,,,,,stop_signal_with_shape_matching,,,,,,0.0-3.0-2.0,-1.0,none,,,-1,,500.0,"<div class = bigbox><div class = leftbox><img class = center src=""/static/experiments/stop_signal_with_shape_matching/images/mask.png""></img><div class = centerbox><div class = fixation>+</div></div></div><div class = rightbox><img class = center src=""/static/experiments/stop_signal_with_shape_matching/images/mask.png""></img><div class = centerbox><div class = fixation>+</div></div></div></div>",,,,,356393,0.0,test_mask,69,poldrack-single-stim,
70,400.0,350.0,350.0,350.0,500.0,"<div class = starbox><img class = center src=""/static/experiments/stop_signal_with_shape_matching/images/stopSignal.png""></img></div>",go,,2000.0,,90.0,1.0,0.0,1.0,5,stop_signal_with_shape_matching,,,,,,0.0-3.0-3.0,90.0,"[77, 90]",2.0,,694,DSD,1000.0,"<div class = bigbox><div class = leftbox><img class = center src=""/static/experiments/stop_signal_with_shape_matching/images/5_green.png""></img></div><div class = distractorbox><img class = center src=""/static/experiments/stop_signal_with_shape_matching/images/5_red.png""></img></div><div class = rightbox><img class = center src=""/static/experiments/stop_signal_with_shape_matching/images/2_white.png""></img></div></div>",,go,5.0,,358396,0.0,test_trial,70,stop-signal,
71,,,,,,,,,500.0,,,,,,,stop_signal_with_shape_matching,,,,,,0.0-3.0-4.0,-1.0,none,,,-1,,500.0,"<div class = bigbox><div class = leftbox><img class = center src=""/static/experiments/stop_signal_with_shape_matching/images/mask.png""></img><div class = centerbox><div class = fixation>+</div></div></div><div class = rightbox><img class = center src=""/static/experiments/stop_signal_with_shape_matching/images/mask.png""></img><div class = centerbox><div class = fixation>+</div></div></div></div>",,,,,358898,0.0,test_mask,71,poldrack-single-stim,
72,400.0,350.0,350.0,400.0,500.0,"<div class = starbox><img class = center src=""/static/experiments/stop_signal_with_shape_matching/images/stopSignal.png""></img></div>",stop,,2000.0,,-1.0,1.0,0.0,2.0,1,stop_signal_with_shape_matching,,,,,,0.0-3.0-5.0,-1.0,"[77, 90]",1.0,,-1,DDS,1000.0,"<div class = bigbox><div class = leftbox><img class = center src=""/static/experiments/stop_signal_with_shape_matching/images/2_green.png""></img></div><div class = distractorbox><img class = center src=""/static/experiments/stop_signal_with_shape_matching/images/1_red.png""></img></div><div class = rightbox><img class = center src=""/static/experiments/stop_signal_with_shape_matching/images/1_white.png""></img></div></div>",1.0,stop,2.0,,360900,0.0,test_trial,72,stop-signal,
73,,,,,,,,,500.0,,,,,,,stop_signal_with_shape_matching,,,,,,0.0-3.0-6.0,-1.0,none,,,-1,,500.0,"<div class = bigbox><div class = leftbox><img class = center src=""/static/experiments/stop_signal_with_shape_matching/images/mask.png""></img><div class = centerbox><div class = fixation>+</div></div></div><div class = rightbox><img class = center src=""/static/experiments/stop_signal_with_shape_matching/images/mask.png""></img><div class = centerbox><div class = fixation>+</div></div></div></div>",,,,,361403,0.0,test_mask,73,poldrack-single-stim,
74,450.0,350.0,350.0,350.0,500.0,"<div class = starbox><img class = center src=""/static/experiments/stop_signal_with_shape_matching/images/stopSignal.png""></img></div>",go,,2000.0,,90.0,1.0,0.0,3.0,10,stop_signal_with_shape_matching,,,,,,0.0-3.0-7.0,90.0,"[77, 90]",4.0,,644,DSD,1000.0,"<div class = bigbox><div class = leftbox><img class = center src=""/static/experiments/stop_signal_with_shape_matching/images/10_green.png""></img></div><div class = distractorbox><img class = center src=""/static/experiments/stop_signal_with_shape_matching/images/10_red.png""></img></div><div class = rightbox><img class = center src=""/static/experiments/stop_signal_with_shape_matching/images/4_white.png""></img></div></div>",,go,10.0,,363405,0.0,test_trial,74,stop-signal,
75,,,,,,,,,500.0,,,,,,,stop_signal_with_shape_matching,,,,,,0.0-3.0-8.0,-1.0,none,,,-1,,500.0,"<div class = bigbox><div class = leftbox><img class = center src=""/static/experiments/stop_signal_with_shape_matching/images/mask.png""></img><div class = centerbox><div class = fixation>+</div></div></div><div class = rightbox><img class = center src=""/static/experiments/stop_signal_with_shape_matching/images/mask.png""></img><div class = centerbox><div class = fixation>+</div></div></div></div>",,,,,363908,0.0,test_mask,75,poldrack-single-stim,
76,450.0,350.0,350.0,350.0,500.0,"<div class = starbox><img class = center src=""/static/experiments/stop_signal_with_shape_matching/images/stopSignal.png""></img></div>",go,,2000.0,,90.0,1.0,0.0,4.0,none,stop_signal_with_shape_matching,,,,,,0.0-3.0-9.0,90.0,"[77, 90]",5.0,,571,DNN,1000.0,"<div class = bigbox><div class = leftbox><img class = center src=""/static/experiments/stop_signal_with_shape_matching/images/3_green.png""></img></div><div class = distractorbox></div><div class = rightbox><img class = center src=""/static/experiments/stop_signal_with_shape_matching/images/5_white.png""></img></div></div>",,go,3.0,,365911,0.0,test_trial,76,stop-signal,
77,,,,,,,,,500.0,,,,,,,stop_signal_with_shape_matching,,,,,,0.0-3.0-10.0,-1.0,none,,,-1,,500.0,"<div class = bigbox><div class = leftbox><img class = center src=""/static/experiments/stop_signal_with_shape_matching/images/mask.png""></img><div class = centerbox><div class = fixation>+</div></div></div><div class = rightbox><img class = center src=""/static/experiments/stop_signal_with_shape_matching/images/mask.png""></img><div class = centerbox><div class = fixation>+</div></div></div></div>",,,,,366414,0.0,test_mask,77,poldrack-single-stim,
78,450.0,350.0,350.0,350.0,500.0,"<div class = starbox><img class = center src=""/static/experiments/stop_signal_with_shape_matching/images/stopSignal.png""></img></div>",stop,,2000.0,,-1.0,0.0,0.0,5.0,none,stop_signal_with_shape_matching,,,,,,0.0-3.0-11.0,90.0,"[77, 90]",9.0,,522,DNN,1000.0,"<div class = bigbox><div class = leftbox><img class = center src=""/static/experiments/stop_signal_with_shape_matching/images/10_green.png""></img></div><div class = distractorbox></div><div class = rightbox><img class = center src=""/static/experiments/stop_signal_with_shape_matching/images/9_white.png""></img></div></div>",0.0,stop,10.0,,368416,0.0,test_trial,78,stop-signal,
79,,,,,,,,,500.0,,,,,,,stop_signal_with_shape_matching,,,,,,0.0-3.0-12.0,-1.0,none,,,-1,,500.0,"<div class = bigbox><div class = leftbox><img class = center src=""/static/experiments/stop_signal_with_shape_matching/images/mask.png""></img><div class = centerbox><div class = fixation>+</div></div></div><div class = rightbox><img class = center src=""/static/experiments/stop_signal_with_shape_matching/images/mask.png""></img><div class = centerbox><div class = fixation>+</div></div></div></div>",,,,,368919,0.0,test_mask,79,poldrack-single-stim,
80,450.0,300.0,350.0,450.0,500.0,"<div class = starbox><img class = center src=""/static/experiments/stop_signal_with_shape_matching/images/stopSignal.png""></img></div>",go,,2000.0,,90.0,1.0,0.0,6.0,8,stop_signal_with_shape_matching,,,,,,0.0-3.0-13.0,90.0,"[77, 90]",3.0,,544,DDD,1000.0,"<div class = bigbox><div class = leftbox><img class = center src=""/static/experiments/stop_signal_with_shape_matching/images/1_green.png""></img></div><div class = distractorbox><img class = center src=""/static/experiments/stop_signal_with_shape_matching/images/8_red.png""></img></div><div class = rightbox><img class = center src=""/static/experiments/stop_signal_with_shape_matching/images/3_white.png""></img></div></div>",,go,1.0,,370922,0.0,test_trial,80,stop-signal,
81,,,,,,,,,500.0,,,,,,,stop_signal_with_shape_matching,,,,,,0.0-3.0-14.0,-1.0,none,,,-1,,500.0,"<div class = bigbox><div class = leftbox><img class = center src=""/static/experiments/stop_signal_with_shape_matching/images/mask.png""></img><div class = centerbox><div class = fixation>+</div></div></div><div class = rightbox><img class = center src=""/static/experiments/stop_signal_with_shape_matching/images/mask.png""></img><div class = centerbox><div class = fixation>+</div></div></div></div>",,,,,371424,0.0,test_mask,81,poldrack-single-stim,
82,450.0,300.0,350.0,450.0,500.0,"<div class = starbox><img class = center src=""/static/experiments/stop_signal_with_shape_matching/images/stopSignal.png""></img></div>",stop,,2000.0,,-1.0,0.0,0.0,7.0,9,stop_signal_with_shape_matching,,,,,,0.0-3.0-15.0,77.0,"[77, 90]",6.0,,679,SDD,1000.0,"<div class = bigbox><div class = leftbox><img class = center src=""/static/experiments/stop_signal_with_shape_matching/images/6_green.png""></img></div><div class = distractorbox><img class = center src=""/static/experiments/stop_signal_with_shape_matching/images/9_red.png""></img></div><div class = rightbox><img class = center src=""/static/experiments/stop_signal_with_shape_matching/images/6_white.png""></img></div></div>",0.0,stop,6.0,,373426,0.0,test_trial,82,stop-signal,
83,,,,,,,,,500.0,,,,,,,stop_signal_with_shape_matching,,,,,,0.0-3.0-16.0,-1.0,none,,,-1,,500.0,"<div class = bigbox><div class = leftbox><img class = center src=""/static/experiments/stop_signal_with_shape_matching/images/mask.png""></img><div class = centerbox><div class = fixation>+</div></div></div><div class = rightbox><img class = center src=""/static/experiments/stop_signal_with_shape_matching/images/mask.png""></img><div class = centerbox><div class = fixation>+</div></div></div></div>",,,,,373929,0.0,test_mask,83,poldrack-single-stim,
84,400.0,300.0,350.0,300.0,500.0,"<div class = starbox><img class = center src=""/static/experiments/stop_signal_with_shape_matching/images/stopSignal.png""></img></div>",stop,,2000.0,,-1.0,1.0,0.0,8.0,none,stop_signal_with_shape_matching,,,,,,0.0-3.0-17.0,-1.0,"[77, 90]",10.0,,-1,SNN,1000.0,"<div class = bigbox><div class = leftbox><img class = center src=""/static/experiments/stop_signal_with_shape_matching/images/10_green.png""></img></div><div class = distractorbox></div><div class = rightbox><img class = center src=""/static/experiments/stop_signal_with_shape_matching/images/10_white.png""></img></div></div>",1.0,stop,10.0,,375931,0.0,test_trial,84,stop-signal,
85,,,,,,,,,500.0,,,,,,,stop_signal_with_shape_matching,,,,,,0.0-3.0-18.0,-1.0,none,,,-1,,500.0,"<div class = bigbox><div class = leftbox><img class = center src=""/static/experiments/stop_signal_with_shape_matching/images/mask.png""></img><div class = centerbox><div class = fixation>+</div></div></div><div class = rightbox><img class = center src=""/static/experiments/stop_signal_with_shape_matching/images/mask.png""></img><div class = centerbox><div class = fixation>+</div></div></div></div>",,,,,376434,0.0,test_mask,85,poldrack-single-stim,
86,400.0,350.0,350.0,350.0,500.0,"<div class = starbox><img class = center src=""/static/experiments/stop_signal_with_shape_matching/images/stopSignal.png""></img></div>",stop,,2000.0,,-1.0,1.0,0.0,9.0,none,stop_signal_with_shape_matching,,,,,,0.0-3.0-19.0,-1.0,"[77, 90]",8.0,,-1,DNN,1000.0,"<div class = bigbox><div class = leftbox><img class = center src=""/static/experiments/stop_signal_with_shape_matching/images/10_green.png""></img></div><div class = distractorbox></div><div class = rightbox><img class = center src=""/static/experiments/stop_signal_with_shape_matching/images/8_white.png""></img></div></div>",1.0,stop,10.0,,378436,0.0,test_trial,86,stop-signal,
87,,,,,,,,,500.0,,,,,,,stop_signal_with_shape_matching,,,,,,0.0-3.0-20.0,-1.0,none,,,-1,,500.0,"<div class = bigbox><div class = leftbox><img class = center src=""/static/experiments/stop_signal_with_shape_matching/images/mask.png""></img><div class = centerbox><div class = fixation>+</div></div></div><div class = rightbox><img class = center src=""/static/experiments/stop_signal_with_shape_matching/images/mask.png""></img><div class = centerbox><div class = fixation>+</div></div></div></div>",,,,,378939,0.0,test_mask,87,poldrack-single-stim,
88,400.0,400.0,350.0,400.0,500.0,"<div class = starbox><img class = center src=""/static/experiments/stop_signal_with_shape_matching/images/stopSignal.png""></img></div>",stop,,2000.0,,-1.0,1.0,0.0,10.0,6,stop_signal_with_shape_matching,,,,,,0.0-3.0-21.0,-1.0,"[77, 90]",9.0,,-1,DDD,1000.0,"<div class = bigbox><div class = leftbox><img class = center src=""/static/experiments/stop_signal_with_shape_matching/images/8_green.png""></img></div><div class = distractorbox><img class = center src=""/static/experiments/stop_signal_with_shape_matching/images/6_red.png""></img></div><div class = rightbox><img class = center src=""/static/experiments/stop_signal_with_shape_matching/images/9_white.png""></img></div></div>",1.0,stop,8.0,,380941,0.0,test_trial,88,stop-signal,
89,,,,,,,,,500.0,,,,,,,stop_signal_with_shape_matching,,,,,,0.0-3.0-22.0,-1.0,none,,,-1,,500.0,"<div class = bigbox><div class = leftbox><img class = center src=""/static/experiments/stop_signal_with_shape_matching/images/mask.png""></img><div class = centerbox><div class = fixation>+</div></div></div><div class = rightbox><img class = center src=""/static/experiments/stop_signal_with_shape_matching/images/mask.png""></img><div class = centerbox><div class = fixation>+</div></div></div></div>",,,,,381444,0.0,test_mask,89,poldrack-single-stim,
90,450.0,400.0,350.0,450.0,500.0,"<div class = starbox><img class = center src=""/static/experiments/stop_signal_with_shape_matching/images/stopSignal.png""></img></div>",go,,2000.0,,77.0,1.0,0.0,11.0,8,stop_signal_with_shape_matching,,,,,,0.0-3.0-23.0,77.0,"[77, 90]",5.0,,659,SDD,1000.0,"<div class = bigbox><div class = leftbox><img class = center src=""/static/experiments/stop_signal_with_shape_matching/images/5_green.png""></img></div><div class = distractorbox><img class = center src=""/static/experiments/stop_signal_with_shape_matching/images/8_red.png""></img></div><div class = rightbox><img class = center src=""/static/experiments/stop_signal_with_shape_matching/images/5_white.png""></img></div></div>",,go,5.0,,383447,0.0,test_trial,90,stop-signal,
91,,,,,,,,,500.0,,,,,,,stop_signal_with_shape_matching,,,,,,0.0-3.0-24.0,-1.0,none,,,-1,,500.0,"<div class = bigbox><div class = leftbox><img class = center src=""/static/experiments/stop_signal_with_shape_matching/images/mask.png""></img><div class = centerbox><div class = fixation>+</div></div></div><div class = rightbox><img class = center src=""/static/experiments/stop_signal_with_shape_matching/images/mask.png""></img><div class = centerbox><div class = fixation>+</div></div></div></div>",,,,,383949,0.0,test_mask,91,poldrack-single-stim,
92,450.0,400.0,350.0,350.0,500.0,"<div class = starbox><img class = center src=""/static/experiments/stop_signal_with_shape_matching/images/stopSignal.png""></img></div>",go,,2000.0,,77.0,1.0,0.0,12.0,7,stop_signal_with_shape_matching,,,,,,0.0-3.0-25.0,77.0,"[77, 90]",7.0,,682,SSS,1000.0,"<div class = bigbox><div class = leftbox><img class = center src=""/static/experiments/stop_signal_with_shape_matching/images/7_green.png""></img></div><div class = distractorbox><img class = center src=""/static/experiments/stop_signal_with_shape_matching/images/7_red.png""></img></div><div class = rightbox><img class = center src=""/static/experiments/stop_signal_with_shape_matching/images/7_white.png""></img></div></div>",,go,7.0,,385952,0.0,test_trial,92,stop-signal,
93,,,,,,,,,500.0,,,,,,,stop_signal_with_shape_matching,,,,,,0.0-3.0-26.0,-1.0,none,,,-1,,500.0,"<div class = bigbox><div class = leftbox><img class = center src=""/static/experiments/stop_signal_with_shape_matching/images/mask.png""></img><div class = centerbox><div class = fixation>+</div></div></div><div class = rightbox><img class = center src=""/static/experiments/stop_signal_with_shape_matching/images/mask.png""></img><div class = centerbox><div class = fixation>+</div></div></div></div>",,,,,386455,0.0,test_mask,93,poldrack-single-stim,
94,450.0,400.0,350.0,350.0,500.0,"<div class = starbox><img class = center src=""/static/experiments/stop_signal_with_shape_matching/images/stopSignal.png""></img></div>",go,,2000.0,,90.0,1.0,0.0,13.0,10,stop_signal_with_shape_matching,,,,,,0.0-3.0-27.0,90.0,"[77, 90]",8.0,,672,DSD,1000.0,"<div class = bigbox><div class = leftbox><img class = center src=""/static/experiments/stop_signal_with_shape_matching/images/10_green.png""></img></div><div class = distractorbox><img class = center src=""/static/experiments/stop_signal_with_shape_matching/images/10_red.png""></img></div><div class = rightbox><img class = center src=""/static/experiments/stop_signal_with_shape_matching/images/8_white.png""></img></div></div>",,go,10.0,,388456,0.0,test_trial,94,stop-signal,
95,,,,,,,,,500.0,,,,,,,stop_signal_with_shape_matching,,,,,,0.0-3.0-28.0,-1.0,none,,,-1,,500.0,"<div class = bigbox><div class = leftbox><img class = center src=""/static/experiments/stop_signal_with_shape_matching/images/mask.png""></img><div class = centerbox><div class = fixation>+</div></div></div><div class = rightbox><img class = center src=""/static/experiments/stop_signal_with_shape_matching/images/mask.png""></img><div class = centerbox><div class = fixation>+</div></div></div></div>",,,,,388959,0.0,test_mask,95,poldrack-single-stim,
96,450.0,400.0,350.0,450.0,500.0,"<div class = starbox><img class = center src=""/static/experiments/stop_signal_with_shape_matching/images/stopSignal.png""></img></div>",go,,2000.0,,90.0,1.0,0.0,14.0,4,stop_signal_with_shape_matching,,,,,,0.0-3.0-29.0,90.0,"[77, 90]",8.0,,584,DDD,1000.0,"<div class = bigbox><div class = leftbox><img class = center src=""/static/experiments/stop_signal_with_shape_matching/images/3_green.png""></img></div><div class = distractorbox><img class = center src=""/static/experiments/stop_signal_with_shape_matching/images/4_red.png""></img></div><div class = rightbox><img class = center src=""/static/experiments/stop_signal_with_shape_matching/images/8_white.png""></img></div></div>",,go,3.0,,390962,0.0,test_trial,96,stop-signal,
97,,,,,,,,,500.0,,,,,,,stop_signal_with_shape_matching,,,,,,0.0-3.0-30.0,-1.0,none,,,-1,,500.0,"<div class = bigbox><div class = leftbox><img class = center src=""/static/experiments/stop_signal_with_shape_matching/images/mask.png""></img><div class = centerbox><div class = fixation>+</div></div></div><div class = rightbox><img class = center src=""/static/experiments/stop_signal_with_shape_matching/images/mask.png""></img><div class = centerbox><div class = fixation>+</div></div></div></div>",,,,,391465,0.0,test_mask,97,poldrack-single-stim,
98,450.0,400.0,350.0,350.0,500.0,"<div class = starbox><img class = center src=""/static/experiments/stop_signal_with_shape_matching/images/stopSignal.png""></img></div>",go,,2000.0,,77.0,1.0,0.0,15.0,4,stop_signal_with_shape_matching,,,,,,0.0-3.0-31.0,77.0,"[77, 90]",4.0,,727,SSS,1000.0,"<div class = bigbox><div class = leftbox><img class = center src=""/static/experiments/stop_signal_with_shape_matching/images/4_green.png""></img></div><div class = distractorbox><img class = center src=""/static/experiments/stop_signal_with_shape_matching/images/4_red.png""></img></div><div class = rightbox><img class = center src=""/static/experiments/stop_signal_with_shape_matching/images/4_white.png""></img></div></div>",,go,4.0,,393467,0.0,test_trial,98,stop-signal,
99,,,,,,,,,500.0,,,,,,,stop_signal_with_shape_matching,,,,,,0.0-3.0-32.0,-1.0,none,,,-1,,500.0,"<div class = bigbox><div class = leftbox><img class = center src=""/static/experiments/stop_signal_with_shape_matching/images/mask.png""></img><div class = centerbox><div class = fixation>+</div></div></div><div class = rightbox><img class = center src=""/static/experiments/stop_signal_with_shape_matching/images/mask.png""></img><div class = centerbox><div class = fixation>+</div></div></div></div>",,,,,393970,0.0,test_mask,99,poldrack-single-stim,
100,450.0,400.0,350.0,450.0,500.0,"<div class = starbox><img class = center src=""/static/experiments/stop_signal_with_shape_matching/images/stopSignal.png""></img></div>",go,,2000.0,,90.0,1.0,0.0,16.0,7,stop_signal_with_shape_matching,,,,,,0.0-3.0-33.0,90.0,"[77, 90]",5.0,,573,DDD,1000.0,"<div class = bigbox><div class = leftbox><img class = center src=""/static/experiments/stop_signal_with_shape_matching/images/9_green.png""></img></div><div class = distractorbox><img class = center src=""/static/experiments/stop_signal_with_shape_matching/images/7_red.png""></img></div><div class = rightbox><img class = center src=""/static/experiments/stop_signal_with_shape_matching/images/5_white.png""></img></div></div>",,go,9.0,,395973,0.0,test_trial,100,stop-signal,
101,,,,,,,,,500.0,,,,,,,stop_signal_with_shape_matching,,,,,,0.0-3.0-34.0,-1.0,none,,,-1,,500.0,"<div class = bigbox><div class = leftbox><img class = center src=""/static/experiments/stop_signal_with_shape_matching/images/mask.png""></img><div class = centerbox><div class = fixation>+</div></div></div><div class = rightbox><img class = center src=""/static/experiments/stop_signal_with_shape_matching/images/mask.png""></img><div class = centerbox><div class = fixation>+</div></div></div></div>",,,,,396475,0.0,test_mask,101,poldrack-single-stim,
102,450.0,400.0,350.0,450.0,500.0,"<div class = starbox><img class = center src=""/static/experiments/stop_signal_with_shape_matching/images/stopSignal.png""></img></div>",stop,,2000.0,,-1.0,0.0,0.0,17.0,3,stop_signal_with_shape_matching,,,,,,0.0-3.0-35.0,90.0,"[77, 90]",1.0,,604,DDD,1000.0,"<div class = bigbox><div class = leftbox><img class = center src=""/static/experiments/stop_signal_with_shape_matching/images/5_green.png""></img></div><div class = distractorbox><img class = center src=""/static/experiments/stop_signal_with_shape_matching/images/3_red.png""></img></div><div class = rightbox><img class = center src=""/static/experiments/stop_signal_with_shape_matching/images/1_white.png""></img></div></div>",0.0,stop,5.0,,398478,0.0,test_trial,102,stop-signal,
103,,,,,,,,,500.0,,,,,,,stop_signal_with_shape_matching,,,,,,0.0-3.0-36.0,-1.0,none,,,-1,,500.0,"<div class = bigbox><div class = leftbox><img class = center src=""/static/experiments/stop_signal_with_shape_matching/images/mask.png""></img><div class = centerbox><div class = fixation>+</div></div></div><div class = rightbox><img class = center src=""/static/experiments/stop_signal_with_shape_matching/images/mask.png""></img><div class = centerbox><div class = fixation>+</div></div></div></div>",,,,,398981,0.0,test_mask,103,poldrack-single-stim,
104,400.0,400.0,350.0,350.0,500.0,"<div class = starbox><img class = center src=""/static/experiments/stop_signal_with_shape_matching/images/stopSignal.png""></img></div>",go,,2000.0,,90.0,1.0,0.0,18.0,7,stop_signal_with_shape_matching,,,,,,0.0-3.0-37.0,90.0,"[77, 90]",4.0,,666,DSD,1000.0,"<div class = bigbox><div class = leftbox><img class = center src=""/static/experiments/stop_signal_with_shape_matching/images/7_green.png""></img></div><div class = distractorbox><img class = center src=""/static/experiments/stop_signal_with_shape_matching/images/7_red.png""></img></div><div class = rightbox><img class = center src=""/static/experiments/stop_signal_with_shape_matching/images/4_white.png""></img></div></div>",,go,7.0,,400984,0.0,test_trial,104,stop-signal,
105,,,,,,,,,500.0,,,,,,,stop_signal_with_shape_matching,,,,,,0.0-3.0-38.0,-1.0,none,,,-1,,500.0,"<div class = bigbox><div class = leftbox><img class = center src=""/static/experiments/stop_signal_with_shape_matching/images/mask.png""></img><div class = centerbox><div class = fixation>+</div></div></div><div class = rightbox><img class = center src=""/static/experiments/stop_signal_with_shape_matching/images/mask.png""></img><div class = centerbox><div class = fixation>+</div></div></div></div>",,,,,401486,0.0,test_mask,105,poldrack-single-stim,
106,400.0,400.0,350.0,400.0,500.0,"<div class = starbox><img class = center src=""/static/experiments/stop_signal_with_shape_matching/images/stopSignal.png""></img></div>",go,,2000.0,,90.0,1.0,0.0,19.0,6,stop_signal_with_shape_matching,,,,,,0.0-3.0-39.0,90.0,"[77, 90]",6.0,,625,DDS,1000.0,"<div class = bigbox><div class = leftbox><img class = center src=""/static/experiments/stop_signal_with_shape_matching/images/1_green.png""></img></div><div class = distractorbox><img class = center src=""/static/experiments/stop_signal_with_shape_matching/images/6_red.png""></img></div><div class = rightbox><img class = center src=""/static/experiments/stop_signal_with_shape_matching/images/6_white.png""></img></div></div>",,go,1.0,,403489,0.0,test_trial,106,stop-signal,
107,,,,,,,,,500.0,,,,,,,stop_signal_with_shape_matching,,,,,,0.0-3.0-40.0,-1.0,none,,,-1,,500.0,"<div class = bigbox><div class = leftbox><img class = center src=""/static/experiments/stop_signal_with_shape_matching/images/mask.png""></img><div class = centerbox><div class = fixation>+</div></div></div><div class = rightbox><img class = center src=""/static/experiments/stop_signal_with_shape_matching/images/mask.png""></img><div class = centerbox><div class = fixation>+</div></div></div></div>",,,,,403992,0.0,test_mask,107,poldrack-single-stim,
108,400.0,400.0,350.0,350.0,500.0,"<div class = starbox><img class = center src=""/static/experiments/stop_signal_with_shape_matching/images/stopSignal.png""></img></div>",go,,2000.0,,77.0,1.0,0.0,20.0,8,stop_signal_with_shape_matching,,,,,,0.0-3.0-41.0,77.0,"[77, 90]",8.0,,552,SSS,1000.0,"<div class = bigbox><div class = leftbox><img class = center src=""/static/experiments/stop_signal_with_shape_matching/images/8_green.png""></img></div><div class = distractorbox><img class = center src=""/static/experiments/stop_signal_with_shape_matching/images/8_red.png""></img></div><div class = rightbox><img class = center src=""/static/experiments/stop_signal_with_shape_matching/images/8_white.png""></img></div></div>",,go,8.0,,405994,0.0,test_trial,108,stop-signal,
109,,,,,,,,,500.0,,,,,,,stop_signal_with_shape_matching,,,,,,0.0-3.0-42.0,-1.0,none,,,-1,,500.0,"<div class = bigbox><div class = leftbox><img class = center src=""/static/experiments/stop_signal_with_shape_matching/images/mask.png""></img><div class = centerbox><div class = fixation>+</div></div></div><div class = rightbox><img class = center src=""/static/experiments/stop_signal_with_shape_matching/images/mask.png""></img><div class = centerbox><div class = fixation>+</div></div></div></div>",,,,,406496,0.0,test_mask,109,poldrack-single-stim,
110,400.0,400.0,350.0,350.0,500.0,"<div class = starbox><img class = center src=""/static/experiments/stop_signal_with_shape_matching/images/stopSignal.png""></img></div>",go,,2000.0,,90.0,1.0,0.0,21.0,5,stop_signal_with_shape_matching,,,,,,0.0-3.0-43.0,90.0,"[77, 90]",8.0,,679,DSD,1000.0,"<div class = bigbox><div class = leftbox><img class = center src=""/static/experiments/stop_signal_with_shape_matching/images/5_green.png""></img></div><div class = distractorbox><img class = center src=""/static/experiments/stop_signal_with_shape_matching/images/5_red.png""></img></div><div class = rightbox><img class = center src=""/static/experiments/stop_signal_with_shape_matching/images/8_white.png""></img></div></div>",,go,5.0,,408499,0.0,test_trial,110,stop-signal,
111,,,,,,,,,500.0,,,,,,,stop_signal_with_shape_matching,,,,,,0.0-3.0-44.0,-1.0,none,,,-1,,500.0,"<div class = bigbox><div class = leftbox><img class = center src=""/static/experiments/stop_signal_with_shape_matching/images/mask.png""></img><div class = centerbox><div class = fixation>+</div></div></div><div class = rightbox><img class = center src=""/static/experiments/stop_signal_with_shape_matching/images/mask.png""></img><div class = centerbox><div class = fixation>+</div></div></div></div>",,,,,409001,0.0,test_mask,111,poldrack-single-stim,
112,400.0,400.0,350.0,400.0,500.0,"<div class = starbox><img class = center src=""/static/experiments/stop_signal_with_shape_matching/images/stopSignal.png""></img></div>",go,,2000.0,,77.0,1.0,0.0,22.0,4,stop_signal_with_shape_matching,,,,,,0.0-3.0-45.0,77.0,"[77, 90]",5.0,,806,SDD,1000.0,"<div class = bigbox><div class = leftbox><img class = center src=""/static/experiments/stop_signal_with_shape_matching/images/5_green.png""></img></div><div class = distractorbox><img class = center src=""/static/experiments/stop_signal_with_shape_matching/images/4_red.png""></img></div><div class = rightbox><img class = center src=""/static/experiments/stop_signal_with_shape_matching/images/5_white.png""></img></div></div>",,go,5.0,,411004,0.0,test_trial,112,stop-signal,
113,,,,,,,,,500.0,,,,,,,stop_signal_with_shape_matching,,,,,,0.0-3.0-46.0,-1.0,none,,,-1,,500.0,"<div class = bigbox><div class = leftbox><img class = center src=""/static/experiments/stop_signal_with_shape_matching/images/mask.png""></img><div class = centerbox><div class = fixation>+</div></div></div><div class = rightbox><img class = center src=""/static/experiments/stop_signal_with_shape_matching/images/mask.png""></img><div class = centerbox><div class = fixation>+</div></div></div></div>",,,,,411507,0.0,test_mask,113,poldrack-single-stim,
114,400.0,400.0,350.0,350.0,500.0,"<div class = starbox><img class = center src=""/static/experiments/stop_signal_with_shape_matching/images/stopSignal.png""></img></div>",go,,2000.0,,90.0,1.0,0.0,23.0,2,stop_signal_with_shape_matching,,,,,,0.0-3.0-47.0,90.0,"[77, 90]",7.0,,692,DSD,1000.0,"<div class = bigbox><div class = leftbox><img class = center src=""/static/experiments/stop_signal_with_shape_matching/images/2_green.png""></img></div><div class = distractorbox><img class = center src=""/static/experiments/stop_signal_with_shape_matching/images/2_red.png""></img></div><div class = rightbox><img class = center src=""/static/experiments/stop_signal_with_shape_matching/images/7_white.png""></img></div></div>",,go,2.0,,413510,0.0,test_trial,114,stop-signal,
115,,,,,,,,,500.0,,,,,,,stop_signal_with_shape_matching,,,,,,0.0-3.0-48.0,-1.0,none,,,-1,,500.0,"<div class = bigbox><div class = leftbox><img class = center src=""/static/experiments/stop_signal_with_shape_matching/images/mask.png""></img><div class = centerbox><div class = fixation>+</div></div></div><div class = rightbox><img class = center src=""/static/experiments/stop_signal_with_shape_matching/images/mask.png""></img><div class = centerbox><div class = fixation>+</div></div></div></div>",,,,,414012,0.0,test_mask,115,poldrack-single-stim,
116,400.0,400.0,350.0,400.0,500.0,"<div class = starbox><img class = center src=""/static/experiments/stop_signal_with_shape_matching/images/stopSignal.png""></img></div>",go,,2000.0,,90.0,1.0,0.0,24.0,6,stop_signal_with_shape_matching,,,,,,0.0-3.0-49.0,90.0,"[77, 90]",6.0,,708,DDS,1000.0,"<div class = bigbox><div class = leftbox><img class = center src=""/static/experiments/stop_signal_with_shape_matching/images/9_green.png""></img></div><div class = distractorbox><img class = center src=""/static/experiments/stop_signal_with_shape_matching/images/6_red.png""></img></div><div class = rightbox><img class = center src=""/static/experiments/stop_signal_with_shape_matching/images/6_white.png""></img></div></div>",,go,9.0,,416015,0.0,test_trial,116,stop-signal,
117,,,,,,,,,500.0,,,,,,,stop_signal_with_shape_matching,,,,,,0.0-3.0-50.0,-1.0,none,,,-1,,500.0,"<div class = bigbox><div class = leftbox><img class = center src=""/static/experiments/stop_signal_with_shape_matching/images/mask.png""></img><div class = centerbox><div class = fixation>+</div></div></div><div class = rightbox><img class = center src=""/static/experiments/stop_signal_with_shape_matching/images/mask.png""></img><div class = centerbox><div class = fixation>+</div></div></div></div>",,,,,416518,0.0,test_mask,117,poldrack-single-stim,
118,400.0,400.0,350.0,400.0,500.0,"<div class = starbox><img class = center src=""/static/experiments/stop_signal_with_shape_matching/images/stopSignal.png""></img></div>",stop,,2000.0,,-1.0,1.0,0.0,25.0,7,stop_signal_with_shape_matching,,,,,,0.0-3.0-51.0,-1.0,"[77, 90]",7.0,,-1,DDS,1000.0,"<div class = bigbox><div class = leftbox><img class = center src=""/static/experiments/stop_signal_with_shape_matching/images/6_green.png""></img></div><div class = distractorbox><img class = center src=""/static/experiments/stop_signal_with_shape_matching/images/7_red.png""></img></div><div class = rightbox><img class = center src=""/static/experiments/stop_signal_with_shape_matching/images/7_white.png""></img></div></div>",1.0,stop,6.0,,418520,0.0,test_trial,118,stop-signal,
119,,,,,,,,,500.0,,,,,,,stop_signal_with_shape_matching,,,,,,0.0-3.0-52.0,-1.0,none,,,-1,,500.0,"<div class = bigbox><div class = leftbox><img class = center src=""/static/experiments/stop_signal_with_shape_matching/images/mask.png""></img><div class = centerbox><div class = fixation>+</div></div></div><div class = rightbox><img class = center src=""/static/experiments/stop_signal_with_shape_matching/images/mask.png""></img><div class = centerbox><div class = fixation>+</div></div></div></div>",,,,,419023,0.0,test_mask,119,poldrack-single-stim,
120,450.0,400.0,350.0,350.0,500.0,"<div class = starbox><img class = center src=""/static/experiments/stop_signal_with_shape_matching/images/stopSignal.png""></img></div>",stop,,2000.0,,-1.0,1.0,0.0,26.0,7,stop_signal_with_shape_matching,,,,,,0.0-3.0-53.0,-1.0,"[77, 90]",8.0,,-1,DSD,1000.0,"<div class = bigbox><div class = leftbox><img class = center src=""/static/experiments/stop_signal_with_shape_matching/images/7_green.png""></img></div><div class = distractorbox><img class = center src=""/static/experiments/stop_signal_with_shape_matching/images/7_red.png""></img></div><div class = rightbox><img class = center src=""/static/experiments/stop_signal_with_shape_matching/images/8_white.png""></img></div></div>",1.0,stop,7.0,,421026,0.0,test_trial,120,stop-signal,
121,,,,,,,,,500.0,,,,,,,stop_signal_with_shape_matching,,,,,,0.0-3.0-54.0,-1.0,none,,,-1,,500.0,"<div class = bigbox><div class = leftbox><img class = center src=""/static/experiments/stop_signal_with_shape_matching/images/mask.png""></img><div class = centerbox><div class = fixation>+</div></div></div><div class = rightbox><img class = center src=""/static/experiments/stop_signal_with_shape_matching/images/mask.png""></img><div class = centerbox><div class = fixation>+</div></div></div></div>",,,,,421528,0.0,test_mask,121,poldrack-single-stim,
122,450.0,400.0,400.0,450.0,500.0,"<div class = starbox><img class = center src=""/static/experiments/stop_signal_with_shape_matching/images/stopSignal.png""></img></div>",stop,,2000.0,,-1.0,1.0,0.0,27.0,1,stop_signal_with_shape_matching,,,,,,0.0-3.0-55.0,-1.0,"[77, 90]",3.0,,-1,SDD,1000.0,"<div class = bigbox><div class = leftbox><img class = center src=""/static/experiments/stop_signal_with_shape_matching/images/3_green.png""></img></div><div class = distractorbox><img class = center src=""/static/experiments/stop_signal_with_shape_matching/images/1_red.png""></img></div><div class = rightbox><img class = center src=""/static/experiments/stop_signal_with_shape_matching/images/3_white.png""></img></div></div>",1.0,stop,3.0,,423530,0.0,test_trial,122,stop-signal,
123,,,,,,,,,500.0,,,,,,,stop_signal_with_shape_matching,,,,,,0.0-3.0-56.0,-1.0,none,,,-1,,500.0,"<div class = bigbox><div class = leftbox><img class = center src=""/static/experiments/stop_signal_with_shape_matching/images/mask.png""></img><div class = centerbox><div class = fixation>+</div></div></div><div class = rightbox><img class = center src=""/static/experiments/stop_signal_with_shape_matching/images/mask.png""></img><div class = centerbox><div class = fixation>+</div></div></div></div>",,,,,424033,0.0,test_mask,123,poldrack-single-stim,
124,500.0,400.0,400.0,500.0,500.0,"<div class = starbox><img class = center src=""/static/experiments/stop_signal_with_shape_matching/images/stopSignal.png""></img></div>",stop,,2000.0,,-1.0,0.0,0.0,28.0,7,stop_signal_with_shape_matching,,,,,,0.0-3.0-57.0,90.0,"[77, 90]",7.0,,662,DDS,1000.0,"<div class = bigbox><div class = leftbox><img class = center src=""/static/experiments/stop_signal_with_shape_matching/images/10_green.png""></img></div><div class = distractorbox><img class = center src=""/static/experiments/stop_signal_with_shape_matching/images/7_red.png""></img></div><div class = rightbox><img class = center src=""/static/experiments/stop_signal_with_shape_matching/images/7_white.png""></img></div></div>",0.0,stop,10.0,,426036,0.0,test_trial,124,stop-signal,
125,,,,,,,,,500.0,,,,,,,stop_signal_with_shape_matching,,,,,,0.0-3.0-58.0,-1.0,none,,,-1,,500.0,"<div class = bigbox><div class = leftbox><img class = center src=""/static/experiments/stop_signal_with_shape_matching/images/mask.png""></img><div class = centerbox><div class = fixation>+</div></div></div><div class = rightbox><img class = center src=""/static/experiments/stop_signal_with_shape_matching/images/mask.png""></img><div class = centerbox><div class = fixation>+</div></div></div></div>",,,,,426538,0.0,test_mask,125,poldrack-single-stim,
126,450.0,400.0,400.0,400.0,500.0,"<div class = starbox><img class = center src=""/static/experiments/stop_signal_with_shape_matching/images/stopSignal.png""></img></div>",go,,2000.0,,77.0,1.0,0.0,29.0,4,stop_signal_with_shape_matching,,,,,,0.0-3.0-59.0,77.0,"[77, 90]",4.0,,645,SSS,1000.0,"<div class = bigbox><div class = leftbox><img class = center src=""/static/experiments/stop_signal_with_shape_matching/images/4_green.png""></img></div><div class = distractorbox><img class = center src=""/static/experiments/stop_signal_with_shape_matching/images/4_red.png""></img></div><div class = rightbox><img class = center src=""/static/experiments/stop_signal_with_shape_matching/images/4_white.png""></img></div></div>",,go,4.0,,428540,0.0,test_trial,126,stop-signal,
127,,,,,,,,,500.0,,,,,,,stop_signal_with_shape_matching,,,,,,0.0-3.0-60.0,-1.0,none,,,-1,,500.0,"<div class = bigbox><div class = leftbox><img class = center src=""/static/experiments/stop_signal_with_shape_matching/images/mask.png""></img><div class = centerbox><div class = fixation>+</div></div></div><div class = rightbox><img class = center src=""/static/experiments/stop_signal_with_shape_matching/images/mask.png""></img><div class = centerbox><div class = fixation>+</div></div></div></div>",,,,,429043,0.0,test_mask,127,poldrack-single-stim,
128,450.0,400.0,400.0,450.0,500.0,"<div class = starbox><img class = center src=""/static/experiments/stop_signal_with_shape_matching/images/stopSignal.png""></img></div>",stop,,2000.0,,-1.0,0.0,0.0,30.0,1,stop_signal_with_shape_matching,,,,,,0.0-3.0-61.0,90.0,"[77, 90]",6.0,,645,DDD,1000.0,"<div class = bigbox><div class = leftbox><img class = center src=""/static/experiments/stop_signal_with_shape_matching/images/5_green.png""></img></div><div class = distractorbox><img class = center src=""/static/experiments/stop_signal_with_shape_matching/images/1_red.png""></img></div><div class = rightbox><img class = center src=""/static/experiments/stop_signal_with_shape_matching/images/6_white.png""></img></div></div>",0.0,stop,5.0,,431045,0.0,test_trial,128,stop-signal,
129,,,,,,,,,500.0,,,,,,,stop_signal_with_shape_matching,,,,,,0.0-3.0-62.0,-1.0,none,,,-1,,500.0,"<div class = bigbox><div class = leftbox><img class = center src=""/static/experiments/stop_signal_with_shape_matching/images/mask.png""></img><div class = centerbox><div class = fixation>+</div></div></div><div class = rightbox><img class = center src=""/static/experiments/stop_signal_with_shape_matching/images/mask.png""></img><div class = centerbox><div class = fixation>+</div></div></div></div>",,,,,431548,0.0,test_mask,129,poldrack-single-stim,
130,400.0,400.0,400.0,400.0,500.0,"<div class = starbox><img class = center src=""/static/experiments/stop_signal_with_shape_matching/images/stopSignal.png""></img></div>",go,,2000.0,,77.0,1.0,0.0,31.0,6,stop_signal_with_shape_matching,,,,,,0.0-3.0-63.0,77.0,"[77, 90]",8.0,,611,SDD,1000.0,"<div class = bigbox><div class = leftbox><img class = center src=""/static/experiments/stop_signal_with_shape_matching/images/8_green.png""></img></div><div class = distractorbox><img class = center src=""/static/experiments/stop_signal_with_shape_matching/images/6_red.png""></img></div><div class = rightbox><img class = center src=""/static/experiments/stop_signal_with_shape_matching/images/8_white.png""></img></div></div>",,go,8.0,,433550,0.0,test_trial,130,stop-signal,
131,,,,,,,,,500.0,,,,,,,stop_signal_with_shape_matching,,,,,,0.0-3.0-64.0,-1.0,none,,,-1,,500.0,"<div class = bigbox><div class = leftbox><img class = center src=""/static/experiments/stop_signal_with_shape_matching/images/mask.png""></img><div class = centerbox><div class = fixation>+</div></div></div><div class = rightbox><img class = center src=""/static/experiments/stop_signal_with_shape_matching/images/mask.png""></img><div class = centerbox><div class = fixation>+</div></div></div></div>",,,,,434052,0.0,test_mask,131,poldrack-single-stim,
132,400.0,400.0,400.0,400.0,500.0,"<div class = starbox><img class = center src=""/static/experiments/stop_signal_with_shape_matching/images/stopSignal.png""></img></div>",go,,2000.0,,90.0,1.0,0.0,32.0,6,stop_signal_with_shape_matching,,,,,,0.0-3.0-65.0,90.0,"[77, 90]",5.0,,651,DDD,1000.0,"<div class = bigbox><div class = leftbox><img class = center src=""/static/experiments/stop_signal_with_shape_matching/images/1_green.png""></img></div><div class = distractorbox><img class = center src=""/static/experiments/stop_signal_with_shape_matching/images/6_red.png""></img></div><div class = rightbox><img class = center src=""/static/experiments/stop_signal_with_shape_matching/images/5_white.png""></img></div></div>",,go,1.0,,436054,0.0,test_trial,132,stop-signal,
133,,,,,,,,,500.0,,,,,,,stop_signal_with_shape_matching,,,,,,0.0-3.0-66.0,-1.0,none,,,-1,,500.0,"<div class = bigbox><div class = leftbox><img class = center src=""/static/experiments/stop_signal_with_shape_matching/images/mask.png""></img><div class = centerbox><div class = fixation>+</div></div></div><div class = rightbox><img class = center src=""/static/experiments/stop_signal_with_shape_matching/images/mask.png""></img><div class = centerbox><div class = fixation>+</div></div></div></div>",,,,,436557,0.0,test_mask,133,poldrack-single-stim,
134,400.0,400.0,400.0,400.0,500.0,"<div class = starbox><img class = center src=""/static/experiments/stop_signal_with_shape_matching/images/stopSignal.png""></img></div>",stop,,2000.0,,-1.0,1.0,0.0,33.0,8,stop_signal_with_shape_matching,,,,,,0.0-3.0-67.0,-1.0,"[77, 90]",7.0,,-1,DSD,1000.0,"<div class = bigbox><div class = leftbox><img class = center src=""/static/experiments/stop_signal_with_shape_matching/images/8_green.png""></img></div><div class = distractorbox><img class = center src=""/static/experiments/stop_signal_with_shape_matching/images/8_red.png""></img></div><div class = rightbox><img class = center src=""/static/experiments/stop_signal_with_shape_matching/images/7_white.png""></img></div></div>",1.0,stop,8.0,,438560,0.0,test_trial,134,stop-signal,
135,,,,,,,,,500.0,,,,,,,stop_signal_with_shape_matching,,,,,,0.0-3.0-68.0,-1.0,none,,,-1,,500.0,"<div class = bigbox><div class = leftbox><img class = center src=""/static/experiments/stop_signal_with_shape_matching/images/mask.png""></img><div class = centerbox><div class = fixation>+</div></div></div><div class = rightbox><img class = center src=""/static/experiments/stop_signal_with_shape_matching/images/mask.png""></img><div class = centerbox><div class = fixation>+</div></div></div></div>",,,,,439062,0.0,test_mask,135,poldrack-single-stim,
136,400.0,400.0,450.0,450.0,500.0,"<div class = starbox><img class = center src=""/static/experiments/stop_signal_with_shape_matching/images/stopSignal.png""></img></div>",stop,,2000.0,,-1.0,1.0,0.0,34.0,1,stop_signal_with_shape_matching,,,,,,0.0-3.0-69.0,-1.0,"[77, 90]",5.0,,-1,DSD,1000.0,"<div class = bigbox><div class = leftbox><img class = center src=""/static/experiments/stop_signal_with_shape_matching/images/1_green.png""></img></div><div class = distractorbox><img class = center src=""/static/experiments/stop_signal_with_shape_matching/images/1_red.png""></img></div><div class = rightbox><img class = center src=""/static/experiments/stop_signal_with_shape_matching/images/5_white.png""></img></div></div>",1.0,stop,1.0,,441065,0.0,test_trial,136,stop-signal,
137,,,,,,,,,500.0,,,,,,,stop_signal_with_shape_matching,,,,,,0.0-3.0-70.0,-1.0,none,,,-1,,500.0,"<div class = bigbox><div class = leftbox><img class = center src=""/static/experiments/stop_signal_with_shape_matching/images/mask.png""></img><div class = centerbox><div class = fixation>+</div></div></div><div class = rightbox><img class = center src=""/static/experiments/stop_signal_with_shape_matching/images/mask.png""></img><div class = centerbox><div class = fixation>+</div></div></div></div>",,,,,441568,0.0,test_mask,137,poldrack-single-stim,
138,400.0,400.0,500.0,400.0,500.0,"<div class = starbox><img class = center src=""/static/experiments/stop_signal_with_shape_matching/images/stopSignal.png""></img></div>",go,,2000.0,,90.0,1.0,0.0,35.0,5,stop_signal_with_shape_matching,,,,,,0.0-3.0-71.0,90.0,"[77, 90]",7.0,,880,DDD,1000.0,"<div class = bigbox><div class = leftbox><img class = center src=""/static/experiments/stop_signal_with_shape_matching/images/8_green.png""></img></div><div class = distractorbox><img class = center src=""/static/experiments/stop_signal_with_shape_matching/images/5_red.png""></img></div><div class = rightbox><img class = center src=""/static/experiments/stop_signal_with_shape_matching/images/7_white.png""></img></div></div>",,go,8.0,,443569,0.0,test_trial,138,stop-signal,
139,,,,,,,,,500.0,,,,,,,stop_signal_with_shape_matching,,,,,,0.0-3.0-72.0,-1.0,none,,,-1,,500.0,"<div class = bigbox><div class = leftbox><img class = center src=""/static/experiments/stop_signal_with_shape_matching/images/mask.png""></img><div class = centerbox><div class = fixation>+</div></div></div><div class = rightbox><img class = center src=""/static/experiments/stop_signal_with_shape_matching/images/mask.png""></img><div class = centerbox><div class = fixation>+</div></div></div></div>",,,,,444072,0.0,test_mask,139,poldrack-single-stim,
140,400.0,400.0,500.0,400.0,500.0,"<div class = starbox><img class = center src=""/static/experiments/stop_signal_with_shape_matching/images/stopSignal.png""></img></div>",go,,2000.0,,77.0,1.0,0.0,36.0,none,stop_signal_with_shape_matching,,,,,,0.0-3.0-73.0,77.0,"[77, 90]",1.0,,575,SNN,1000.0,"<div class = bigbox><div class = leftbox><img class = center src=""/static/experiments/stop_signal_with_shape_matching/images/1_green.png""></img></div><div class = distractorbox></div><div class = rightbox><img class = center src=""/static/experiments/stop_signal_with_shape_matching/images/1_white.png""></img></div></div>",,go,1.0,,446074,0.0,test_trial,140,stop-signal,
141,,,,,,,,,500.0,,,,,,,stop_signal_with_shape_matching,,,,,,0.0-3.0-74.0,-1.0,none,,,-1,,500.0,"<div class = bigbox><div class = leftbox><img class = center src=""/static/experiments/stop_signal_with_shape_matching/images/mask.png""></img><div class = centerbox><div class = fixation>+</div></div></div><div class = rightbox><img class = center src=""/static/experiments/stop_signal_with_shape_matching/images/mask.png""></img><div class = centerbox><div class = fixation>+</div></div></div></div>",,,,,446576,0.0,test_mask,141,poldrack-single-stim,
142,400.0,400.0,500.0,400.0,500.0,"<div class = starbox><img class = center src=""/static/experiments/stop_signal_with_shape_matching/images/stopSignal.png""></img></div>",stop,,2000.0,,-1.0,1.0,0.0,37.0,none,stop_signal_with_shape_matching,,,,,,0.0-3.0-75.0,-1.0,"[77, 90]",6.0,,-1,DNN,1000.0,"<div class = bigbox><div class = leftbox><img class = center src=""/static/experiments/stop_signal_with_shape_matching/images/3_green.png""></img></div><div class = distractorbox></div><div class = rightbox><img class = center src=""/static/experiments/stop_signal_with_shape_matching/images/6_white.png""></img></div></div>",1.0,stop,3.0,,448578,0.0,test_trial,142,stop-signal,
143,,,,,,,,,500.0,,,,,,,stop_signal_with_shape_matching,,,,,,0.0-3.0-76.0,-1.0,none,,,-1,,500.0,"<div class = bigbox><div class = leftbox><img class = center src=""/static/experiments/stop_signal_with_shape_matching/images/mask.png""></img><div class = centerbox><div class = fixation>+</div></div></div><div class = rightbox><img class = center src=""/static/experiments/stop_signal_with_shape_matching/images/mask.png""></img><div class = centerbox><div class = fixation>+</div></div></div></div>",,,,,449081,0.0,test_mask,143,poldrack-single-stim,
144,400.0,450.0,500.0,450.0,500.0,"<div class = starbox><img class = center src=""/static/experiments/stop_signal_with_shape_matching/images/stopSignal.png""></img></div>",go,,2000.0,,90.0,1.0,0.0,38.0,none,stop_signal_with_shape_matching,,,,,,0.0-3.0-77.0,90.0,"[77, 90]",4.0,,790,DNN,1000.0,"<div class = bigbox><div class = leftbox><img class = center src=""/static/experiments/stop_signal_with_shape_matching/images/5_green.png""></img></div><div class = distractorbox></div><div class = rightbox><img class = center src=""/static/experiments/stop_signal_with_shape_matching/images/4_white.png""></img></div></div>",,go,5.0,,451083,0.0,test_trial,144,stop-signal,
145,,,,,,,,,500.0,,,,,,,stop_signal_with_shape_matching,,,,,,0.0-3.0-78.0,-1.0,none,,,-1,,500.0,"<div class = bigbox><div class = leftbox><img class = center src=""/static/experiments/stop_signal_with_shape_matching/images/mask.png""></img><div class = centerbox><div class = fixation>+</div></div></div><div class = rightbox><img class = center src=""/static/experiments/stop_signal_with_shape_matching/images/mask.png""></img><div class = centerbox><div class = fixation>+</div></div></div></div>",,,,,451585,0.0,test_mask,145,poldrack-single-stim,
146,400.0,450.0,500.0,450.0,500.0,"<div class = starbox><img class = center src=""/static/experiments/stop_signal_with_shape_matching/images/stopSignal.png""></img></div>",go,,2000.0,,90.0,1.0,0.0,39.0,none,stop_signal_with_shape_matching,,,,,,0.0-3.0-79.0,90.0,"[77, 90]",10.0,,558,DNN,1000.0,"<div class = bigbox><div class = leftbox><img class = center src=""/static/experiments/stop_signal_with_shape_matching/images/8_green.png""></img></div><div class = distractorbox></div><div class = rightbox><img class = center src=""/static/experiments/stop_signal_with_shape_matching/images/10_white.png""></img></div></div>",,go,8.0,,453587,0.0,test_trial,146,stop-signal,
