,SSD_1,SSD_2,SSD_3,SS_delay,SS_duration,SS_stimulus,SS_trial_type,att_check_percent,block_duration,correct,correct_response,correct_trial,current_block,current_trial,delay,exp_id,final_accuracy,final_avg_rt,final_credit_var,final_missed_percent,final_responses_ok,internal_node_id,key_press,n_back_condition,possible_responses,probe,responses,rt,stim_duration,stimulus,stop_acc,stop_signal_condition,text,time_elapsed,timing_post_trial,trial_id,trial_index,trial_type,view_history
0,,,,,,,,,2229.0,,,,,,,stop_signal_with_n_back,,,,,,0.0-0.0-0.0,13.0,,[13],,,2229,2229.0,"<div class = bigbox><div class = picture_box><p class = block-text><font color=""white"">Welcome to the experiment. This experiment will take about 10 minutes. Press <i>enter</i> to begin.</font></p></div></div>",,,,2229,0.0,practice-no-stop-feedback,0,poldrack-single-stim,
1,,,,,,,,,,,,,,,,stop_signal_with_n_back,,,,,,0.0-0.0-1.0,,,,,,44878,,,,,,47109,,instruction,1,poldrack-instructions,"[{""page_index"":0,""viewing_time"":22281},{""page_index"":1,""viewing_time"":8478},{""page_index"":2,""viewing_time"":14118}]"
2,350.0,350.0,350.0,350.0,500.0,<div class = bigbox><div class = starbox><img class = center src='/static/experiments/stop_signal_with_n_back/images/stopSignal.png'></img></div></div>,go,,2000.0,,90.0,0.0,0.0,1.0,1.0,stop_signal_with_n_back,,,,,,0.0-0.0-2.0,-1.0,N/A,"[77, 90]",T,,-1,1000.0,<div class = bigbox><div class = centerbox><div class = gng_number><div class = cue-text><img class = center src='/static/experiments/stop_signal_with_n_back/images/uppercase_T.png'></img></div></div></div></div>,,go,,50113,0.0,practice_trial,2,stop-signal,
3,,,,,,,,,500.0,,,,,,,stop_signal_with_n_back,,,,,,0.0-0.0-3.0,-1.0,,none,,,-1,500.0,"<div class = fb_box><div class = center-text><font size = 20>Respond Faster!</font></div></div><div class = prompt_box><p class = center-block-text style = ""font-size:16px; line-height:80%%;"">Match the current letter to the letter that appeared 1 trial ago</p><p class = center-block-text style = ""font-size:16px; line-height:80%%;"">If they match, press the M Key</p><p class = center-block-text style = ""font-size:16px; line-height:80%%;"">If they mismatch, press the Z Key</p><p class = center-block-text style = ""font-size:16px; line-height:80%%;"">Do not respond if you see a star!</p></div>",,,,50616,0.0,practice-stop-feedback,3,poldrack-single-stim,
4,350.0,350.0,350.0,350.0,500.0,<div class = bigbox><div class = starbox><img class = center src='/static/experiments/stop_signal_with_n_back/images/stopSignal.png'></img></div></div>,stop,,2000.0,,90.0,1.0,0.0,2.0,1.0,stop_signal_with_n_back,,,,,,0.0-0.0-4.0,90.0,mismatch,"[77, 90]",b,,907,1000.0,<div class = bigbox><div class = centerbox><div class = gng_number><div class = cue-text><img class = center src='/static/experiments/stop_signal_with_n_back/images/lowercase_B.png'></img></div></div></div></div>,0.0,stop,,52618,0.0,practice_trial,4,stop-signal,
5,,,,,,,,,500.0,,,,,,,stop_signal_with_n_back,,,,,,0.0-0.0-5.0,-1.0,,none,,,-1,500.0,"<div class = fb_box><div class = center-text><font size = 20>There was a star.</font></div></div><div class = prompt_box><p class = center-block-text style = ""font-size:16px; line-height:80%%;"">Match the current letter to the letter that appeared 1 trial ago</p><p class = center-block-text style = ""font-size:16px; line-height:80%%;"">If they match, press the M Key</p><p class = center-block-text style = ""font-size:16px; line-height:80%%;"">If they mismatch, press the Z Key</p><p class = center-block-text style = ""font-size:16px; line-height:80%%;"">Do not respond if you see a star!</p></div>",,,,53121,0.0,practice-stop-feedback,5,poldrack-single-stim,
6,300.0,350.0,350.0,300.0,500.0,<div class = bigbox><div class = starbox><img class = center src='/static/experiments/stop_signal_with_n_back/images/stopSignal.png'></img></div></div>,go,,2000.0,,90.0,1.0,0.0,3.0,1.0,stop_signal_with_n_back,,,,,,0.0-0.0-6.0,90.0,mismatch,"[77, 90]",G,,826,1000.0,<div class = bigbox><div class = centerbox><div class = gng_number><div class = cue-text><img class = center src='/static/experiments/stop_signal_with_n_back/images/uppercase_G.png'></img></div></div></div></div>,,go,,55124,0.0,practice_trial,6,stop-signal,
7,,,,,,,,,500.0,,,,,,,stop_signal_with_n_back,,,,,,0.0-0.0-7.0,-1.0,,none,,,-1,500.0,"<div class = fb_box><div class = center-text><font size = 20>Correct!</font></div></div><div class = prompt_box><p class = center-block-text style = ""font-size:16px; line-height:80%%;"">Match the current letter to the letter that appeared 1 trial ago</p><p class = center-block-text style = ""font-size:16px; line-height:80%%;"">If they match, press the M Key</p><p class = center-block-text style = ""font-size:16px; line-height:80%%;"">If they mismatch, press the Z Key</p><p class = center-block-text style = ""font-size:16px; line-height:80%%;"">Do not respond if you see a star!</p></div>",,,,55626,0.0,practice-stop-feedback,7,poldrack-single-stim,
8,300.0,350.0,350.0,300.0,500.0,<div class = bigbox><div class = starbox><img class = center src='/static/experiments/stop_signal_with_n_back/images/stopSignal.png'></img></div></div>,go,,2000.0,,77.0,0.0,0.0,4.0,1.0,stop_signal_with_n_back,,,,,,0.0-0.0-8.0,90.0,match,"[77, 90]",g,,585,1000.0,<div class = bigbox><div class = centerbox><div class = gng_number><div class = cue-text><img class = center src='/static/experiments/stop_signal_with_n_back/images/lowercase_G.png'></img></div></div></div></div>,,go,,57629,0.0,practice_trial,8,stop-signal,
9,,,,,,,,,500.0,,,,,,,stop_signal_with_n_back,,,,,,0.0-0.0-9.0,-1.0,,none,,,-1,500.0,"<div class = fb_box><div class = center-text><font size = 20>Incorrect</font></div></div><div class = prompt_box><p class = center-block-text style = ""font-size:16px; line-height:80%%;"">Match the current letter to the letter that appeared 1 trial ago</p><p class = center-block-text style = ""font-size:16px; line-height:80%%;"">If they match, press the M Key</p><p class = center-block-text style = ""font-size:16px; line-height:80%%;"">If they mismatch, press the Z Key</p><p class = center-block-text style = ""font-size:16px; line-height:80%%;"">Do not respond if you see a star!</p></div>",,,,58132,0.0,practice-stop-feedback,9,poldrack-single-stim,
10,300.0,350.0,350.0,300.0,500.0,<div class = bigbox><div class = starbox><img class = center src='/static/experiments/stop_signal_with_n_back/images/stopSignal.png'></img></div></div>,stop,,2000.0,,-1.0,0.0,0.0,5.0,1.0,stop_signal_with_n_back,,,,,,0.0-0.0-10.0,77.0,match,"[77, 90]",G,,719,1000.0,<div class = bigbox><div class = centerbox><div class = gng_number><div class = cue-text><img class = center src='/static/experiments/stop_signal_with_n_back/images/uppercase_G.png'></img></div></div></div></div>,0.0,stop,,60135,0.0,practice_trial,10,stop-signal,
11,,,,,,,,,500.0,,,,,,,stop_signal_with_n_back,,,,,,0.0-0.0-11.0,-1.0,,none,,,-1,500.0,"<div class = fb_box><div class = center-text><font size = 20>There was a star.</font></div></div><div class = prompt_box><p class = center-block-text style = ""font-size:16px; line-height:80%%;"">Match the current letter to the letter that appeared 1 trial ago</p><p class = center-block-text style = ""font-size:16px; line-height:80%%;"">If they match, press the M Key</p><p class = center-block-text style = ""font-size:16px; line-height:80%%;"">If they mismatch, press the Z Key</p><p class = center-block-text style = ""font-size:16px; line-height:80%%;"">Do not respond if you see a star!</p></div>",,,,60638,0.0,practice-stop-feedback,11,poldrack-single-stim,
12,250.0,350.0,350.0,250.0,500.0,<div class = bigbox><div class = starbox><img class = center src='/static/experiments/stop_signal_with_n_back/images/stopSignal.png'></img></div></div>,go,,2000.0,,90.0,1.0,0.0,6.0,1.0,stop_signal_with_n_back,,,,,,0.0-0.0-12.0,90.0,mismatch,"[77, 90]",V,,621,1000.0,<div class = bigbox><div class = centerbox><div class = gng_number><div class = cue-text><img class = center src='/static/experiments/stop_signal_with_n_back/images/uppercase_V.png'></img></div></div></div></div>,,go,,62641,0.0,practice_trial,12,stop-signal,
13,,,,,,,,,500.0,,,,,,,stop_signal_with_n_back,,,,,,0.0-0.0-13.0,-1.0,,none,,,-1,500.0,"<div class = fb_box><div class = center-text><font size = 20>Correct!</font></div></div><div class = prompt_box><p class = center-block-text style = ""font-size:16px; line-height:80%%;"">Match the current letter to the letter that appeared 1 trial ago</p><p class = center-block-text style = ""font-size:16px; line-height:80%%;"">If they match, press the M Key</p><p class = center-block-text style = ""font-size:16px; line-height:80%%;"">If they mismatch, press the Z Key</p><p class = center-block-text style = ""font-size:16px; line-height:80%%;"">Do not respond if you see a star!</p></div>",,,,63144,0.0,practice-stop-feedback,13,poldrack-single-stim,
14,250.0,350.0,350.0,250.0,500.0,<div class = bigbox><div class = starbox><img class = center src='/static/experiments/stop_signal_with_n_back/images/stopSignal.png'></img></div></div>,go,,2000.0,,90.0,0.0,0.0,7.0,1.0,stop_signal_with_n_back,,,,,,0.0-0.0-14.0,77.0,mismatch,"[77, 90]",G,,555,1000.0,<div class = bigbox><div class = centerbox><div class = gng_number><div class = cue-text><img class = center src='/static/experiments/stop_signal_with_n_back/images/uppercase_G.png'></img></div></div></div></div>,,go,,65145,0.0,practice_trial,14,stop-signal,
15,,,,,,,,,500.0,,,,,,,stop_signal_with_n_back,,,,,,0.0-0.0-15.0,-1.0,,none,,,-1,500.0,"<div class = fb_box><div class = center-text><font size = 20>Incorrect</font></div></div><div class = prompt_box><p class = center-block-text style = ""font-size:16px; line-height:80%%;"">Match the current letter to the letter that appeared 1 trial ago</p><p class = center-block-text style = ""font-size:16px; line-height:80%%;"">If they match, press the M Key</p><p class = center-block-text style = ""font-size:16px; line-height:80%%;"">If they mismatch, press the Z Key</p><p class = center-block-text style = ""font-size:16px; line-height:80%%;"">Do not respond if you see a star!</p></div>",,,,65648,0.0,practice-stop-feedback,15,poldrack-single-stim,
16,250.0,350.0,350.0,250.0,500.0,<div class = bigbox><div class = starbox><img class = center src='/static/experiments/stop_signal_with_n_back/images/stopSignal.png'></img></div></div>,go,,2000.0,,90.0,1.0,0.0,8.0,1.0,stop_signal_with_n_back,,,,,,0.0-0.0-16.0,90.0,mismatch,"[77, 90]",v,,563,1000.0,<div class = bigbox><div class = centerbox><div class = gng_number><div class = cue-text><img class = center src='/static/experiments/stop_signal_with_n_back/images/lowercase_V.png'></img></div></div></div></div>,,go,,67651,0.0,practice_trial,16,stop-signal,
17,,,,,,,,,500.0,,,,,,,stop_signal_with_n_back,,,,,,0.0-0.0-17.0,-1.0,,none,,,-1,500.0,"<div class = fb_box><div class = center-text><font size = 20>Correct!</font></div></div><div class = prompt_box><p class = center-block-text style = ""font-size:16px; line-height:80%%;"">Match the current letter to the letter that appeared 1 trial ago</p><p class = center-block-text style = ""font-size:16px; line-height:80%%;"">If they match, press the M Key</p><p class = center-block-text style = ""font-size:16px; line-height:80%%;"">If they mismatch, press the Z Key</p><p class = center-block-text style = ""font-size:16px; line-height:80%%;"">Do not respond if you see a star!</p></div>",,,,68153,0.0,practice-stop-feedback,17,poldrack-single-stim,
18,250.0,350.0,350.0,250.0,500.0,<div class = bigbox><div class = starbox><img class = center src='/static/experiments/stop_signal_with_n_back/images/stopSignal.png'></img></div></div>,go,,2000.0,,90.0,1.0,0.0,9.0,1.0,stop_signal_with_n_back,,,,,,0.0-0.0-18.0,90.0,mismatch,"[77, 90]",T,,546,1000.0,<div class = bigbox><div class = centerbox><div class = gng_number><div class = cue-text><img class = center src='/static/experiments/stop_signal_with_n_back/images/uppercase_T.png'></img></div></div></div></div>,,go,,70156,0.0,practice_trial,18,stop-signal,
19,,,,,,,,,500.0,,,,,,,stop_signal_with_n_back,,,,,,0.0-0.0-19.0,-1.0,,none,,,-1,500.0,"<div class = fb_box><div class = center-text><font size = 20>Correct!</font></div></div><div class = prompt_box><p class = center-block-text style = ""font-size:16px; line-height:80%%;"">Match the current letter to the letter that appeared 1 trial ago</p><p class = center-block-text style = ""font-size:16px; line-height:80%%;"">If they match, press the M Key</p><p class = center-block-text style = ""font-size:16px; line-height:80%%;"">If they mismatch, press the Z Key</p><p class = center-block-text style = ""font-size:16px; line-height:80%%;"">Do not respond if you see a star!</p></div>",,,,70659,0.0,practice-stop-feedback,19,poldrack-single-stim,
20,250.0,350.0,350.0,250.0,500.0,<div class = bigbox><div class = starbox><img class = center src='/static/experiments/stop_signal_with_n_back/images/stopSignal.png'></img></div></div>,go,,2000.0,,90.0,1.0,0.0,10.0,1.0,stop_signal_with_n_back,,,,,,0.0-0.0-20.0,90.0,mismatch,"[77, 90]",d,,512,1000.0,<div class = bigbox><div class = centerbox><div class = gng_number><div class = cue-text><img class = center src='/static/experiments/stop_signal_with_n_back/images/lowercase_D.png'></img></div></div></div></div>,,go,,72662,0.0,practice_trial,20,stop-signal,
21,,,,,,,,,500.0,,,,,,,stop_signal_with_n_back,,,,,,0.0-0.0-21.0,-1.0,,none,,,-1,500.0,"<div class = fb_box><div class = center-text><font size = 20>Correct!</font></div></div><div class = prompt_box><p class = center-block-text style = ""font-size:16px; line-height:80%%;"">Match the current letter to the letter that appeared 1 trial ago</p><p class = center-block-text style = ""font-size:16px; line-height:80%%;"">If they match, press the M Key</p><p class = center-block-text style = ""font-size:16px; line-height:80%%;"">If they mismatch, press the Z Key</p><p class = center-block-text style = ""font-size:16px; line-height:80%%;"">Do not respond if you see a star!</p></div>",,,,73164,0.0,practice-stop-feedback,21,poldrack-single-stim,
22,250.0,350.0,350.0,250.0,500.0,<div class = bigbox><div class = starbox><img class = center src='/static/experiments/stop_signal_with_n_back/images/stopSignal.png'></img></div></div>,go,,2000.0,,90.0,1.0,0.0,11.0,1.0,stop_signal_with_n_back,,,,,,0.0-0.0-22.0,90.0,mismatch,"[77, 90]",b,,551,1000.0,<div class = bigbox><div class = centerbox><div class = gng_number><div class = cue-text><img class = center src='/static/experiments/stop_signal_with_n_back/images/lowercase_B.png'></img></div></div></div></div>,,go,,75167,0.0,practice_trial,22,stop-signal,
23,,,,,,,,,500.0,,,,,,,stop_signal_with_n_back,,,,,,0.0-0.0-23.0,-1.0,,none,,,-1,500.0,"<div class = fb_box><div class = center-text><font size = 20>Correct!</font></div></div><div class = prompt_box><p class = center-block-text style = ""font-size:16px; line-height:80%%;"">Match the current letter to the letter that appeared 1 trial ago</p><p class = center-block-text style = ""font-size:16px; line-height:80%%;"">If they match, press the M Key</p><p class = center-block-text style = ""font-size:16px; line-height:80%%;"">If they mismatch, press the Z Key</p><p class = center-block-text style = ""font-size:16px; line-height:80%%;"">Do not respond if you see a star!</p></div>",,,,75670,0.0,practice-stop-feedback,23,poldrack-single-stim,
24,250.0,350.0,350.0,250.0,500.0,<div class = bigbox><div class = starbox><img class = center src='/static/experiments/stop_signal_with_n_back/images/stopSignal.png'></img></div></div>,go,,2000.0,,90.0,1.0,0.0,12.0,1.0,stop_signal_with_n_back,,,,,,0.0-0.0-24.0,90.0,mismatch,"[77, 90]",V,,749,1000.0,<div class = bigbox><div class = centerbox><div class = gng_number><div class = cue-text><img class = center src='/static/experiments/stop_signal_with_n_back/images/uppercase_V.png'></img></div></div></div></div>,,go,,77672,0.0,practice_trial,24,stop-signal,
25,,,,,,,,,500.0,,,,,,,stop_signal_with_n_back,,,,,,0.0-0.0-25.0,-1.0,,none,,,-1,500.0,"<div class = fb_box><div class = center-text><font size = 20>Correct!</font></div></div><div class = prompt_box><p class = center-block-text style = ""font-size:16px; line-height:80%%;"">Match the current letter to the letter that appeared 1 trial ago</p><p class = center-block-text style = ""font-size:16px; line-height:80%%;"">If they match, press the M Key</p><p class = center-block-text style = ""font-size:16px; line-height:80%%;"">If they mismatch, press the Z Key</p><p class = center-block-text style = ""font-size:16px; line-height:80%%;"">Do not respond if you see a star!</p></div>",,,,78175,0.0,practice-stop-feedback,25,poldrack-single-stim,
26,250.0,350.0,350.0,250.0,500.0,<div class = bigbox><div class = starbox><img class = center src='/static/experiments/stop_signal_with_n_back/images/stopSignal.png'></img></div></div>,go,,2000.0,,77.0,0.0,0.0,13.0,1.0,stop_signal_with_n_back,,,,,,0.0-0.0-26.0,90.0,match,"[77, 90]",v,,476,1000.0,<div class = bigbox><div class = centerbox><div class = gng_number><div class = cue-text><img class = center src='/static/experiments/stop_signal_with_n_back/images/lowercase_V.png'></img></div></div></div></div>,,go,,80178,0.0,practice_trial,26,stop-signal,
27,,,,,,,,,500.0,,,,,,,stop_signal_with_n_back,,,,,,0.0-0.0-27.0,-1.0,,none,,,-1,500.0,"<div class = fb_box><div class = center-text><font size = 20>Incorrect</font></div></div><div class = prompt_box><p class = center-block-text style = ""font-size:16px; line-height:80%%;"">Match the current letter to the letter that appeared 1 trial ago</p><p class = center-block-text style = ""font-size:16px; line-height:80%%;"">If they match, press the M Key</p><p class = center-block-text style = ""font-size:16px; line-height:80%%;"">If they mismatch, press the Z Key</p><p class = center-block-text style = ""font-size:16px; line-height:80%%;"">Do not respond if you see a star!</p></div>",,,,80681,0.0,practice-stop-feedback,27,poldrack-single-stim,
28,250.0,350.0,350.0,250.0,500.0,<div class = bigbox><div class = starbox><img class = center src='/static/experiments/stop_signal_with_n_back/images/stopSignal.png'></img></div></div>,stop,,2000.0,,-1.0,0.0,0.0,14.0,1.0,stop_signal_with_n_back,,,,,,0.0-0.0-28.0,77.0,match,"[77, 90]",V,,714,1000.0,<div class = bigbox><div class = centerbox><div class = gng_number><div class = cue-text><img class = center src='/static/experiments/stop_signal_with_n_back/images/uppercase_V.png'></img></div></div></div></div>,0.0,stop,,82683,0.0,practice_trial,28,stop-signal,
29,,,,,,,,,500.0,,,,,,,stop_signal_with_n_back,,,,,,0.0-0.0-29.0,-1.0,,none,,,-1,500.0,"<div class = fb_box><div class = center-text><font size = 20>There was a star.</font></div></div><div class = prompt_box><p class = center-block-text style = ""font-size:16px; line-height:80%%;"">Match the current letter to the letter that appeared 1 trial ago</p><p class = center-block-text style = ""font-size:16px; line-height:80%%;"">If they match, press the M Key</p><p class = center-block-text style = ""font-size:16px; line-height:80%%;"">If they mismatch, press the Z Key</p><p class = center-block-text style = ""font-size:16px; line-height:80%%;"">Do not respond if you see a star!</p></div>",,,,83186,0.0,practice-stop-feedback,29,poldrack-single-stim,
30,200.0,350.0,350.0,200.0,500.0,<div class = bigbox><div class = starbox><img class = center src='/static/experiments/stop_signal_with_n_back/images/stopSignal.png'></img></div></div>,go,,2000.0,,77.0,1.0,0.0,15.0,1.0,stop_signal_with_n_back,,,,,,0.0-0.0-30.0,77.0,match,"[77, 90]",V,,593,1000.0,<div class = bigbox><div class = centerbox><div class = gng_number><div class = cue-text><img class = center src='/static/experiments/stop_signal_with_n_back/images/uppercase_V.png'></img></div></div></div></div>,,go,,85189,0.0,practice_trial,30,stop-signal,
31,,,,,,,,,500.0,,,,,,,stop_signal_with_n_back,,,,,,0.0-0.0-31.0,-1.0,,none,,,-1,500.0,"<div class = fb_box><div class = center-text><font size = 20>Correct!</font></div></div><div class = prompt_box><p class = center-block-text style = ""font-size:16px; line-height:80%%;"">Match the current letter to the letter that appeared 1 trial ago</p><p class = center-block-text style = ""font-size:16px; line-height:80%%;"">If they match, press the M Key</p><p class = center-block-text style = ""font-size:16px; line-height:80%%;"">If they mismatch, press the Z Key</p><p class = center-block-text style = ""font-size:16px; line-height:80%%;"">Do not respond if you see a star!</p></div>",,,,85690,0.0,practice-stop-feedback,31,poldrack-single-stim,
32,200.0,350.0,350.0,200.0,500.0,<div class = bigbox><div class = starbox><img class = center src='/static/experiments/stop_signal_with_n_back/images/stopSignal.png'></img></div></div>,go,,2000.0,,90.0,1.0,0.0,16.0,1.0,stop_signal_with_n_back,,,,,,0.0-0.0-32.0,90.0,mismatch,"[77, 90]",G,,609,1000.0,<div class = bigbox><div class = centerbox><div class = gng_number><div class = cue-text><img class = center src='/static/experiments/stop_signal_with_n_back/images/uppercase_G.png'></img></div></div></div></div>,,go,,87693,0.0,practice_trial,32,stop-signal,
33,,,,,,,,,500.0,,,,,,,stop_signal_with_n_back,,,,,,0.0-0.0-33.0,-1.0,,none,,,-1,500.0,"<div class = fb_box><div class = center-text><font size = 20>Correct!</font></div></div><div class = prompt_box><p class = center-block-text style = ""font-size:16px; line-height:80%%;"">Match the current letter to the letter that appeared 1 trial ago</p><p class = center-block-text style = ""font-size:16px; line-height:80%%;"">If they match, press the M Key</p><p class = center-block-text style = ""font-size:16px; line-height:80%%;"">If they mismatch, press the Z Key</p><p class = center-block-text style = ""font-size:16px; line-height:80%%;"">Do not respond if you see a star!</p></div>",,,,88196,0.0,practice-stop-feedback,33,poldrack-single-stim,
34,200.0,350.0,350.0,200.0,500.0,<div class = bigbox><div class = starbox><img class = center src='/static/experiments/stop_signal_with_n_back/images/stopSignal.png'></img></div></div>,stop,,2000.0,,-1.0,0.0,0.0,17.0,1.0,stop_signal_with_n_back,,,,,,0.0-0.0-34.0,90.0,mismatch,"[77, 90]",v,,575,1000.0,<div class = bigbox><div class = centerbox><div class = gng_number><div class = cue-text><img class = center src='/static/experiments/stop_signal_with_n_back/images/lowercase_V.png'></img></div></div></div></div>,0.0,stop,,90198,0.0,practice_trial,34,stop-signal,
35,,,,,,,,,500.0,,,,,,,stop_signal_with_n_back,,,,,,0.0-0.0-35.0,-1.0,,none,,,-1,500.0,"<div class = fb_box><div class = center-text><font size = 20>There was a star.</font></div></div><div class = prompt_box><p class = center-block-text style = ""font-size:16px; line-height:80%%;"">Match the current letter to the letter that appeared 1 trial ago</p><p class = center-block-text style = ""font-size:16px; line-height:80%%;"">If they match, press the M Key</p><p class = center-block-text style = ""font-size:16px; line-height:80%%;"">If they mismatch, press the Z Key</p><p class = center-block-text style = ""font-size:16px; line-height:80%%;"">Do not respond if you see a star!</p></div>",,,,90701,0.0,practice-stop-feedback,35,poldrack-single-stim,
36,150.0,350.0,350.0,150.0,500.0,<div class = bigbox><div class = starbox><img class = center src='/static/experiments/stop_signal_with_n_back/images/stopSignal.png'></img></div></div>,stop,,2000.0,,-1.0,1.0,0.0,18.0,1.0,stop_signal_with_n_back,,,,,,0.0-0.0-36.0,-1.0,mismatch,"[77, 90]",g,,-1,1000.0,<div class = bigbox><div class = centerbox><div class = gng_number><div class = cue-text><img class = center src='/static/experiments/stop_signal_with_n_back/images/lowercase_G.png'></img></div></div></div></div>,1.0,stop,,92704,0.0,practice_trial,36,stop-signal,
37,,,,,,,,,500.0,,,,,,,stop_signal_with_n_back,,,,,,0.0-0.0-37.0,-1.0,,none,,,-1,500.0,"<div class = fb_box><div class = center-text><font size = 20>Correct!</font></div></div><div class = prompt_box><p class = center-block-text style = ""font-size:16px; line-height:80%%;"">Match the current letter to the letter that appeared 1 trial ago</p><p class = center-block-text style = ""font-size:16px; line-height:80%%;"">If they match, press the M Key</p><p class = center-block-text style = ""font-size:16px; line-height:80%%;"">If they mismatch, press the Z Key</p><p class = center-block-text style = ""font-size:16px; line-height:80%%;"">Do not respond if you see a star!</p></div>",,,,93207,0.0,practice-stop-feedback,37,poldrack-single-stim,
38,200.0,350.0,350.0,200.0,500.0,<div class = bigbox><div class = starbox><img class = center src='/static/experiments/stop_signal_with_n_back/images/stopSignal.png'></img></div></div>,stop,,2000.0,,-1.0,0.0,0.0,19.0,1.0,stop_signal_with_n_back,,,,,,0.0-0.0-38.0,90.0,mismatch,"[77, 90]",B,,788,1000.0,<div class = bigbox><div class = centerbox><div class = gng_number><div class = cue-text><img class = center src='/static/experiments/stop_signal_with_n_back/images/uppercase_B.png'></img></div></div></div></div>,0.0,stop,,95209,0.0,practice_trial,38,stop-signal,
39,,,,,,,,,500.0,,,,,,,stop_signal_with_n_back,,,,,,0.0-0.0-39.0,-1.0,,none,,,-1,500.0,"<div class = fb_box><div class = center-text><font size = 20>There was a star.</font></div></div><div class = prompt_box><p class = center-block-text style = ""font-size:16px; line-height:80%%;"">Match the current letter to the letter that appeared 1 trial ago</p><p class = center-block-text style = ""font-size:16px; line-height:80%%;"">If they match, press the M Key</p><p class = center-block-text style = ""font-size:16px; line-height:80%%;"">If they mismatch, press the Z Key</p><p class = center-block-text style = ""font-size:16px; line-height:80%%;"">Do not respond if you see a star!</p></div>",,,,95712,0.0,practice-stop-feedback,39,poldrack-single-stim,
40,150.0,350.0,350.0,150.0,500.0,<div class = bigbox><div class = starbox><img class = center src='/static/experiments/stop_signal_with_n_back/images/stopSignal.png'></img></div></div>,go,,2000.0,,90.0,1.0,0.0,20.0,1.0,stop_signal_with_n_back,,,,,,0.0-0.0-40.0,90.0,mismatch,"[77, 90]",D,,595,1000.0,<div class = bigbox><div class = centerbox><div class = gng_number><div class = cue-text><img class = center src='/static/experiments/stop_signal_with_n_back/images/uppercase_D.png'></img></div></div></div></div>,,go,,97714,0.0,practice_trial,40,stop-signal,
41,,,,,,,,,500.0,,,,,,,stop_signal_with_n_back,,,,,,0.0-0.0-41.0,-1.0,,none,,,-1,500.0,"<div class = fb_box><div class = center-text><font size = 20>Correct!</font></div></div><div class = prompt_box><p class = center-block-text style = ""font-size:16px; line-height:80%%;"">Match the current letter to the letter that appeared 1 trial ago</p><p class = center-block-text style = ""font-size:16px; line-height:80%%;"">If they match, press the M Key</p><p class = center-block-text style = ""font-size:16px; line-height:80%%;"">If they mismatch, press the Z Key</p><p class = center-block-text style = ""font-size:16px; line-height:80%%;"">Do not respond if you see a star!</p></div>",,,,98215,0.0,practice-stop-feedback,41,poldrack-single-stim,
42,150.0,350.0,350.0,150.0,500.0,<div class = bigbox><div class = starbox><img class = center src='/static/experiments/stop_signal_with_n_back/images/stopSignal.png'></img></div></div>,go,,2000.0,,90.0,0.0,0.0,21.0,1.0,stop_signal_with_n_back,,,,,,0.0-0.0-42.0,77.0,mismatch,"[77, 90]",G,,668,1000.0,<div class = bigbox><div class = centerbox><div class = gng_number><div class = cue-text><img class = center src='/static/experiments/stop_signal_with_n_back/images/uppercase_G.png'></img></div></div></div></div>,,go,,100217,0.0,practice_trial,42,stop-signal,
43,,,,,,,,,500.0,,,,,,,stop_signal_with_n_back,,,,,,0.0-0.0-43.0,-1.0,,none,,,-1,500.0,"<div class = fb_box><div class = center-text><font size = 20>Incorrect</font></div></div><div class = prompt_box><p class = center-block-text style = ""font-size:16px; line-height:80%%;"">Match the current letter to the letter that appeared 1 trial ago</p><p class = center-block-text style = ""font-size:16px; line-height:80%%;"">If they match, press the M Key</p><p class = center-block-text style = ""font-size:16px; line-height:80%%;"">If they mismatch, press the Z Key</p><p class = center-block-text style = ""font-size:16px; line-height:80%%;"">Do not respond if you see a star!</p></div>",,,,100720,0.0,practice-stop-feedback,43,poldrack-single-stim,
44,150.0,350.0,350.0,150.0,500.0,<div class = bigbox><div class = starbox><img class = center src='/static/experiments/stop_signal_with_n_back/images/stopSignal.png'></img></div></div>,go,,2000.0,,90.0,1.0,0.0,22.0,1.0,stop_signal_with_n_back,,,,,,0.0-0.0-44.0,90.0,mismatch,"[77, 90]",b,,707,1000.0,<div class = bigbox><div class = centerbox><div class = gng_number><div class = cue-text><img class = center src='/static/experiments/stop_signal_with_n_back/images/lowercase_B.png'></img></div></div></div></div>,,go,,102722,0.0,practice_trial,44,stop-signal,
45,,,,,,,,,500.0,,,,,,,stop_signal_with_n_back,,,,,,0.0-0.0-45.0,-1.0,,none,,,-1,500.0,"<div class = fb_box><div class = center-text><font size = 20>Correct!</font></div></div><div class = prompt_box><p class = center-block-text style = ""font-size:16px; line-height:80%%;"">Match the current letter to the letter that appeared 1 trial ago</p><p class = center-block-text style = ""font-size:16px; line-height:80%%;"">If they match, press the M Key</p><p class = center-block-text style = ""font-size:16px; line-height:80%%;"">If they mismatch, press the Z Key</p><p class = center-block-text style = ""font-size:16px; line-height:80%%;"">Do not respond if you see a star!</p></div>",,,,103225,0.0,practice-stop-feedback,45,poldrack-single-stim,
46,150.0,350.0,350.0,150.0,500.0,<div class = bigbox><div class = starbox><img class = center src='/static/experiments/stop_signal_with_n_back/images/stopSignal.png'></img></div></div>,go,,2000.0,,77.0,1.0,0.0,23.0,1.0,stop_signal_with_n_back,,,,,,0.0-0.0-46.0,77.0,match,"[77, 90]",b,,682,1000.0,<div class = bigbox><div class = centerbox><div class = gng_number><div class = cue-text><img class = center src='/static/experiments/stop_signal_with_n_back/images/lowercase_B.png'></img></div></div></div></div>,,go,,105228,0.0,practice_trial,46,stop-signal,
47,,,,,,,,,500.0,,,,,,,stop_signal_with_n_back,,,,,,0.0-0.0-47.0,-1.0,,none,,,-1,500.0,"<div class = fb_box><div class = center-text><font size = 20>Correct!</font></div></div><div class = prompt_box><p class = center-block-text style = ""font-size:16px; line-height:80%%;"">Match the current letter to the letter that appeared 1 trial ago</p><p class = center-block-text style = ""font-size:16px; line-height:80%%;"">If they match, press the M Key</p><p class = center-block-text style = ""font-size:16px; line-height:80%%;"">If they mismatch, press the Z Key</p><p class = center-block-text style = ""font-size:16px; line-height:80%%;"">Do not respond if you see a star!</p></div>",,,,105731,0.0,practice-stop-feedback,47,poldrack-single-stim,
48,150.0,350.0,350.0,150.0,500.0,<div class = bigbox><div class = starbox><img class = center src='/static/experiments/stop_signal_with_n_back/images/stopSignal.png'></img></div></div>,stop,,2000.0,,-1.0,1.0,0.0,24.0,1.0,stop_signal_with_n_back,,,,,,0.0-0.0-48.0,-1.0,match,"[77, 90]",b,,-1,1000.0,<div class = bigbox><div class = centerbox><div class = gng_number><div class = cue-text><img class = center src='/static/experiments/stop_signal_with_n_back/images/lowercase_B.png'></img></div></div></div></div>,1.0,stop,,107733,0.0,practice_trial,48,stop-signal,
49,,,,,,,,,500.0,,,,,,,stop_signal_with_n_back,,,,,,0.0-0.0-49.0,-1.0,,none,,,-1,500.0,"<div class = fb_box><div class = center-text><font size = 20>Correct!</font></div></div><div class = prompt_box><p class = center-block-text style = ""font-size:16px; line-height:80%%;"">Match the current letter to the letter that appeared 1 trial ago</p><p class = center-block-text style = ""font-size:16px; line-height:80%%;"">If they match, press the M Key</p><p class = center-block-text style = ""font-size:16px; line-height:80%%;"">If they mismatch, press the Z Key</p><p class = center-block-text style = ""font-size:16px; line-height:80%%;"">Do not respond if you see a star!</p></div>",,,,108236,0.0,practice-stop-feedback,49,poldrack-single-stim,
50,200.0,350.0,350.0,200.0,500.0,<div class = bigbox><div class = starbox><img class = center src='/static/experiments/stop_signal_with_n_back/images/stopSignal.png'></img></div></div>,go,,2000.0,,90.0,1.0,0.0,25.0,1.0,stop_signal_with_n_back,,,,,,0.0-0.0-50.0,90.0,mismatch,"[77, 90]",V,,623,1000.0,<div class = bigbox><div class = centerbox><div class = gng_number><div class = cue-text><img class = center src='/static/experiments/stop_signal_with_n_back/images/uppercase_V.png'></img></div></div></div></div>,,go,,110239,0.0,practice_trial,50,stop-signal,
51,,,,,,,,,500.0,,,,,,,stop_signal_with_n_back,,,,,,0.0-0.0-51.0,-1.0,,none,,,-1,500.0,"<div class = fb_box><div class = center-text><font size = 20>Correct!</font></div></div><div class = prompt_box><p class = center-block-text style = ""font-size:16px; line-height:80%%;"">Match the current letter to the letter that appeared 1 trial ago</p><p class = center-block-text style = ""font-size:16px; line-height:80%%;"">If they match, press the M Key</p><p class = center-block-text style = ""font-size:16px; line-height:80%%;"">If they mismatch, press the Z Key</p><p class = center-block-text style = ""font-size:16px; line-height:80%%;"">Do not respond if you see a star!</p></div>",,,,110741,0.0,practice-stop-feedback,51,poldrack-single-stim,
52,200.0,350.0,350.0,200.0,500.0,<div class = bigbox><div class = starbox><img class = center src='/static/experiments/stop_signal_with_n_back/images/stopSignal.png'></img></div></div>,go,,2000.0,,77.0,1.0,0.0,26.0,1.0,stop_signal_with_n_back,,,,,,0.0-0.0-52.0,77.0,match,"[77, 90]",V,,758,1000.0,<div class = bigbox><div class = centerbox><div class = gng_number><div class = cue-text><img class = center src='/static/experiments/stop_signal_with_n_back/images/uppercase_V.png'></img></div></div></div></div>,,go,,112744,0.0,practice_trial,52,stop-signal,
53,,,,,,,,,500.0,,,,,,,stop_signal_with_n_back,,,,,,0.0-0.0-53.0,-1.0,,none,,,-1,500.0,"<div class = fb_box><div class = center-text><font size = 20>Correct!</font></div></div><div class = prompt_box><p class = center-block-text style = ""font-size:16px; line-height:80%%;"">Match the current letter to the letter that appeared 1 trial ago</p><p class = center-block-text style = ""font-size:16px; line-height:80%%;"">If they match, press the M Key</p><p class = center-block-text style = ""font-size:16px; line-height:80%%;"">If they mismatch, press the Z Key</p><p class = center-block-text style = ""font-size:16px; line-height:80%%;"">Do not respond if you see a star!</p></div>",,,,113247,0.0,practice-stop-feedback,53,poldrack-single-stim,
54,200.0,350.0,350.0,200.0,500.0,<div class = bigbox><div class = starbox><img class = center src='/static/experiments/stop_signal_with_n_back/images/stopSignal.png'></img></div></div>,go,,2000.0,,90.0,1.0,0.0,27.0,1.0,stop_signal_with_n_back,,,,,,0.0-0.0-54.0,90.0,mismatch,"[77, 90]",B,,676,1000.0,<div class = bigbox><div class = centerbox><div class = gng_number><div class = cue-text><img class = center src='/static/experiments/stop_signal_with_n_back/images/uppercase_B.png'></img></div></div></div></div>,,go,,115248,0.0,practice_trial,54,stop-signal,
55,,,,,,,,,500.0,,,,,,,stop_signal_with_n_back,,,,,,0.0-0.0-55.0,-1.0,,none,,,-1,500.0,"<div class = fb_box><div class = center-text><font size = 20>Correct!</font></div></div><div class = prompt_box><p class = center-block-text style = ""font-size:16px; line-height:80%%;"">Match the current letter to the letter that appeared 1 trial ago</p><p class = center-block-text style = ""font-size:16px; line-height:80%%;"">If they match, press the M Key</p><p class = center-block-text style = ""font-size:16px; line-height:80%%;"">If they mismatch, press the Z Key</p><p class = center-block-text style = ""font-size:16px; line-height:80%%;"">Do not respond if you see a star!</p></div>",,,,115751,0.0,practice-stop-feedback,55,poldrack-single-stim,
56,200.0,350.0,350.0,200.0,500.0,<div class = bigbox><div class = starbox><img class = center src='/static/experiments/stop_signal_with_n_back/images/stopSignal.png'></img></div></div>,go,,2000.0,,77.0,0.0,0.0,28.0,1.0,stop_signal_with_n_back,,,,,,0.0-0.0-56.0,90.0,match,"[77, 90]",b,,772,1000.0,<div class = bigbox><div class = centerbox><div class = gng_number><div class = cue-text><img class = center src='/static/experiments/stop_signal_with_n_back/images/lowercase_B.png'></img></div></div></div></div>,,go,,117754,0.0,practice_trial,56,stop-signal,
57,,,,,,,,,500.0,,,,,,,stop_signal_with_n_back,,,,,,0.0-0.0-57.0,-1.0,,none,,,-1,500.0,"<div class = fb_box><div class = center-text><font size = 20>Incorrect</font></div></div><div class = prompt_box><p class = center-block-text style = ""font-size:16px; line-height:80%%;"">Match the current letter to the letter that appeared 1 trial ago</p><p class = center-block-text style = ""font-size:16px; line-height:80%%;"">If they match, press the M Key</p><p class = center-block-text style = ""font-size:16px; line-height:80%%;"">If they mismatch, press the Z Key</p><p class = center-block-text style = ""font-size:16px; line-height:80%%;"">Do not respond if you see a star!</p></div>",,,,118257,0.0,practice-stop-feedback,57,poldrack-single-stim,
58,200.0,350.0,350.0,200.0,500.0,<div class = bigbox><div class = starbox><img class = center src='/static/experiments/stop_signal_with_n_back/images/stopSignal.png'></img></div></div>,stop,,2000.0,,-1.0,0.0,0.0,29.0,1.0,stop_signal_with_n_back,,,,,,0.0-0.0-58.0,90.0,mismatch,"[77, 90]",t,,890,1000.0,<div class = bigbox><div class = centerbox><div class = gng_number><div class = cue-text><img class = center src='/static/experiments/stop_signal_with_n_back/images/lowercase_T.png'></img></div></div></div></div>,0.0,stop,,120259,0.0,practice_trial,58,stop-signal,
59,,,,,,,,,500.0,,,,,,,stop_signal_with_n_back,,,,,,0.0-0.0-59.0,-1.0,,none,,,-1,500.0,"<div class = fb_box><div class = center-text><font size = 20>There was a star.</font></div></div><div class = prompt_box><p class = center-block-text style = ""font-size:16px; line-height:80%%;"">Match the current letter to the letter that appeared 1 trial ago</p><p class = center-block-text style = ""font-size:16px; line-height:80%%;"">If they match, press the M Key</p><p class = center-block-text style = ""font-size:16px; line-height:80%%;"">If they mismatch, press the Z Key</p><p class = center-block-text style = ""font-size:16px; line-height:80%%;"">Do not respond if you see a star!</p></div>",,,,120762,0.0,practice-stop-feedback,59,poldrack-single-stim,
60,150.0,350.0,350.0,150.0,500.0,<div class = bigbox><div class = starbox><img class = center src='/static/experiments/stop_signal_with_n_back/images/stopSignal.png'></img></div></div>,stop,,2000.0,,-1.0,1.0,0.0,30.0,1.0,stop_signal_with_n_back,,,,,,0.0-0.0-60.0,-1.0,mismatch,"[77, 90]",v,,-1,1000.0,<div class = bigbox><div class = centerbox><div class = gng_number><div class = cue-text><img class = center src='/static/experiments/stop_signal_with_n_back/images/lowercase_V.png'></img></div></div></div></div>,1.0,stop,,122765,0.0,practice_trial,60,stop-signal,
61,,,,,,,,,500.0,,,,,,,stop_signal_with_n_back,,,,,,0.0-0.0-61.0,-1.0,,none,,,-1,500.0,"<div class = fb_box><div class = center-text><font size = 20>Correct!</font></div></div><div class = prompt_box><p class = center-block-text style = ""font-size:16px; line-height:80%%;"">Match the current letter to the letter that appeared 1 trial ago</p><p class = center-block-text style = ""font-size:16px; line-height:80%%;"">If they match, press the M Key</p><p class = center-block-text style = ""font-size:16px; line-height:80%%;"">If they mismatch, press the Z Key</p><p class = center-block-text style = ""font-size:16px; line-height:80%%;"">Do not respond if you see a star!</p></div>",,,,123267,0.0,practice-stop-feedback,61,poldrack-single-stim,
62,200.0,350.0,350.0,200.0,500.0,<div class = bigbox><div class = starbox><img class = center src='/static/experiments/stop_signal_with_n_back/images/stopSignal.png'></img></div></div>,go,,2000.0,,90.0,1.0,0.0,31.0,1.0,stop_signal_with_n_back,,,,,,0.0-0.0-62.0,90.0,mismatch,"[77, 90]",B,,664,1000.0,<div class = bigbox><div class = centerbox><div class = gng_number><div class = cue-text><img class = center src='/static/experiments/stop_signal_with_n_back/images/uppercase_B.png'></img></div></div></div></div>,,go,,125270,0.0,practice_trial,62,stop-signal,
63,,,,,,,,,500.0,,,,,,,stop_signal_with_n_back,,,,,,0.0-0.0-63.0,-1.0,,none,,,-1,500.0,"<div class = fb_box><div class = center-text><font size = 20>Correct!</font></div></div><div class = prompt_box><p class = center-block-text style = ""font-size:16px; line-height:80%%;"">Match the current letter to the letter that appeared 1 trial ago</p><p class = center-block-text style = ""font-size:16px; line-height:80%%;"">If they match, press the M Key</p><p class = center-block-text style = ""font-size:16px; line-height:80%%;"">If they mismatch, press the Z Key</p><p class = center-block-text style = ""font-size:16px; line-height:80%%;"">Do not respond if you see a star!</p></div>",,,,125773,0.0,practice-stop-feedback,63,poldrack-single-stim,
64,200.0,350.0,350.0,200.0,500.0,<div class = bigbox><div class = starbox><img class = center src='/static/experiments/stop_signal_with_n_back/images/stopSignal.png'></img></div></div>,go,,2000.0,,90.0,1.0,0.0,32.0,1.0,stop_signal_with_n_back,,,,,,0.0-0.0-64.0,90.0,mismatch,"[77, 90]",G,,854,1000.0,<div class = bigbox><div class = centerbox><div class = gng_number><div class = cue-text><img class = center src='/static/experiments/stop_signal_with_n_back/images/uppercase_G.png'></img></div></div></div></div>,,go,,127776,0.0,practice_trial,64,stop-signal,
65,,,,,,,,,500.0,,,,,,,stop_signal_with_n_back,,,,,,0.0-0.0-65.0,-1.0,,none,,,-1,500.0,"<div class = fb_box><div class = center-text><font size = 20>Correct!</font></div></div><div class = prompt_box><p class = center-block-text style = ""font-size:16px; line-height:80%%;"">Match the current letter to the letter that appeared 1 trial ago</p><p class = center-block-text style = ""font-size:16px; line-height:80%%;"">If they match, press the M Key</p><p class = center-block-text style = ""font-size:16px; line-height:80%%;"">If they mismatch, press the Z Key</p><p class = center-block-text style = ""font-size:16px; line-height:80%%;"">Do not respond if you see a star!</p></div>",,,,128278,0.0,practice-stop-feedback,65,poldrack-single-stim,
66,200.0,350.0,350.0,200.0,500.0,<div class = bigbox><div class = starbox><img class = center src='/static/experiments/stop_signal_with_n_back/images/stopSignal.png'></img></div></div>,stop,,2000.0,,-1.0,1.0,0.0,33.0,1.0,stop_signal_with_n_back,,,,,,0.0-0.0-66.0,-1.0,mismatch,"[77, 90]",v,,-1,1000.0,<div class = bigbox><div class = centerbox><div class = gng_number><div class = cue-text><img class = center src='/static/experiments/stop_signal_with_n_back/images/lowercase_V.png'></img></div></div></div></div>,1.0,stop,,130281,0.0,practice_trial,66,stop-signal,
67,,,,,,,,,500.0,,,,,,,stop_signal_with_n_back,,,,,,0.0-0.0-67.0,-1.0,,none,,,-1,500.0,"<div class = fb_box><div class = center-text><font size = 20>Correct!</font></div></div><div class = prompt_box><p class = center-block-text style = ""font-size:16px; line-height:80%%;"">Match the current letter to the letter that appeared 1 trial ago</p><p class = center-block-text style = ""font-size:16px; line-height:80%%;"">If they match, press the M Key</p><p class = center-block-text style = ""font-size:16px; line-height:80%%;"">If they mismatch, press the Z Key</p><p class = center-block-text style = ""font-size:16px; line-height:80%%;"">Do not respond if you see a star!</p></div>",,,,130784,0.0,practice-stop-feedback,67,poldrack-single-stim,
68,250.0,350.0,350.0,250.0,500.0,<div class = bigbox><div class = starbox><img class = center src='/static/experiments/stop_signal_with_n_back/images/stopSignal.png'></img></div></div>,go,,2000.0,,90.0,1.0,0.0,34.0,1.0,stop_signal_with_n_back,,,,,,0.0-0.0-68.0,90.0,mismatch,"[77, 90]",G,,531,1000.0,<div class = bigbox><div class = centerbox><div class = gng_number><div class = cue-text><img class = center src='/static/experiments/stop_signal_with_n_back/images/uppercase_G.png'></img></div></div></div></div>,,go,,132786,0.0,practice_trial,68,stop-signal,
69,,,,,,,,,500.0,,,,,,,stop_signal_with_n_back,,,,,,0.0-0.0-69.0,-1.0,,none,,,-1,500.0,"<div class = fb_box><div class = center-text><font size = 20>Correct!</font></div></div><div class = prompt_box><p class = center-block-text style = ""font-size:16px; line-height:80%%;"">Match the current letter to the letter that appeared 1 trial ago</p><p class = center-block-text style = ""font-size:16px; line-height:80%%;"">If they match, press the M Key</p><p class = center-block-text style = ""font-size:16px; line-height:80%%;"">If they mismatch, press the Z Key</p><p class = center-block-text style = ""font-size:16px; line-height:80%%;"">Do not respond if you see a star!</p></div>",,,,133289,0.0,practice-stop-feedback,69,poldrack-single-stim,
70,250.0,350.0,350.0,250.0,500.0,<div class = bigbox><div class = starbox><img class = center src='/static/experiments/stop_signal_with_n_back/images/stopSignal.png'></img></div></div>,stop,,2000.0,,-1.0,0.0,0.0,35.0,1.0,stop_signal_with_n_back,,,,,,0.0-0.0-70.0,90.0,mismatch,"[77, 90]",t,,618,1000.0,<div class = bigbox><div class = centerbox><div class = gng_number><div class = cue-text><img class = center src='/static/experiments/stop_signal_with_n_back/images/lowercase_T.png'></img></div></div></div></div>,0.0,stop,,135292,0.0,practice_trial,70,stop-signal,
71,,,,,,,,,500.0,,,,,,,stop_signal_with_n_back,,,,,,0.0-0.0-71.0,-1.0,,none,,,-1,500.0,"<div class = fb_box><div class = center-text><font size = 20>There was a star.</font></div></div><div class = prompt_box><p class = center-block-text style = ""font-size:16px; line-height:80%%;"">Match the current letter to the letter that appeared 1 trial ago</p><p class = center-block-text style = ""font-size:16px; line-height:80%%;"">If they match, press the M Key</p><p class = center-block-text style = ""font-size:16px; line-height:80%%;"">If they mismatch, press the Z Key</p><p class = center-block-text style = ""font-size:16px; line-height:80%%;"">Do not respond if you see a star!</p></div>",,,,135794,0.0,practice-stop-feedback,71,poldrack-single-stim,
72,200.0,350.0,350.0,200.0,500.0,<div class = bigbox><div class = starbox><img class = center src='/static/experiments/stop_signal_with_n_back/images/stopSignal.png'></img></div></div>,stop,,2000.0,,-1.0,1.0,0.0,36.0,1.0,stop_signal_with_n_back,,,,,,0.0-0.0-72.0,-1.0,mismatch,"[77, 90]",G,,-1,1000.0,<div class = bigbox><div class = centerbox><div class = gng_number><div class = cue-text><img class = center src='/static/experiments/stop_signal_with_n_back/images/uppercase_G.png'></img></div></div></div></div>,1.0,stop,,137797,0.0,practice_trial,72,stop-signal,
73,,,,,,,,,500.0,,,,,,,stop_signal_with_n_back,,,,,,0.0-0.0-73.0,-1.0,,none,,,-1,500.0,"<div class = fb_box><div class = center-text><font size = 20>Correct!</font></div></div><div class = prompt_box><p class = center-block-text style = ""font-size:16px; line-height:80%%;"">Match the current letter to the letter that appeared 1 trial ago</p><p class = center-block-text style = ""font-size:16px; line-height:80%%;"">If they match, press the M Key</p><p class = center-block-text style = ""font-size:16px; line-height:80%%;"">If they mismatch, press the Z Key</p><p class = center-block-text style = ""font-size:16px; line-height:80%%;"">Do not respond if you see a star!</p></div>",,,,138300,0.0,practice-stop-feedback,73,poldrack-single-stim,
74,250.0,350.0,350.0,250.0,500.0,<div class = bigbox><div class = starbox><img class = center src='/static/experiments/stop_signal_with_n_back/images/stopSignal.png'></img></div></div>,stop,,2000.0,,-1.0,1.0,0.0,37.0,1.0,stop_signal_with_n_back,,,,,,0.0-0.0-74.0,-1.0,mismatch,"[77, 90]",D,,-1,1000.0,<div class = bigbox><div class = centerbox><div class = gng_number><div class = cue-text><img class = center src='/static/experiments/stop_signal_with_n_back/images/uppercase_D.png'></img></div></div></div></div>,1.0,stop,,140302,0.0,practice_trial,74,stop-signal,
75,,,,,,,,,500.0,,,,,,,stop_signal_with_n_back,,,,,,0.0-0.0-75.0,-1.0,,none,,,-1,500.0,"<div class = fb_box><div class = center-text><font size = 20>Correct!</font></div></div><div class = prompt_box><p class = center-block-text style = ""font-size:16px; line-height:80%%;"">Match the current letter to the letter that appeared 1 trial ago</p><p class = center-block-text style = ""font-size:16px; line-height:80%%;"">If they match, press the M Key</p><p class = center-block-text style = ""font-size:16px; line-height:80%%;"">If they mismatch, press the Z Key</p><p class = center-block-text style = ""font-size:16px; line-height:80%%;"">Do not respond if you see a star!</p></div>",,,,140805,0.0,practice-stop-feedback,75,poldrack-single-stim,
76,300.0,350.0,350.0,300.0,500.0,<div class = bigbox><div class = starbox><img class = center src='/static/experiments/stop_signal_with_n_back/images/stopSignal.png'></img></div></div>,go,,2000.0,,90.0,1.0,0.0,38.0,1.0,stop_signal_with_n_back,,,,,,0.0-0.0-76.0,90.0,mismatch,"[77, 90]",T,,782,1000.0,<div class = bigbox><div class = centerbox><div class = gng_number><div class = cue-text><img class = center src='/static/experiments/stop_signal_with_n_back/images/uppercase_T.png'></img></div></div></div></div>,,go,,142808,0.0,practice_trial,76,stop-signal,
77,,,,,,,,,500.0,,,,,,,stop_signal_with_n_back,,,,,,0.0-0.0-77.0,-1.0,,none,,,-1,500.0,"<div class = fb_box><div class = center-text><font size = 20>Correct!</font></div></div><div class = prompt_box><p class = center-block-text style = ""font-size:16px; line-height:80%%;"">Match the current letter to the letter that appeared 1 trial ago</p><p class = center-block-text style = ""font-size:16px; line-height:80%%;"">If they match, press the M Key</p><p class = center-block-text style = ""font-size:16px; line-height:80%%;"">If they mismatch, press the Z Key</p><p class = center-block-text style = ""font-size:16px; line-height:80%%;"">Do not respond if you see a star!</p></div>",,,,143310,0.0,practice-stop-feedback,77,poldrack-single-stim,
78,300.0,350.0,350.0,300.0,500.0,<div class = bigbox><div class = starbox><img class = center src='/static/experiments/stop_signal_with_n_back/images/stopSignal.png'></img></div></div>,go,,2000.0,,90.0,1.0,0.0,39.0,1.0,stop_signal_with_n_back,,,,,,0.0-0.0-78.0,90.0,mismatch,"[77, 90]",b,,604,1000.0,<div class = bigbox><div class = centerbox><div class = gng_number><div class = cue-text><img class = center src='/static/experiments/stop_signal_with_n_back/images/lowercase_B.png'></img></div></div></div></div>,,go,,145313,0.0,practice_trial,78,stop-signal,
79,,,,,,,,,500.0,,,,,,,stop_signal_with_n_back,,,,,,0.0-0.0-79.0,-1.0,,none,,,-1,500.0,"<div class = fb_box><div class = center-text><font size = 20>Correct!</font></div></div><div class = prompt_box><p class = center-block-text style = ""font-size:16px; line-height:80%%;"">Match the current letter to the letter that appeared 1 trial ago</p><p class = center-block-text style = ""font-size:16px; line-height:80%%;"">If they match, press the M Key</p><p class = center-block-text style = ""font-size:16px; line-height:80%%;"">If they mismatch, press the Z Key</p><p class = center-block-text style = ""font-size:16px; line-height:80%%;"">Do not respond if you see a star!</p></div>",,,,145815,0.0,practice-stop-feedback,79,poldrack-single-stim,
80,300.0,350.0,350.0,300.0,500.0,<div class = bigbox><div class = starbox><img class = center src='/static/experiments/stop_signal_with_n_back/images/stopSignal.png'></img></div></div>,stop,,2000.0,,-1.0,0.0,0.0,40.0,1.0,stop_signal_with_n_back,,,,,,0.0-0.0-80.0,90.0,mismatch,"[77, 90]",d,,540,1000.0,<div class = bigbox><div class = centerbox><div class = gng_number><div class = cue-text><img class = center src='/static/experiments/stop_signal_with_n_back/images/lowercase_D.png'></img></div></div></div></div>,0.0,stop,,147818,0.0,practice_trial,80,stop-signal,
81,,,,,,,,,500.0,,,,,,,stop_signal_with_n_back,,,,,,0.0-0.0-81.0,-1.0,,none,,,-1,500.0,"<div class = fb_box><div class = center-text><font size = 20>There was a star.</font></div></div><div class = prompt_box><p class = center-block-text style = ""font-size:16px; line-height:80%%;"">Match the current letter to the letter that appeared 1 trial ago</p><p class = center-block-text style = ""font-size:16px; line-height:80%%;"">If they match, press the M Key</p><p class = center-block-text style = ""font-size:16px; line-height:80%%;"">If they mismatch, press the Z Key</p><p class = center-block-text style = ""font-size:16px; line-height:80%%;"">Do not respond if you see a star!</p></div>",,,,148320,0.0,practice-stop-feedback,81,poldrack-single-stim,
82,250.0,350.0,350.0,250.0,500.0,<div class = bigbox><div class = starbox><img class = center src='/static/experiments/stop_signal_with_n_back/images/stopSignal.png'></img></div></div>,go,,2000.0,,90.0,1.0,0.0,41.0,1.0,stop_signal_with_n_back,,,,,,0.0-0.0-82.0,90.0,mismatch,"[77, 90]",v,,963,1000.0,<div class = bigbox><div class = centerbox><div class = gng_number><div class = cue-text><img class = center src='/static/experiments/stop_signal_with_n_back/images/lowercase_V.png'></img></div></div></div></div>,,go,,150323,0.0,practice_trial,82,stop-signal,
83,,,,,,,,,500.0,,,,,,,stop_signal_with_n_back,,,,,,0.0-0.0-83.0,-1.0,,none,,,-1,500.0,"<div class = fb_box><div class = center-text><font size = 20>Correct!</font></div></div><div class = prompt_box><p class = center-block-text style = ""font-size:16px; line-height:80%%;"">Match the current letter to the letter that appeared 1 trial ago</p><p class = center-block-text style = ""font-size:16px; line-height:80%%;"">If they match, press the M Key</p><p class = center-block-text style = ""font-size:16px; line-height:80%%;"">If they mismatch, press the Z Key</p><p class = center-block-text style = ""font-size:16px; line-height:80%%;"">Do not respond if you see a star!</p></div>",,,,150825,0.0,practice-stop-feedback,83,poldrack-single-stim,
84,250.0,350.0,350.0,250.0,500.0,<div class = bigbox><div class = starbox><img class = center src='/static/experiments/stop_signal_with_n_back/images/stopSignal.png'></img></div></div>,go,,2000.0,,90.0,1.0,0.0,42.0,1.0,stop_signal_with_n_back,,,,,,0.0-0.0-84.0,90.0,mismatch,"[77, 90]",G,,618,1000.0,<div class = bigbox><div class = centerbox><div class = gng_number><div class = cue-text><img class = center src='/static/experiments/stop_signal_with_n_back/images/uppercase_G.png'></img></div></div></div></div>,,go,,152828,0.0,practice_trial,84,stop-signal,
85,,,,,,,,,500.0,,,,,,,stop_signal_with_n_back,,,,,,0.0-0.0-85.0,-1.0,,none,,,-1,500.0,"<div class = fb_box><div class = center-text><font size = 20>Correct!</font></div></div><div class = prompt_box><p class = center-block-text style = ""font-size:16px; line-height:80%%;"">Match the current letter to the letter that appeared 1 trial ago</p><p class = center-block-text style = ""font-size:16px; line-height:80%%;"">If they match, press the M Key</p><p class = center-block-text style = ""font-size:16px; line-height:80%%;"">If they mismatch, press the Z Key</p><p class = center-block-text style = ""font-size:16px; line-height:80%%;"">Do not respond if you see a star!</p></div>",,,,153330,0.0,practice-stop-feedback,85,poldrack-single-stim,
86,250.0,350.0,350.0,250.0,500.0,<div class = bigbox><div class = starbox><img class = center src='/static/experiments/stop_signal_with_n_back/images/stopSignal.png'></img></div></div>,go,,2000.0,,90.0,1.0,0.0,43.0,1.0,stop_signal_with_n_back,,,,,,0.0-0.0-86.0,90.0,mismatch,"[77, 90]",d,,505,1000.0,<div class = bigbox><div class = centerbox><div class = gng_number><div class = cue-text><img class = center src='/static/experiments/stop_signal_with_n_back/images/lowercase_D.png'></img></div></div></div></div>,,go,,155333,0.0,practice_trial,86,stop-signal,
87,,,,,,,,,500.0,,,,,,,stop_signal_with_n_back,,,,,,0.0-0.0-87.0,-1.0,,none,,,-1,500.0,"<div class = fb_box><div class = center-text><font size = 20>Correct!</font></div></div><div class = prompt_box><p class = center-block-text style = ""font-size:16px; line-height:80%%;"">Match the current letter to the letter that appeared 1 trial ago</p><p class = center-block-text style = ""font-size:16px; line-height:80%%;"">If they match, press the M Key</p><p class = center-block-text style = ""font-size:16px; line-height:80%%;"">If they mismatch, press the Z Key</p><p class = center-block-text style = ""font-size:16px; line-height:80%%;"">Do not respond if you see a star!</p></div>",,,,155836,0.0,practice-stop-feedback,87,poldrack-single-stim,
88,250.0,350.0,350.0,250.0,500.0,<div class = bigbox><div class = starbox><img class = center src='/static/experiments/stop_signal_with_n_back/images/stopSignal.png'></img></div></div>,go,,2000.0,,90.0,1.0,0.0,44.0,1.0,stop_signal_with_n_back,,,,,,0.0-0.0-88.0,90.0,mismatch,"[77, 90]",B,,607,1000.0,<div class = bigbox><div class = centerbox><div class = gng_number><div class = cue-text><img class = center src='/static/experiments/stop_signal_with_n_back/images/uppercase_B.png'></img></div></div></div></div>,,go,,157838,0.0,practice_trial,88,stop-signal,
89,,,,,,,,,500.0,,,,,,,stop_signal_with_n_back,,,,,,0.0-0.0-89.0,-1.0,,none,,,-1,500.0,"<div class = fb_box><div class = center-text><font size = 20>Correct!</font></div></div><div class = prompt_box><p class = center-block-text style = ""font-size:16px; line-height:80%%;"">Match the current letter to the letter that appeared 1 trial ago</p><p class = center-block-text style = ""font-size:16px; line-height:80%%;"">If they match, press the M Key</p><p class = center-block-text style = ""font-size:16px; line-height:80%%;"">If they mismatch, press the Z Key</p><p class = center-block-text style = ""font-size:16px; line-height:80%%;"">Do not respond if you see a star!</p></div>",,,,158341,0.0,practice-stop-feedback,89,poldrack-single-stim,
90,250.0,350.0,350.0,250.0,500.0,<div class = bigbox><div class = starbox><img class = center src='/static/experiments/stop_signal_with_n_back/images/stopSignal.png'></img></div></div>,stop,,2000.0,,-1.0,1.0,0.0,45.0,1.0,stop_signal_with_n_back,,,,,,0.0-0.0-90.0,-1.0,mismatch,"[77, 90]",D,,-1,1000.0,<div class = bigbox><div class = centerbox><div class = gng_number><div class = cue-text><img class = center src='/static/experiments/stop_signal_with_n_back/images/uppercase_D.png'></img></div></div></div></div>,1.0,stop,,160344,0.0,practice_trial,90,stop-signal,
91,,,,,,,,,500.0,,,,,,,stop_signal_with_n_back,,,,,,0.0-0.0-91.0,-1.0,,none,,,-1,500.0,"<div class = fb_box><div class = center-text><font size = 20>Correct!</font></div></div><div class = prompt_box><p class = center-block-text style = ""font-size:16px; line-height:80%%;"">Match the current letter to the letter that appeared 1 trial ago</p><p class = center-block-text style = ""font-size:16px; line-height:80%%;"">If they match, press the M Key</p><p class = center-block-text style = ""font-size:16px; line-height:80%%;"">If they mismatch, press the Z Key</p><p class = center-block-text style = ""font-size:16px; line-height:80%%;"">Do not respond if you see a star!</p></div>",,,,160846,0.0,practice-stop-feedback,91,poldrack-single-stim,
92,300.0,350.0,350.0,300.0,500.0,<div class = bigbox><div class = starbox><img class = center src='/static/experiments/stop_signal_with_n_back/images/stopSignal.png'></img></div></div>,stop,,2000.0,,-1.0,0.0,0.0,46.0,1.0,stop_signal_with_n_back,,,,,,0.0-0.0-92.0,90.0,mismatch,"[77, 90]",V,,533,1000.0,<div class = bigbox><div class = centerbox><div class = gng_number><div class = cue-text><img class = center src='/static/experiments/stop_signal_with_n_back/images/uppercase_V.png'></img></div></div></div></div>,0.0,stop,,162849,0.0,practice_trial,92,stop-signal,
93,,,,,,,,,500.0,,,,,,,stop_signal_with_n_back,,,,,,0.0-0.0-93.0,-1.0,,none,,,-1,500.0,"<div class = fb_box><div class = center-text><font size = 20>There was a star.</font></div></div><div class = prompt_box><p class = center-block-text style = ""font-size:16px; line-height:80%%;"">Match the current letter to the letter that appeared 1 trial ago</p><p class = center-block-text style = ""font-size:16px; line-height:80%%;"">If they match, press the M Key</p><p class = center-block-text style = ""font-size:16px; line-height:80%%;"">If they mismatch, press the Z Key</p><p class = center-block-text style = ""font-size:16px; line-height:80%%;"">Do not respond if you see a star!</p></div>",,,,163352,0.0,practice-stop-feedback,93,poldrack-single-stim,
94,250.0,350.0,350.0,250.0,500.0,<div class = bigbox><div class = starbox><img class = center src='/static/experiments/stop_signal_with_n_back/images/stopSignal.png'></img></div></div>,go,,2000.0,,90.0,1.0,0.0,47.0,1.0,stop_signal_with_n_back,,,,,,0.0-0.0-94.0,90.0,mismatch,"[77, 90]",G,,747,1000.0,<div class = bigbox><div class = centerbox><div class = gng_number><div class = cue-text><img class = center src='/static/experiments/stop_signal_with_n_back/images/uppercase_G.png'></img></div></div></div></div>,,go,,165355,0.0,practice_trial,94,stop-signal,
95,,,,,,,,,500.0,,,,,,,stop_signal_with_n_back,,,,,,0.0-0.0-95.0,-1.0,,none,,,-1,500.0,"<div class = fb_box><div class = center-text><font size = 20>Correct!</font></div></div><div class = prompt_box><p class = center-block-text style = ""font-size:16px; line-height:80%%;"">Match the current letter to the letter that appeared 1 trial ago</p><p class = center-block-text style = ""font-size:16px; line-height:80%%;"">If they match, press the M Key</p><p class = center-block-text style = ""font-size:16px; line-height:80%%;"">If they mismatch, press the Z Key</p><p class = center-block-text style = ""font-size:16px; line-height:80%%;"">Do not respond if you see a star!</p></div>",,,,165857,0.0,practice-stop-feedback,95,poldrack-single-stim,
96,250.0,350.0,350.0,250.0,500.0,<div class = bigbox><div class = starbox><img class = center src='/static/experiments/stop_signal_with_n_back/images/stopSignal.png'></img></div></div>,go,,2000.0,,90.0,1.0,0.0,48.0,1.0,stop_signal_with_n_back,,,,,,0.0-0.0-96.0,90.0,mismatch,"[77, 90]",D,,594,1000.0,<div class = bigbox><div class = centerbox><div class = gng_number><div class = cue-text><img class = center src='/static/experiments/stop_signal_with_n_back/images/uppercase_D.png'></img></div></div></div></div>,,go,,167860,0.0,practice_trial,96,stop-signal,
97,,,,,,,,,500.0,,,,,,,stop_signal_with_n_back,,,,,,0.0-0.0-97.0,-1.0,,none,,,-1,500.0,"<div class = fb_box><div class = center-text><font size = 20>Correct!</font></div></div><div class = prompt_box><p class = center-block-text style = ""font-size:16px; line-height:80%%;"">Match the current letter to the letter that appeared 1 trial ago</p><p class = center-block-text style = ""font-size:16px; line-height:80%%;"">If they match, press the M Key</p><p class = center-block-text style = ""font-size:16px; line-height:80%%;"">If they mismatch, press the Z Key</p><p class = center-block-text style = ""font-size:16px; line-height:80%%;"">Do not respond if you see a star!</p></div>",,,,168363,0.0,practice-stop-feedback,97,poldrack-single-stim,
98,,,,,,,,,3934.0,,,,,,,stop_signal_with_n_back,,,,,,0.0-1.0,13.0,,[13],,,3934,3934.0,"<div class = bigbox><div class = picture_box><p class = block-text><font color=""white""><br>Please take this time to read your feedback and to take a short break! Press enter to continue.</p><p class = block-text>Done with this practice. Press Enter to continue.</font></p></div></div>",,,,172300,0.0,practice-no-stop-feedback,98,poldrack-single-stim,
99,,,,,,,,,4207.0,,,,,,,stop_signal_with_n_back,,,,,,0.0-2.0,13.0,,,,,4207,,,,,"<div class = centerbox><p class = block-text>We will now begin the test portion.</p><p class = block-text>You will be asked to match the current letter to the letter that appeared either 1, 2, 3 trials ago depending on the delay given to you for that block.</p><p class = block-text>Press the M Key if they match, or the Z Key if they mismatch.</p><p class = block-text>Your delay (the number of trials ago to which you must match the current letter) will change from block to block.</p><p class = block-text>Do not respond if you see a star! You should remember the letter on that trial, however.</p><p class = block-text>Capitalization does not matter, so ""T"" matches with ""t"".</p> <p class = block-text>You will no longer receive the rule prompt, so remember the instructions before you continue. Press Enter to begin.</p></div>",176509,1000.0,instruction,99,poldrack-text,
100,,,,,,,,,3941.0,,,,,,,stop_signal_with_n_back,,,,,,0.0-3.0-0.0,13.0,,[13],,,3941,3941.0,"<div class = bigbox><div class = picture_box><p class = block-text><font color=""white"">Your delay for this block is 1. Please match the current letter to the letter that appeared 1 trial(s) ago. Press enter to begin.</font></p></div></div>",,,,181452,0.0,practice-no-stop-feedback,100,poldrack-single-stim,
101,,,,,,,,,2311.0,True,69.0,,,,,stop_signal_with_n_back,,,,,,0.0-3.0-1.0-0.0,69.0,,[],,,2311,2311.0,"<p>If (7+1+4) is even, press the ""E"" key. Otherwise press the ""O"" key. </p>",,,,183765,200.0,attention_check,101,attention-check,
102,250.0,350.0,350.0,250.0,500.0,<div class = bigbox><div class = starbox><img class = center src='/static/experiments/stop_signal_with_n_back/images/stopSignal.png'></img></div></div>,go,,2000.0,,90.0,1.0,0.0,1.0,1.0,stop_signal_with_n_back,,,,,,0.0-3.0-2.0,90.0,N/A,"[77, 90]",D,,1069,1000.0,<div class = bigbox><div class = centerbox><div class = gng_number><div class = cue-text><img class = center src='/static/experiments/stop_signal_with_n_back/images/uppercase_D.png'></img></div></div></div></div>,,go,,185968,0.0,test_trial,102,stop-signal,
103,250.0,350.0,350.0,250.0,500.0,<div class = bigbox><div class = starbox><img class = center src='/static/experiments/stop_signal_with_n_back/images/stopSignal.png'></img></div></div>,go,,2000.0,,90.0,1.0,0.0,2.0,1.0,stop_signal_with_n_back,,,,,,0.0-3.0-3.0,90.0,mismatch,"[77, 90]",T,,667,1000.0,<div class = bigbox><div class = centerbox><div class = gng_number><div class = cue-text><img class = center src='/static/experiments/stop_signal_with_n_back/images/uppercase_T.png'></img></div></div></div></div>,,go,,187971,0.0,test_trial,103,stop-signal,
104,250.0,350.0,350.0,250.0,500.0,<div class = bigbox><div class = starbox><img class = center src='/static/experiments/stop_signal_with_n_back/images/stopSignal.png'></img></div></div>,go,,2000.0,,90.0,1.0,0.0,3.0,1.0,stop_signal_with_n_back,,,,,,0.0-3.0-4.0,90.0,mismatch,"[77, 90]",d,,512,1000.0,<div class = bigbox><div class = centerbox><div class = gng_number><div class = cue-text><img class = center src='/static/experiments/stop_signal_with_n_back/images/lowercase_D.png'></img></div></div></div></div>,,go,,189974,0.0,test_trial,104,stop-signal,
105,250.0,350.0,350.0,250.0,500.0,<div class = bigbox><div class = starbox><img class = center src='/static/experiments/stop_signal_with_n_back/images/stopSignal.png'></img></div></div>,go,,2000.0,,77.0,1.0,0.0,4.0,1.0,stop_signal_with_n_back,,,,,,0.0-3.0-5.0,77.0,match,"[77, 90]",D,,701,1000.0,<div class = bigbox><div class = centerbox><div class = gng_number><div class = cue-text><img class = center src='/static/experiments/stop_signal_with_n_back/images/uppercase_D.png'></img></div></div></div></div>,,go,,191977,0.0,test_trial,105,stop-signal,
106,250.0,350.0,350.0,250.0,500.0,<div class = bigbox><div class = starbox><img class = center src='/static/experiments/stop_signal_with_n_back/images/stopSignal.png'></img></div></div>,stop,,2000.0,,-1.0,0.0,0.0,5.0,1.0,stop_signal_with_n_back,,,,,,0.0-3.0-6.0,90.0,mismatch,"[77, 90]",g,,593,1000.0,<div class = bigbox><div class = centerbox><div class = gng_number><div class = cue-text><img class = center src='/static/experiments/stop_signal_with_n_back/images/lowercase_G.png'></img></div></div></div></div>,0.0,stop,,193980,0.0,test_trial,106,stop-signal,
107,200.0,350.0,350.0,200.0,500.0,<div class = bigbox><div class = starbox><img class = center src='/static/experiments/stop_signal_with_n_back/images/stopSignal.png'></img></div></div>,go,,2000.0,,77.0,0.0,0.0,6.0,1.0,stop_signal_with_n_back,,,,,,0.0-3.0-7.0,90.0,match,"[77, 90]",G,,879,1000.0,<div class = bigbox><div class = centerbox><div class = gng_number><div class = cue-text><img class = center src='/static/experiments/stop_signal_with_n_back/images/uppercase_G.png'></img></div></div></div></div>,,go,,195983,0.0,test_trial,107,stop-signal,
108,200.0,350.0,350.0,200.0,500.0,<div class = bigbox><div class = starbox><img class = center src='/static/experiments/stop_signal_with_n_back/images/stopSignal.png'></img></div></div>,stop,,2000.0,,-1.0,1.0,0.0,7.0,1.0,stop_signal_with_n_back,,,,,,0.0-3.0-8.0,-1.0,mismatch,"[77, 90]",T,,-1,1000.0,<div class = bigbox><div class = centerbox><div class = gng_number><div class = cue-text><img class = center src='/static/experiments/stop_signal_with_n_back/images/uppercase_T.png'></img></div></div></div></div>,1.0,stop,,197986,0.0,test_trial,108,stop-signal,
109,250.0,350.0,350.0,250.0,500.0,<div class = bigbox><div class = starbox><img class = center src='/static/experiments/stop_signal_with_n_back/images/stopSignal.png'></img></div></div>,go,,2000.0,,90.0,1.0,0.0,8.0,1.0,stop_signal_with_n_back,,,,,,0.0-3.0-9.0,90.0,mismatch,"[77, 90]",D,,666,1000.0,<div class = bigbox><div class = centerbox><div class = gng_number><div class = cue-text><img class = center src='/static/experiments/stop_signal_with_n_back/images/uppercase_D.png'></img></div></div></div></div>,,go,,199989,0.0,test_trial,109,stop-signal,
110,250.0,350.0,350.0,250.0,500.0,<div class = bigbox><div class = starbox><img class = center src='/static/experiments/stop_signal_with_n_back/images/stopSignal.png'></img></div></div>,go,,2000.0,,77.0,1.0,0.0,9.0,1.0,stop_signal_with_n_back,,,,,,0.0-3.0-10.0,77.0,match,"[77, 90]",D,,591,1000.0,<div class = bigbox><div class = centerbox><div class = gng_number><div class = cue-text><img class = center src='/static/experiments/stop_signal_with_n_back/images/uppercase_D.png'></img></div></div></div></div>,,go,,201991,0.0,test_trial,110,stop-signal,
111,250.0,350.0,350.0,250.0,500.0,<div class = bigbox><div class = starbox><img class = center src='/static/experiments/stop_signal_with_n_back/images/stopSignal.png'></img></div></div>,stop,,2000.0,,-1.0,1.0,0.0,10.0,1.0,stop_signal_with_n_back,,,,,,0.0-3.0-11.0,-1.0,mismatch,"[77, 90]",G,,-1,1000.0,<div class = bigbox><div class = centerbox><div class = gng_number><div class = cue-text><img class = center src='/static/experiments/stop_signal_with_n_back/images/uppercase_G.png'></img></div></div></div></div>,1.0,stop,,203994,0.0,test_trial,111,stop-signal,
112,300.0,350.0,350.0,300.0,500.0,<div class = bigbox><div class = starbox><img class = center src='/static/experiments/stop_signal_with_n_back/images/stopSignal.png'></img></div></div>,go,,2000.0,,90.0,1.0,0.0,11.0,1.0,stop_signal_with_n_back,,,,,,0.0-3.0-12.0,90.0,mismatch,"[77, 90]",B,,665,1000.0,<div class = bigbox><div class = centerbox><div class = gng_number><div class = cue-text><img class = center src='/static/experiments/stop_signal_with_n_back/images/uppercase_B.png'></img></div></div></div></div>,,go,,205997,0.0,test_trial,112,stop-signal,
113,300.0,350.0,350.0,300.0,500.0,<div class = bigbox><div class = starbox><img class = center src='/static/experiments/stop_signal_with_n_back/images/stopSignal.png'></img></div></div>,stop,,2000.0,,-1.0,0.0,0.0,12.0,1.0,stop_signal_with_n_back,,,,,,0.0-3.0-13.0,90.0,mismatch,"[77, 90]",d,,542,1000.0,<div class = bigbox><div class = centerbox><div class = gng_number><div class = cue-text><img class = center src='/static/experiments/stop_signal_with_n_back/images/lowercase_D.png'></img></div></div></div></div>,0.0,stop,,207999,0.0,test_trial,113,stop-signal,
114,250.0,350.0,350.0,250.0,500.0,<div class = bigbox><div class = starbox><img class = center src='/static/experiments/stop_signal_with_n_back/images/stopSignal.png'></img></div></div>,go,,2000.0,,90.0,1.0,0.0,13.0,1.0,stop_signal_with_n_back,,,,,,0.0-3.0-14.0,90.0,mismatch,"[77, 90]",V,,708,1000.0,<div class = bigbox><div class = centerbox><div class = gng_number><div class = cue-text><img class = center src='/static/experiments/stop_signal_with_n_back/images/uppercase_V.png'></img></div></div></div></div>,,go,,210002,0.0,test_trial,114,stop-signal,
115,250.0,350.0,350.0,250.0,500.0,<div class = bigbox><div class = starbox><img class = center src='/static/experiments/stop_signal_with_n_back/images/stopSignal.png'></img></div></div>,go,,2000.0,,90.0,1.0,0.0,14.0,1.0,stop_signal_with_n_back,,,,,,0.0-3.0-15.0,90.0,mismatch,"[77, 90]",D,,697,1000.0,<div class = bigbox><div class = centerbox><div class = gng_number><div class = cue-text><img class = center src='/static/experiments/stop_signal_with_n_back/images/uppercase_D.png'></img></div></div></div></div>,,go,,212005,0.0,test_trial,115,stop-signal,
116,250.0,350.0,350.0,250.0,500.0,<div class = bigbox><div class = starbox><img class = center src='/static/experiments/stop_signal_with_n_back/images/stopSignal.png'></img></div></div>,go,,2000.0,,90.0,1.0,0.0,15.0,1.0,stop_signal_with_n_back,,,,,,0.0-3.0-16.0,90.0,mismatch,"[77, 90]",g,,518,1000.0,<div class = bigbox><div class = centerbox><div class = gng_number><div class = cue-text><img class = center src='/static/experiments/stop_signal_with_n_back/images/lowercase_G.png'></img></div></div></div></div>,,go,,214008,0.0,test_trial,116,stop-signal,
117,250.0,350.0,350.0,250.0,500.0,<div class = bigbox><div class = starbox><img class = center src='/static/experiments/stop_signal_with_n_back/images/stopSignal.png'></img></div></div>,stop,,2000.0,,-1.0,1.0,0.0,16.0,1.0,stop_signal_with_n_back,,,,,,0.0-3.0-17.0,-1.0,mismatch,"[77, 90]",D,,-1,1000.0,<div class = bigbox><div class = centerbox><div class = gng_number><div class = cue-text><img class = center src='/static/experiments/stop_signal_with_n_back/images/uppercase_D.png'></img></div></div></div></div>,1.0,stop,,216010,0.0,test_trial,117,stop-signal,
118,300.0,350.0,350.0,300.0,500.0,<div class = bigbox><div class = starbox><img class = center src='/static/experiments/stop_signal_with_n_back/images/stopSignal.png'></img></div></div>,stop,,2000.0,,-1.0,1.0,0.0,17.0,1.0,stop_signal_with_n_back,,,,,,0.0-3.0-18.0,-1.0,match,"[77, 90]",D,,-1,1000.0,<div class = bigbox><div class = centerbox><div class = gng_number><div class = cue-text><img class = center src='/static/experiments/stop_signal_with_n_back/images/uppercase_D.png'></img></div></div></div></div>,1.0,stop,,218013,0.0,test_trial,118,stop-signal,
119,350.0,350.0,350.0,350.0,500.0,<div class = bigbox><div class = starbox><img class = center src='/static/experiments/stop_signal_with_n_back/images/stopSignal.png'></img></div></div>,go,,2000.0,,90.0,1.0,0.0,18.0,1.0,stop_signal_with_n_back,,,,,,0.0-3.0-19.0,90.0,mismatch,"[77, 90]",T,,582,1000.0,<div class = bigbox><div class = centerbox><div class = gng_number><div class = cue-text><img class = center src='/static/experiments/stop_signal_with_n_back/images/uppercase_T.png'></img></div></div></div></div>,,go,,220016,0.0,test_trial,119,stop-signal,
120,350.0,350.0,350.0,350.0,500.0,<div class = bigbox><div class = starbox><img class = center src='/static/experiments/stop_signal_with_n_back/images/stopSignal.png'></img></div></div>,go,,2000.0,,90.0,1.0,0.0,19.0,1.0,stop_signal_with_n_back,,,,,,0.0-3.0-20.0,90.0,mismatch,"[77, 90]",g,,611,1000.0,<div class = bigbox><div class = centerbox><div class = gng_number><div class = cue-text><img class = center src='/static/experiments/stop_signal_with_n_back/images/lowercase_G.png'></img></div></div></div></div>,,go,,222019,0.0,test_trial,120,stop-signal,
121,350.0,350.0,350.0,350.0,500.0,<div class = bigbox><div class = starbox><img class = center src='/static/experiments/stop_signal_with_n_back/images/stopSignal.png'></img></div></div>,go,,2000.0,,77.0,0.0,0.0,20.0,1.0,stop_signal_with_n_back,,,,,,0.0-3.0-21.0,90.0,match,"[77, 90]",G,,681,1000.0,<div class = bigbox><div class = centerbox><div class = gng_number><div class = cue-text><img class = center src='/static/experiments/stop_signal_with_n_back/images/uppercase_G.png'></img></div></div></div></div>,,go,,224021,0.0,test_trial,121,stop-signal,
122,350.0,350.0,350.0,350.0,500.0,<div class = bigbox><div class = starbox><img class = center src='/static/experiments/stop_signal_with_n_back/images/stopSignal.png'></img></div></div>,stop,,2000.0,,-1.0,0.0,0.0,21.0,1.0,stop_signal_with_n_back,,,,,,0.0-3.0-22.0,90.0,mismatch,"[77, 90]",D,,598,1000.0,<div class = bigbox><div class = centerbox><div class = gng_number><div class = cue-text><img class = center src='/static/experiments/stop_signal_with_n_back/images/uppercase_D.png'></img></div></div></div></div>,0.0,stop,,226023,0.0,test_trial,122,stop-signal,
123,300.0,350.0,350.0,300.0,500.0,<div class = bigbox><div class = starbox><img class = center src='/static/experiments/stop_signal_with_n_back/images/stopSignal.png'></img></div></div>,go,,2000.0,,90.0,1.0,0.0,22.0,1.0,stop_signal_with_n_back,,,,,,0.0-3.0-23.0,90.0,mismatch,"[77, 90]",T,,716,1000.0,<div class = bigbox><div class = centerbox><div class = gng_number><div class = cue-text><img class = center src='/static/experiments/stop_signal_with_n_back/images/uppercase_T.png'></img></div></div></div></div>,,go,,228026,0.0,test_trial,123,stop-signal,
124,300.0,350.0,350.0,300.0,500.0,<div class = bigbox><div class = starbox><img class = center src='/static/experiments/stop_signal_with_n_back/images/stopSignal.png'></img></div></div>,go,,2000.0,,90.0,1.0,0.0,23.0,1.0,stop_signal_with_n_back,,,,,,0.0-3.0-24.0,90.0,mismatch,"[77, 90]",D,,618,1000.0,<div class = bigbox><div class = centerbox><div class = gng_number><div class = cue-text><img class = center src='/static/experiments/stop_signal_with_n_back/images/uppercase_D.png'></img></div></div></div></div>,,go,,230027,0.0,test_trial,124,stop-signal,
125,300.0,350.0,350.0,300.0,500.0,<div class = bigbox><div class = starbox><img class = center src='/static/experiments/stop_signal_with_n_back/images/stopSignal.png'></img></div></div>,stop,,2000.0,,-1.0,1.0,0.0,24.0,1.0,stop_signal_with_n_back,,,,,,0.0-3.0-25.0,-1.0,mismatch,"[77, 90]",t,,-1,1000.0,<div class = bigbox><div class = centerbox><div class = gng_number><div class = cue-text><img class = center src='/static/experiments/stop_signal_with_n_back/images/lowercase_T.png'></img></div></div></div></div>,1.0,stop,,232030,0.0,test_trial,125,stop-signal,
126,350.0,350.0,350.0,350.0,500.0,<div class = bigbox><div class = starbox><img class = center src='/static/experiments/stop_signal_with_n_back/images/stopSignal.png'></img></div></div>,go,,2000.0,,90.0,1.0,0.0,25.0,1.0,stop_signal_with_n_back,,,,,,0.0-3.0-26.0,90.0,mismatch,"[77, 90]",d,,621,1000.0,<div class = bigbox><div class = centerbox><div class = gng_number><div class = cue-text><img class = center src='/static/experiments/stop_signal_with_n_back/images/lowercase_D.png'></img></div></div></div></div>,,go,,234033,0.0,test_trial,126,stop-signal,
127,350.0,350.0,350.0,350.0,500.0,<div class = bigbox><div class = starbox><img class = center src='/static/experiments/stop_signal_with_n_back/images/stopSignal.png'></img></div></div>,go,,2000.0,,90.0,1.0,0.0,26.0,1.0,stop_signal_with_n_back,,,,,,0.0-3.0-27.0,90.0,mismatch,"[77, 90]",V,,594,1000.0,<div class = bigbox><div class = centerbox><div class = gng_number><div class = cue-text><img class = center src='/static/experiments/stop_signal_with_n_back/images/uppercase_V.png'></img></div></div></div></div>,,go,,236036,0.0,test_trial,127,stop-signal,
128,350.0,350.0,350.0,350.0,500.0,<div class = bigbox><div class = starbox><img class = center src='/static/experiments/stop_signal_with_n_back/images/stopSignal.png'></img></div></div>,go,,2000.0,,90.0,1.0,0.0,27.0,1.0,stop_signal_with_n_back,,,,,,0.0-3.0-28.0,90.0,mismatch,"[77, 90]",d,,560,1000.0,<div class = bigbox><div class = centerbox><div class = gng_number><div class = cue-text><img class = center src='/static/experiments/stop_signal_with_n_back/images/lowercase_D.png'></img></div></div></div></div>,,go,,238038,0.0,test_trial,128,stop-signal,
129,350.0,350.0,350.0,350.0,500.0,<div class = bigbox><div class = starbox><img class = center src='/static/experiments/stop_signal_with_n_back/images/stopSignal.png'></img></div></div>,go,,2000.0,,90.0,1.0,0.0,28.0,1.0,stop_signal_with_n_back,,,,,,0.0-3.0-29.0,90.0,mismatch,"[77, 90]",v,,725,1000.0,<div class = bigbox><div class = centerbox><div class = gng_number><div class = cue-text><img class = center src='/static/experiments/stop_signal_with_n_back/images/lowercase_V.png'></img></div></div></div></div>,,go,,240041,0.0,test_trial,129,stop-signal,
130,350.0,350.0,350.0,350.0,500.0,<div class = bigbox><div class = starbox><img class = center src='/static/experiments/stop_signal_with_n_back/images/stopSignal.png'></img></div></div>,go,,2000.0,,90.0,1.0,0.0,29.0,1.0,stop_signal_with_n_back,,,,,,0.0-3.0-30.0,90.0,mismatch,"[77, 90]",d,,794,1000.0,<div class = bigbox><div class = centerbox><div class = gng_number><div class = cue-text><img class = center src='/static/experiments/stop_signal_with_n_back/images/lowercase_D.png'></img></div></div></div></div>,,go,,242044,0.0,test_trial,130,stop-signal,
131,350.0,350.0,350.0,350.0,500.0,<div class = bigbox><div class = starbox><img class = center src='/static/experiments/stop_signal_with_n_back/images/stopSignal.png'></img></div></div>,go,,2000.0,,90.0,1.0,0.0,30.0,1.0,stop_signal_with_n_back,,,,,,0.0-3.0-31.0,90.0,mismatch,"[77, 90]",B,,599,1000.0,<div class = bigbox><div class = centerbox><div class = gng_number><div class = cue-text><img class = center src='/static/experiments/stop_signal_with_n_back/images/uppercase_B.png'></img></div></div></div></div>,,go,,244046,0.0,test_trial,131,stop-signal,
132,350.0,350.0,350.0,350.0,500.0,<div class = bigbox><div class = starbox><img class = center src='/static/experiments/stop_signal_with_n_back/images/stopSignal.png'></img></div></div>,stop,,2000.0,,-1.0,0.0,0.0,31.0,1.0,stop_signal_with_n_back,,,,,,0.0-3.0-32.0,77.0,match,"[77, 90]",B,,685,1000.0,<div class = bigbox><div class = centerbox><div class = gng_number><div class = cue-text><img class = center src='/static/experiments/stop_signal_with_n_back/images/uppercase_B.png'></img></div></div></div></div>,0.0,stop,,246048,0.0,test_trial,132,stop-signal,
133,300.0,350.0,350.0,300.0,500.0,<div class = bigbox><div class = starbox><img class = center src='/static/experiments/stop_signal_with_n_back/images/stopSignal.png'></img></div></div>,stop,,2000.0,,-1.0,1.0,0.0,32.0,1.0,stop_signal_with_n_back,,,,,,0.0-3.0-33.0,-1.0,match,"[77, 90]",B,,-1,1000.0,<div class = bigbox><div class = centerbox><div class = gng_number><div class = cue-text><img class = center src='/static/experiments/stop_signal_with_n_back/images/uppercase_B.png'></img></div></div></div></div>,1.0,stop,,248051,0.0,test_trial,133,stop-signal,
134,350.0,350.0,350.0,350.0,500.0,<div class = bigbox><div class = starbox><img class = center src='/static/experiments/stop_signal_with_n_back/images/stopSignal.png'></img></div></div>,go,,2000.0,,90.0,1.0,0.0,33.0,1.0,stop_signal_with_n_back,,,,,,0.0-3.0-34.0,90.0,mismatch,"[77, 90]",T,,552,1000.0,<div class = bigbox><div class = centerbox><div class = gng_number><div class = cue-text><img class = center src='/static/experiments/stop_signal_with_n_back/images/uppercase_T.png'></img></div></div></div></div>,,go,,250054,0.0,test_trial,134,stop-signal,
135,350.0,350.0,350.0,350.0,500.0,<div class = bigbox><div class = starbox><img class = center src='/static/experiments/stop_signal_with_n_back/images/stopSignal.png'></img></div></div>,stop,,2000.0,,-1.0,1.0,0.0,34.0,1.0,stop_signal_with_n_back,,,,,,0.0-3.0-35.0,-1.0,mismatch,"[77, 90]",d,,-1,1000.0,<div class = bigbox><div class = centerbox><div class = gng_number><div class = cue-text><img class = center src='/static/experiments/stop_signal_with_n_back/images/lowercase_D.png'></img></div></div></div></div>,1.0,stop,,252056,0.0,test_trial,135,stop-signal,
136,400.0,350.0,350.0,400.0,500.0,<div class = bigbox><div class = starbox><img class = center src='/static/experiments/stop_signal_with_n_back/images/stopSignal.png'></img></div></div>,go,,2000.0,,77.0,1.0,0.0,35.0,1.0,stop_signal_with_n_back,,,,,,0.0-3.0-36.0,77.0,match,"[77, 90]",D,,923,1000.0,<div class = bigbox><div class = centerbox><div class = gng_number><div class = cue-text><img class = center src='/static/experiments/stop_signal_with_n_back/images/uppercase_D.png'></img></div></div></div></div>,,go,,254059,0.0,test_trial,136,stop-signal,
137,400.0,350.0,350.0,400.0,500.0,<div class = bigbox><div class = starbox><img class = center src='/static/experiments/stop_signal_with_n_back/images/stopSignal.png'></img></div></div>,go,,2000.0,,90.0,1.0,0.0,36.0,1.0,stop_signal_with_n_back,,,,,,0.0-3.0-37.0,90.0,mismatch,"[77, 90]",G,,800,1000.0,<div class = bigbox><div class = centerbox><div class = gng_number><div class = cue-text><img class = center src='/static/experiments/stop_signal_with_n_back/images/uppercase_G.png'></img></div></div></div></div>,,go,,256062,0.0,test_trial,137,stop-signal,
138,400.0,350.0,350.0,400.0,500.0,<div class = bigbox><div class = starbox><img class = center src='/static/experiments/stop_signal_with_n_back/images/stopSignal.png'></img></div></div>,go,,2000.0,,90.0,1.0,0.0,37.0,1.0,stop_signal_with_n_back,,,,,,0.0-3.0-38.0,90.0,mismatch,"[77, 90]",t,,621,1000.0,<div class = bigbox><div class = centerbox><div class = gng_number><div class = cue-text><img class = center src='/static/experiments/stop_signal_with_n_back/images/lowercase_T.png'></img></div></div></div></div>,,go,,258064,0.0,test_trial,138,stop-signal,
139,400.0,350.0,350.0,400.0,500.0,<div class = bigbox><div class = starbox><img class = center src='/static/experiments/stop_signal_with_n_back/images/stopSignal.png'></img></div></div>,go,,2000.0,,77.0,1.0,0.0,38.0,1.0,stop_signal_with_n_back,,,,,,0.0-3.0-39.0,77.0,match,"[77, 90]",t,,684,1000.0,<div class = bigbox><div class = centerbox><div class = gng_number><div class = cue-text><img class = center src='/static/experiments/stop_signal_with_n_back/images/lowercase_T.png'></img></div></div></div></div>,,go,,260066,0.0,test_trial,139,stop-signal,
140,400.0,350.0,350.0,400.0,500.0,<div class = bigbox><div class = starbox><img class = center src='/static/experiments/stop_signal_with_n_back/images/stopSignal.png'></img></div></div>,stop,,2000.0,,-1.0,0.0,0.0,39.0,1.0,stop_signal_with_n_back,,,,,,0.0-3.0-40.0,90.0,mismatch,"[77, 90]",V,,633,1000.0,<div class = bigbox><div class = centerbox><div class = gng_number><div class = cue-text><img class = center src='/static/experiments/stop_signal_with_n_back/images/uppercase_V.png'></img></div></div></div></div>,0.0,stop,,262068,0.0,test_trial,140,stop-signal,
141,350.0,350.0,350.0,350.0,500.0,<div class = bigbox><div class = starbox><img class = center src='/static/experiments/stop_signal_with_n_back/images/stopSignal.png'></img></div></div>,stop,,2000.0,,-1.0,1.0,0.0,40.0,1.0,stop_signal_with_n_back,,,,,,0.0-3.0-41.0,-1.0,mismatch,"[77, 90]",d,,-1,1000.0,<div class = bigbox><div class = centerbox><div class = gng_number><div class = cue-text><img class = center src='/static/experiments/stop_signal_with_n_back/images/lowercase_D.png'></img></div></div></div></div>,1.0,stop,,264071,0.0,test_trial,141,stop-signal,
142,400.0,350.0,350.0,400.0,500.0,<div class = bigbox><div class = starbox><img class = center src='/static/experiments/stop_signal_with_n_back/images/stopSignal.png'></img></div></div>,go,,2000.0,,90.0,1.0,0.0,41.0,1.0,stop_signal_with_n_back,,,,,,0.0-3.0-42.0,90.0,mismatch,"[77, 90]",b,,652,1000.0,<div class = bigbox><div class = centerbox><div class = gng_number><div class = cue-text><img class = center src='/static/experiments/stop_signal_with_n_back/images/lowercase_B.png'></img></div></div></div></div>,,go,,266073,0.0,test_trial,142,stop-signal,
143,400.0,350.0,350.0,400.0,500.0,<div class = bigbox><div class = starbox><img class = center src='/static/experiments/stop_signal_with_n_back/images/stopSignal.png'></img></div></div>,stop,,2000.0,,-1.0,1.0,0.0,42.0,1.0,stop_signal_with_n_back,,,,,,0.0-3.0-43.0,-1.0,mismatch,"[77, 90]",d,,-1,1000.0,<div class = bigbox><div class = centerbox><div class = gng_number><div class = cue-text><img class = center src='/static/experiments/stop_signal_with_n_back/images/lowercase_D.png'></img></div></div></div></div>,1.0,stop,,268076,0.0,test_trial,143,stop-signal,
144,450.0,350.0,350.0,450.0,500.0,<div class = bigbox><div class = starbox><img class = center src='/static/experiments/stop_signal_with_n_back/images/stopSignal.png'></img></div></div>,go,,2000.0,,90.0,1.0,0.0,43.0,1.0,stop_signal_with_n_back,,,,,,0.0-3.0-44.0,90.0,mismatch,"[77, 90]",b,,663,1000.0,<div class = bigbox><div class = centerbox><div class = gng_number><div class = cue-text><img class = center src='/static/experiments/stop_signal_with_n_back/images/lowercase_B.png'></img></div></div></div></div>,,go,,270078,0.0,test_trial,144,stop-signal,
145,450.0,350.0,350.0,450.0,500.0,<div class = bigbox><div class = starbox><img class = center src='/static/experiments/stop_signal_with_n_back/images/stopSignal.png'></img></div></div>,go,,2000.0,,90.0,1.0,0.0,44.0,1.0,stop_signal_with_n_back,,,,,,0.0-3.0-45.0,90.0,mismatch,"[77, 90]",V,,557,1000.0,<div class = bigbox><div class = centerbox><div class = gng_number><div class = cue-text><img class = center src='/static/experiments/stop_signal_with_n_back/images/uppercase_V.png'></img></div></div></div></div>,,go,,272081,0.0,test_trial,145,stop-signal,
146,450.0,350.0,350.0,450.0,500.0,<div class = bigbox><div class = starbox><img class = center src='/static/experiments/stop_signal_with_n_back/images/stopSignal.png'></img></div></div>,go,,2000.0,,90.0,1.0,0.0,45.0,1.0,stop_signal_with_n_back,,,,,,0.0-3.0-46.0,90.0,mismatch,"[77, 90]",t,,594,1000.0,<div class = bigbox><div class = centerbox><div class = gng_number><div class = cue-text><img class = center src='/static/experiments/stop_signal_with_n_back/images/lowercase_T.png'></img></div></div></div></div>,,go,,274083,0.0,test_trial,146,stop-signal,
147,450.0,350.0,350.0,450.0,500.0,<div class = bigbox><div class = starbox><img class = center src='/static/experiments/stop_signal_with_n_back/images/stopSignal.png'></img></div></div>,go,,2000.0,,90.0,1.0,0.0,46.0,1.0,stop_signal_with_n_back,,,,,,0.0-3.0-47.0,90.0,mismatch,"[77, 90]",G,,512,1000.0,<div class = bigbox><div class = centerbox><div class = gng_number><div class = cue-text><img class = center src='/static/experiments/stop_signal_with_n_back/images/uppercase_G.png'></img></div></div></div></div>,,go,,276086,0.0,test_trial,147,stop-signal,
148,450.0,350.0,350.0,450.0,500.0,<div class = bigbox><div class = starbox><img class = center src='/static/experiments/stop_signal_with_n_back/images/stopSignal.png'></img></div></div>,stop,,2000.0,,-1.0,0.0,0.0,47.0,1.0,stop_signal_with_n_back,,,,,,0.0-3.0-48.0,90.0,mismatch,"[77, 90]",b,,533,1000.0,<div class = bigbox><div class = centerbox><div class = gng_number><div class = cue-text><img class = center src='/static/experiments/stop_signal_with_n_back/images/lowercase_B.png'></img></div></div></div></div>,0.0,stop,,278088,0.0,test_trial,148,stop-signal,
149,400.0,350.0,350.0,400.0,500.0,<div class = bigbox><div class = starbox><img class = center src='/static/experiments/stop_signal_with_n_back/images/stopSignal.png'></img></div></div>,go,,2000.0,,90.0,1.0,0.0,48.0,1.0,stop_signal_with_n_back,,,,,,0.0-3.0-49.0,90.0,mismatch,"[77, 90]",v,,651,1000.0,<div class = bigbox><div class = centerbox><div class = gng_number><div class = cue-text><img class = center src='/static/experiments/stop_signal_with_n_back/images/lowercase_V.png'></img></div></div></div></div>,,go,,280091,0.0,test_trial,149,stop-signal,
150,,,,,,,,,11775.0,,,,,,,stop_signal_with_n_back,,,,,,0.0-3.1-0.1,13.0,,[13],,,11775,11775.0,"<div class = bigbox><div class = picture_box><p class = block-text><font color=""white""><br>Please take this time to read your feedback and to take a short break! Press enter to continue.</p><p class = block-text>You have completed: 1 out of 6 blocks of trials.</p><p class = block-text><i>For the next round of trials, your delay is 1</i>.  Press Enter to continue.</font></p></div></div>",,,,291869,0.0,practice-no-stop-feedback,150,poldrack-single-stim,
151,,,,,,,,,2615.0,True,49.0,,,,,stop_signal_with_n_back,,,,,,0.0-3.1-1.1-0.1,49.0,,[],,,2615,2615.0,<p>Press the number corresponding to the number of moons that Earth has orbiting it.<p>,,,,294484,200.0,attention_check,151,attention-check,
152,400.0,350.0,350.0,400.0,500.0,<div class = bigbox><div class = starbox><img class = center src='/static/experiments/stop_signal_with_n_back/images/stopSignal.png'></img></div></div>,go,,2000.0,,90.0,1.0,1.0,1.0,1.0,stop_signal_with_n_back,,,,,,0.0-3.1-2.1,90.0,N/A,"[77, 90]",v,,886,1000.0,<div class = bigbox><div class = centerbox><div class = gng_number><div class = cue-text><img class = center src='/static/experiments/stop_signal_with_n_back/images/lowercase_V.png'></img></div></div></div></div>,,go,,296688,0.0,test_trial,152,stop-signal,
153,400.0,350.0,350.0,400.0,500.0,<div class = bigbox><div class = starbox><img class = center src='/static/experiments/stop_signal_with_n_back/images/stopSignal.png'></img></div></div>,stop,,2000.0,,90.0,1.0,1.0,2.0,1.0,stop_signal_with_n_back,,,,,,0.0-3.1-3.1,90.0,mismatch,"[77, 90]",b,,571,1000.0,<div class = bigbox><div class = centerbox><div class = gng_number><div class = cue-text><img class = center src='/static/experiments/stop_signal_with_n_back/images/lowercase_B.png'></img></div></div></div></div>,0.0,stop,,298690,0.0,test_trial,153,stop-signal,
154,350.0,350.0,350.0,350.0,500.0,<div class = bigbox><div class = starbox><img class = center src='/static/experiments/stop_signal_with_n_back/images/stopSignal.png'></img></div></div>,stop,,2000.0,,90.0,0.0,1.0,3.0,1.0,stop_signal_with_n_back,,,,,,0.0-3.1-4.1,-1.0,mismatch,"[77, 90]",g,,-1,1000.0,<div class = bigbox><div class = centerbox><div class = gng_number><div class = cue-text><img class = center src='/static/experiments/stop_signal_with_n_back/images/lowercase_G.png'></img></div></div></div></div>,1.0,stop,,300692,0.0,test_trial,154,stop-signal,
155,400.0,350.0,350.0,400.0,500.0,<div class = bigbox><div class = starbox><img class = center src='/static/experiments/stop_signal_with_n_back/images/stopSignal.png'></img></div></div>,stop,,2000.0,,-1.0,0.0,1.0,4.0,1.0,stop_signal_with_n_back,,,,,,0.0-3.1-5.1,90.0,mismatch,"[77, 90]",V,,575,1000.0,<div class = bigbox><div class = centerbox><div class = gng_number><div class = cue-text><img class = center src='/static/experiments/stop_signal_with_n_back/images/uppercase_V.png'></img></div></div></div></div>,0.0,stop,,302695,0.0,test_trial,155,stop-signal,
156,350.0,350.0,350.0,350.0,500.0,<div class = bigbox><div class = starbox><img class = center src='/static/experiments/stop_signal_with_n_back/images/stopSignal.png'></img></div></div>,go,,2000.0,,90.0,1.0,1.0,5.0,1.0,stop_signal_with_n_back,,,,,,0.0-3.1-6.1,90.0,mismatch,"[77, 90]",b,,676,1000.0,<div class = bigbox><div class = centerbox><div class = gng_number><div class = cue-text><img class = center src='/static/experiments/stop_signal_with_n_back/images/lowercase_B.png'></img></div></div></div></div>,,go,,304698,0.0,test_trial,156,stop-signal,
157,350.0,350.0,350.0,350.0,500.0,<div class = bigbox><div class = starbox><img class = center src='/static/experiments/stop_signal_with_n_back/images/stopSignal.png'></img></div></div>,go,,2000.0,,90.0,1.0,1.0,6.0,1.0,stop_signal_with_n_back,,,,,,0.0-3.1-7.1,90.0,mismatch,"[77, 90]",v,,617,1000.0,<div class = bigbox><div class = centerbox><div class = gng_number><div class = cue-text><img class = center src='/static/experiments/stop_signal_with_n_back/images/lowercase_V.png'></img></div></div></div></div>,,go,,306701,0.0,test_trial,157,stop-signal,
158,350.0,350.0,350.0,350.0,500.0,<div class = bigbox><div class = starbox><img class = center src='/static/experiments/stop_signal_with_n_back/images/stopSignal.png'></img></div></div>,stop,,2000.0,,-1.0,0.0,1.0,7.0,1.0,stop_signal_with_n_back,,,,,,0.0-3.1-8.1,90.0,mismatch,"[77, 90]",t,,567,1000.0,<div class = bigbox><div class = centerbox><div class = gng_number><div class = cue-text><img class = center src='/static/experiments/stop_signal_with_n_back/images/lowercase_T.png'></img></div></div></div></div>,0.0,stop,,308703,0.0,test_trial,158,stop-signal,
159,300.0,350.0,350.0,300.0,500.0,<div class = bigbox><div class = starbox><img class = center src='/static/experiments/stop_signal_with_n_back/images/stopSignal.png'></img></div></div>,go,,2000.0,,90.0,1.0,1.0,8.0,1.0,stop_signal_with_n_back,,,,,,0.0-3.1-9.1,90.0,mismatch,"[77, 90]",g,,596,1000.0,<div class = bigbox><div class = centerbox><div class = gng_number><div class = cue-text><img class = center src='/static/experiments/stop_signal_with_n_back/images/lowercase_G.png'></img></div></div></div></div>,,go,,310706,0.0,test_trial,159,stop-signal,
160,300.0,350.0,350.0,300.0,500.0,<div class = bigbox><div class = starbox><img class = center src='/static/experiments/stop_signal_with_n_back/images/stopSignal.png'></img></div></div>,go,,2000.0,,90.0,1.0,1.0,9.0,1.0,stop_signal_with_n_back,,,,,,0.0-3.1-10.1,90.0,mismatch,"[77, 90]",T,,529,1000.0,<div class = bigbox><div class = centerbox><div class = gng_number><div class = cue-text><img class = center src='/static/experiments/stop_signal_with_n_back/images/uppercase_T.png'></img></div></div></div></div>,,go,,312708,0.0,test_trial,160,stop-signal,
161,300.0,350.0,350.0,300.0,500.0,<div class = bigbox><div class = starbox><img class = center src='/static/experiments/stop_signal_with_n_back/images/stopSignal.png'></img></div></div>,go,,2000.0,,90.0,1.0,1.0,10.0,1.0,stop_signal_with_n_back,,,,,,0.0-3.1-11.1,90.0,mismatch,"[77, 90]",D,,680,1000.0,<div class = bigbox><div class = centerbox><div class = gng_number><div class = cue-text><img class = center src='/static/experiments/stop_signal_with_n_back/images/uppercase_D.png'></img></div></div></div></div>,,go,,314710,0.0,test_trial,161,stop-signal,
162,300.0,350.0,350.0,300.0,500.0,<div class = bigbox><div class = starbox><img class = center src='/static/experiments/stop_signal_with_n_back/images/stopSignal.png'></img></div></div>,stop,,2000.0,,-1.0,1.0,1.0,11.0,1.0,stop_signal_with_n_back,,,,,,0.0-3.1-12.1,-1.0,mismatch,"[77, 90]",T,,-1,1000.0,<div class = bigbox><div class = centerbox><div class = gng_number><div class = cue-text><img class = center src='/static/experiments/stop_signal_with_n_back/images/uppercase_T.png'></img></div></div></div></div>,1.0,stop,,316712,0.0,test_trial,162,stop-signal,
