,SSD_congruent,SSD_incongruent,SS_delay,SS_duration,SS_stimulus,SS_trial_type,att_check_percent,block_duration,center_letter,correct,correct_response,correct_trial,current_block,current_trial,exp_id,final_accuracy,final_avg_rt,final_credit_var,final_missed_percent,final_responses_ok,flanker_condition,flanker_letter,internal_node_id,key_press,possible_responses,responses,rt,stim_duration,stimulus,stop_acc,stop_signal_condition,text,time_elapsed,timing_post_trial,trial_id,trial_index,trial_type,view_history
0,,,,,,,,1469.0,,,,,,,stop_signal_with_flanker,,,,,,,,0.0-0.0-0.0,13.0,[13],,1469,1469.0,<div class = bigbox><div class = picture_box><p class = block-text>Welcome to the experiment. This experiment will take around 10 minutes. Press <i>enter</i> to begin.</p></div></div>,,,,1472,0.0,feedback_block,0,poldrack-single-stim,
1,,,,,,,,,,,,,,,stop_signal_with_flanker,,,,,,,,0.0-0.0-1.0,,,,43945,,,,,,45420,,instruction,1,poldrack-instructions,"[{""page_index"":0,""viewing_time"":20216},{""page_index"":1,""viewing_time"":16846},{""page_index"":2,""viewing_time"":6882}]"
2,,,,,,,,500.0,,,,,,,stop_signal_with_flanker,,,,,,,,0.0-0.0-2.0,-1.0,none,,-1,500.0,<div class = centerbox><div class = fixation>+</div></div>,,,,46924,0.0,practice_fixation,2,poldrack-single-stim,
3,350.0,350.0,350.0,500.0,"<div class = bigbox><div class = centerbox><div class = starbox><img class = star src=""/static/experiments/stop_signal_with_flanker/images/stopSignal.png""></img></div></div></div>",go,,2000.0,F,,70.0,0.0,0.0,1.0,stop_signal_with_flanker,,,,,,F_incongruent,H,0.0-0.0-3.0,72.0,"[70, 72]",,1487,1000.0,"<div class = bigbox><div class = centerbox><div class = flankerLeft_2><div class = cue-text><img class = center src=""/static/experiments/stop_signal_with_flanker/images/H.png""></img></div></div><div class = flankerLeft_1><div class = cue-text><img class = center src=""/static/experiments/stop_signal_with_flanker/images/H.png""></img></div></div><div class = flankerMiddle><div class = cue-text><img class = center src=""/static/experiments/stop_signal_with_flanker/images/F.png""></img></div></div><div class = flankerRight_1><div class = cue-text><img class = center src=""/static/experiments/stop_signal_with_flanker/images/H.png""></img></div></div><div class = flankerRight_2><div class = cue-text><img class = center src=""/static/experiments/stop_signal_with_flanker/images/H.png""></img>",,go,,48927,0.0,practice_trial,3,stop-signal,
4,,,,,,,,500.0,,,,,,,stop_signal_with_flanker,,,,,,,,0.0-0.0-4.0,-1.0,none,,-1,500.0,"<div class = fb_box><div class = center-text><font size = 20>Incorrect</font></div></div><ul style = ""text-align:left;""><font color=white><li>Indicate the identity of the middle letter</li><li>Do not respond if you see a star around the letters!</li><li>Do not slow down your responses to the letter to wait for the star.</li></font></ul>",,,,49430,0.0,practice-stop-feedback,4,poldrack-single-stim,
5,,,,,,,,500.0,,,,,,,stop_signal_with_flanker,,,,,,,,0.0-0.0-5.0,-1.0,none,,-1,500.0,<div class = centerbox><div class = fixation>+</div></div>,,,,49933,0.0,practice_fixation,5,poldrack-single-stim,
6,350.0,350.0,350.0,500.0,"<div class = bigbox><div class = centerbox><div class = starbox><img class = star src=""/static/experiments/stop_signal_with_flanker/images/stopSignal.png""></img></div></div></div>",go,,2000.0,H,,72.0,1.0,0.0,2.0,stop_signal_with_flanker,,,,,,H_congruent,H,0.0-0.0-6.0,72.0,"[70, 72]",,590,1000.0,"<div class = bigbox><div class = centerbox><div class = flankerLeft_2><div class = cue-text><img class = center src=""/static/experiments/stop_signal_with_flanker/images/H.png""></img></div></div><div class = flankerLeft_1><div class = cue-text><img class = center src=""/static/experiments/stop_signal_with_flanker/images/H.png""></img></div></div><div class = flankerMiddle><div class = cue-text><img class = center src=""/static/experiments/stop_signal_with_flanker/images/H.png""></img></div></div><div class = flankerRight_1><div class = cue-text><img class = center src=""/static/experiments/stop_signal_with_flanker/images/H.png""></img></div></div><div class = flankerRight_2><div class = cue-text><img class = center src=""/static/experiments/stop_signal_with_flanker/images/H.png""></img>",,go,,51936,0.0,practice_trial,6,stop-signal,
7,,,,,,,,500.0,,,,,,,stop_signal_with_flanker,,,,,,,,0.0-0.0-7.0,-1.0,none,,-1,500.0,"<div class = fb_box><div class = center-text><font size = 20>Correct!</font></div></div><ul style = ""text-align:left;""><font color=white><li>Indicate the identity of the middle letter</li><li>Do not respond if you see a star around the letters!</li><li>Do not slow down your responses to the letter to wait for the star.</li></font></ul>",,,,52439,0.0,practice-stop-feedback,7,poldrack-single-stim,
8,,,,,,,,500.0,,,,,,,stop_signal_with_flanker,,,,,,,,0.0-0.0-8.0,-1.0,none,,-1,500.0,<div class = centerbox><div class = fixation>+</div></div>,,,,52942,0.0,practice_fixation,8,poldrack-single-stim,
9,350.0,350.0,350.0,500.0,"<div class = bigbox><div class = centerbox><div class = starbox><img class = star src=""/static/experiments/stop_signal_with_flanker/images/stopSignal.png""></img></div></div></div>",go,,2000.0,H,,72.0,1.0,0.0,3.0,stop_signal_with_flanker,,,,,,H_incongruent,F,0.0-0.0-9.0,72.0,"[70, 72]",,557,1000.0,"<div class = bigbox><div class = centerbox><div class = flankerLeft_2><div class = cue-text><img class = center src=""/static/experiments/stop_signal_with_flanker/images/F.png""></img></div></div><div class = flankerLeft_1><div class = cue-text><img class = center src=""/static/experiments/stop_signal_with_flanker/images/F.png""></img></div></div><div class = flankerMiddle><div class = cue-text><img class = center src=""/static/experiments/stop_signal_with_flanker/images/H.png""></img></div></div><div class = flankerRight_1><div class = cue-text><img class = center src=""/static/experiments/stop_signal_with_flanker/images/F.png""></img></div></div><div class = flankerRight_2><div class = cue-text><img class = center src=""/static/experiments/stop_signal_with_flanker/images/F.png""></img>",,go,,54944,0.0,practice_trial,9,stop-signal,
10,,,,,,,,500.0,,,,,,,stop_signal_with_flanker,,,,,,,,0.0-0.0-10.0,-1.0,none,,-1,500.0,"<div class = fb_box><div class = center-text><font size = 20>Correct!</font></div></div><ul style = ""text-align:left;""><font color=white><li>Indicate the identity of the middle letter</li><li>Do not respond if you see a star around the letters!</li><li>Do not slow down your responses to the letter to wait for the star.</li></font></ul>",,,,55447,0.0,practice-stop-feedback,10,poldrack-single-stim,
11,,,,,,,,500.0,,,,,,,stop_signal_with_flanker,,,,,,,,0.0-0.0-11.0,-1.0,none,,-1,500.0,<div class = centerbox><div class = fixation>+</div></div>,,,,55949,0.0,practice_fixation,11,poldrack-single-stim,
12,350.0,350.0,350.0,500.0,"<div class = bigbox><div class = centerbox><div class = starbox><img class = star src=""/static/experiments/stop_signal_with_flanker/images/stopSignal.png""></img></div></div></div>",stop,,2000.0,H,,-1.0,0.0,0.0,4.0,stop_signal_with_flanker,,,,,,H_incongruent,F,0.0-0.0-12.0,72.0,"[70, 72]",,511,1000.0,"<div class = bigbox><div class = centerbox><div class = flankerLeft_2><div class = cue-text><img class = center src=""/static/experiments/stop_signal_with_flanker/images/F.png""></img></div></div><div class = flankerLeft_1><div class = cue-text><img class = center src=""/static/experiments/stop_signal_with_flanker/images/F.png""></img></div></div><div class = flankerMiddle><div class = cue-text><img class = center src=""/static/experiments/stop_signal_with_flanker/images/H.png""></img></div></div><div class = flankerRight_1><div class = cue-text><img class = center src=""/static/experiments/stop_signal_with_flanker/images/F.png""></img></div></div><div class = flankerRight_2><div class = cue-text><img class = center src=""/static/experiments/stop_signal_with_flanker/images/F.png""></img>",0.0,stop,,57951,0.0,practice_trial,12,stop-signal,
13,,,,,,,,500.0,,,,,,,stop_signal_with_flanker,,,,,,,,0.0-0.0-13.0,-1.0,none,,-1,500.0,"<div class = fb_box><div class = center-text><font size = 20>There was a star.</font></div></div><ul style = ""text-align:left;""><font color=white><li>Indicate the identity of the middle letter</li><li>Do not respond if you see a star around the letters!</li><li>Do not slow down your responses to the letter to wait for the star.</li></font></ul>",,,,58454,0.0,practice-stop-feedback,13,poldrack-single-stim,
14,,,,,,,,500.0,,,,,,,stop_signal_with_flanker,,,,,,,,0.0-0.0-14.0,-1.0,none,,-1,500.0,<div class = centerbox><div class = fixation>+</div></div>,,,,58957,0.0,practice_fixation,14,poldrack-single-stim,
15,350.0,300.0,350.0,500.0,"<div class = bigbox><div class = centerbox><div class = starbox><img class = star src=""/static/experiments/stop_signal_with_flanker/images/stopSignal.png""></img></div></div></div>",stop,,2000.0,H,,-1.0,1.0,0.0,5.0,stop_signal_with_flanker,,,,,,H_congruent,H,0.0-0.0-15.0,-1.0,"[70, 72]",,-1,1000.0,"<div class = bigbox><div class = centerbox><div class = flankerLeft_2><div class = cue-text><img class = center src=""/static/experiments/stop_signal_with_flanker/images/H.png""></img></div></div><div class = flankerLeft_1><div class = cue-text><img class = center src=""/static/experiments/stop_signal_with_flanker/images/H.png""></img></div></div><div class = flankerMiddle><div class = cue-text><img class = center src=""/static/experiments/stop_signal_with_flanker/images/H.png""></img></div></div><div class = flankerRight_1><div class = cue-text><img class = center src=""/static/experiments/stop_signal_with_flanker/images/H.png""></img></div></div><div class = flankerRight_2><div class = cue-text><img class = center src=""/static/experiments/stop_signal_with_flanker/images/H.png""></img>",1.0,stop,,60960,0.0,practice_trial,15,stop-signal,
16,,,,,,,,500.0,,,,,,,stop_signal_with_flanker,,,,,,,,0.0-0.0-16.0,-1.0,none,,-1,500.0,"<div class = fb_box><div class = center-text><font size = 20>Correct!</font></div></div><ul style = ""text-align:left;""><font color=white><li>Indicate the identity of the middle letter</li><li>Do not respond if you see a star around the letters!</li><li>Do not slow down your responses to the letter to wait for the star.</li></font></ul>",,,,61462,0.0,practice-stop-feedback,16,poldrack-single-stim,
17,,,,,,,,500.0,,,,,,,stop_signal_with_flanker,,,,,,,,0.0-0.0-17.0,-1.0,none,,-1,500.0,<div class = centerbox><div class = fixation>+</div></div>,,,,61964,0.0,practice_fixation,17,poldrack-single-stim,
18,400.0,300.0,300.0,500.0,"<div class = bigbox><div class = centerbox><div class = starbox><img class = star src=""/static/experiments/stop_signal_with_flanker/images/stopSignal.png""></img></div></div></div>",go,,2000.0,H,,72.0,1.0,0.0,6.0,stop_signal_with_flanker,,,,,,H_incongruent,F,0.0-0.0-18.0,72.0,"[70, 72]",,486,1000.0,"<div class = bigbox><div class = centerbox><div class = flankerLeft_2><div class = cue-text><img class = center src=""/static/experiments/stop_signal_with_flanker/images/F.png""></img></div></div><div class = flankerLeft_1><div class = cue-text><img class = center src=""/static/experiments/stop_signal_with_flanker/images/F.png""></img></div></div><div class = flankerMiddle><div class = cue-text><img class = center src=""/static/experiments/stop_signal_with_flanker/images/H.png""></img></div></div><div class = flankerRight_1><div class = cue-text><img class = center src=""/static/experiments/stop_signal_with_flanker/images/F.png""></img></div></div><div class = flankerRight_2><div class = cue-text><img class = center src=""/static/experiments/stop_signal_with_flanker/images/F.png""></img>",,go,,63967,0.0,practice_trial,18,stop-signal,
19,,,,,,,,500.0,,,,,,,stop_signal_with_flanker,,,,,,,,0.0-0.0-19.0,-1.0,none,,-1,500.0,"<div class = fb_box><div class = center-text><font size = 20>Correct!</font></div></div><ul style = ""text-align:left;""><font color=white><li>Indicate the identity of the middle letter</li><li>Do not respond if you see a star around the letters!</li><li>Do not slow down your responses to the letter to wait for the star.</li></font></ul>",,,,64469,0.0,practice-stop-feedback,19,poldrack-single-stim,
20,,,,,,,,500.0,,,,,,,stop_signal_with_flanker,,,,,,,,0.0-0.0-20.0,-1.0,none,,-1,500.0,<div class = centerbox><div class = fixation>+</div></div>,,,,64972,0.0,practice_fixation,20,poldrack-single-stim,
21,400.0,300.0,300.0,500.0,"<div class = bigbox><div class = centerbox><div class = starbox><img class = star src=""/static/experiments/stop_signal_with_flanker/images/stopSignal.png""></img></div></div></div>",stop,,2000.0,F,,-1.0,1.0,0.0,7.0,stop_signal_with_flanker,,,,,,F_incongruent,H,0.0-0.0-21.0,-1.0,"[70, 72]",,-1,1000.0,"<div class = bigbox><div class = centerbox><div class = flankerLeft_2><div class = cue-text><img class = center src=""/static/experiments/stop_signal_with_flanker/images/H.png""></img></div></div><div class = flankerLeft_1><div class = cue-text><img class = center src=""/static/experiments/stop_signal_with_flanker/images/H.png""></img></div></div><div class = flankerMiddle><div class = cue-text><img class = center src=""/static/experiments/stop_signal_with_flanker/images/F.png""></img></div></div><div class = flankerRight_1><div class = cue-text><img class = center src=""/static/experiments/stop_signal_with_flanker/images/H.png""></img></div></div><div class = flankerRight_2><div class = cue-text><img class = center src=""/static/experiments/stop_signal_with_flanker/images/H.png""></img>",1.0,stop,,66974,0.0,practice_trial,21,stop-signal,
22,,,,,,,,500.0,,,,,,,stop_signal_with_flanker,,,,,,,,0.0-0.0-22.0,-1.0,none,,-1,500.0,"<div class = fb_box><div class = center-text><font size = 20>Correct!</font></div></div><ul style = ""text-align:left;""><font color=white><li>Indicate the identity of the middle letter</li><li>Do not respond if you see a star around the letters!</li><li>Do not slow down your responses to the letter to wait for the star.</li></font></ul>",,,,67476,0.0,practice-stop-feedback,22,poldrack-single-stim,
23,,,,,,,,500.0,,,,,,,stop_signal_with_flanker,,,,,,,,0.0-0.0-23.0,-1.0,none,,-1,500.0,<div class = centerbox><div class = fixation>+</div></div>,,,,67979,0.0,practice_fixation,23,poldrack-single-stim,
24,400.0,350.0,350.0,500.0,"<div class = bigbox><div class = centerbox><div class = starbox><img class = star src=""/static/experiments/stop_signal_with_flanker/images/stopSignal.png""></img></div></div></div>",go,,2000.0,F,,70.0,1.0,0.0,8.0,stop_signal_with_flanker,,,,,,F_incongruent,H,0.0-0.0-24.0,70.0,"[70, 72]",,566,1000.0,"<div class = bigbox><div class = centerbox><div class = flankerLeft_2><div class = cue-text><img class = center src=""/static/experiments/stop_signal_with_flanker/images/H.png""></img></div></div><div class = flankerLeft_1><div class = cue-text><img class = center src=""/static/experiments/stop_signal_with_flanker/images/H.png""></img></div></div><div class = flankerMiddle><div class = cue-text><img class = center src=""/static/experiments/stop_signal_with_flanker/images/F.png""></img></div></div><div class = flankerRight_1><div class = cue-text><img class = center src=""/static/experiments/stop_signal_with_flanker/images/H.png""></img></div></div><div class = flankerRight_2><div class = cue-text><img class = center src=""/static/experiments/stop_signal_with_flanker/images/H.png""></img>",,go,,69981,0.0,practice_trial,24,stop-signal,
25,,,,,,,,500.0,,,,,,,stop_signal_with_flanker,,,,,,,,0.0-0.0-25.0,-1.0,none,,-1,500.0,"<div class = fb_box><div class = center-text><font size = 20>Correct!</font></div></div><ul style = ""text-align:left;""><font color=white><li>Indicate the identity of the middle letter</li><li>Do not respond if you see a star around the letters!</li><li>Do not slow down your responses to the letter to wait for the star.</li></font></ul>",,,,70483,0.0,practice-stop-feedback,25,poldrack-single-stim,
26,,,,,,,,500.0,,,,,,,stop_signal_with_flanker,,,,,,,,0.0-0.0-26.0,-1.0,none,,-1,500.0,<div class = centerbox><div class = fixation>+</div></div>,,,,70986,0.0,practice_fixation,26,poldrack-single-stim,
27,400.0,350.0,400.0,500.0,"<div class = bigbox><div class = centerbox><div class = starbox><img class = star src=""/static/experiments/stop_signal_with_flanker/images/stopSignal.png""></img></div></div></div>",go,,2000.0,H,,72.0,1.0,0.0,9.0,stop_signal_with_flanker,,,,,,H_congruent,H,0.0-0.0-27.0,72.0,"[70, 72]",,643,1000.0,"<div class = bigbox><div class = centerbox><div class = flankerLeft_2><div class = cue-text><img class = center src=""/static/experiments/stop_signal_with_flanker/images/H.png""></img></div></div><div class = flankerLeft_1><div class = cue-text><img class = center src=""/static/experiments/stop_signal_with_flanker/images/H.png""></img></div></div><div class = flankerMiddle><div class = cue-text><img class = center src=""/static/experiments/stop_signal_with_flanker/images/H.png""></img></div></div><div class = flankerRight_1><div class = cue-text><img class = center src=""/static/experiments/stop_signal_with_flanker/images/H.png""></img></div></div><div class = flankerRight_2><div class = cue-text><img class = center src=""/static/experiments/stop_signal_with_flanker/images/H.png""></img>",,go,,72988,0.0,practice_trial,27,stop-signal,
28,,,,,,,,500.0,,,,,,,stop_signal_with_flanker,,,,,,,,0.0-0.0-28.0,-1.0,none,,-1,500.0,"<div class = fb_box><div class = center-text><font size = 20>Correct!</font></div></div><ul style = ""text-align:left;""><font color=white><li>Indicate the identity of the middle letter</li><li>Do not respond if you see a star around the letters!</li><li>Do not slow down your responses to the letter to wait for the star.</li></font></ul>",,,,73490,0.0,practice-stop-feedback,28,poldrack-single-stim,
29,,,,,,,,500.0,,,,,,,stop_signal_with_flanker,,,,,,,,0.0-0.0-29.0,-1.0,none,,-1,500.0,<div class = centerbox><div class = fixation>+</div></div>,,,,73991,0.0,practice_fixation,29,poldrack-single-stim,
30,400.0,350.0,400.0,500.0,"<div class = bigbox><div class = centerbox><div class = starbox><img class = star src=""/static/experiments/stop_signal_with_flanker/images/stopSignal.png""></img></div></div></div>",go,,2000.0,F,,70.0,1.0,0.0,10.0,stop_signal_with_flanker,,,,,,F_congruent,F,0.0-0.0-30.0,70.0,"[70, 72]",,691,1000.0,"<div class = bigbox><div class = centerbox><div class = flankerLeft_2><div class = cue-text><img class = center src=""/static/experiments/stop_signal_with_flanker/images/F.png""></img></div></div><div class = flankerLeft_1><div class = cue-text><img class = center src=""/static/experiments/stop_signal_with_flanker/images/F.png""></img></div></div><div class = flankerMiddle><div class = cue-text><img class = center src=""/static/experiments/stop_signal_with_flanker/images/F.png""></img></div></div><div class = flankerRight_1><div class = cue-text><img class = center src=""/static/experiments/stop_signal_with_flanker/images/F.png""></img></div></div><div class = flankerRight_2><div class = cue-text><img class = center src=""/static/experiments/stop_signal_with_flanker/images/F.png""></img>",,go,,75994,0.0,practice_trial,30,stop-signal,
31,,,,,,,,500.0,,,,,,,stop_signal_with_flanker,,,,,,,,0.0-0.0-31.0,-1.0,none,,-1,500.0,"<div class = fb_box><div class = center-text><font size = 20>Correct!</font></div></div><ul style = ""text-align:left;""><font color=white><li>Indicate the identity of the middle letter</li><li>Do not respond if you see a star around the letters!</li><li>Do not slow down your responses to the letter to wait for the star.</li></font></ul>",,,,76496,0.0,practice-stop-feedback,31,poldrack-single-stim,
32,,,,,,,,500.0,,,,,,,stop_signal_with_flanker,,,,,,,,0.0-0.0-32.0,-1.0,none,,-1,500.0,<div class = centerbox><div class = fixation>+</div></div>,,,,76998,0.0,practice_fixation,32,poldrack-single-stim,
33,400.0,350.0,400.0,500.0,"<div class = bigbox><div class = centerbox><div class = starbox><img class = star src=""/static/experiments/stop_signal_with_flanker/images/stopSignal.png""></img></div></div></div>",stop,,2000.0,F,,-1.0,1.0,0.0,11.0,stop_signal_with_flanker,,,,,,F_congruent,F,0.0-0.0-33.0,-1.0,"[70, 72]",,-1,1000.0,"<div class = bigbox><div class = centerbox><div class = flankerLeft_2><div class = cue-text><img class = center src=""/static/experiments/stop_signal_with_flanker/images/F.png""></img></div></div><div class = flankerLeft_1><div class = cue-text><img class = center src=""/static/experiments/stop_signal_with_flanker/images/F.png""></img></div></div><div class = flankerMiddle><div class = cue-text><img class = center src=""/static/experiments/stop_signal_with_flanker/images/F.png""></img></div></div><div class = flankerRight_1><div class = cue-text><img class = center src=""/static/experiments/stop_signal_with_flanker/images/F.png""></img></div></div><div class = flankerRight_2><div class = cue-text><img class = center src=""/static/experiments/stop_signal_with_flanker/images/F.png""></img>",1.0,stop,,79001,0.0,practice_trial,33,stop-signal,
34,,,,,,,,500.0,,,,,,,stop_signal_with_flanker,,,,,,,,0.0-0.0-34.0,-1.0,none,,-1,500.0,"<div class = fb_box><div class = center-text><font size = 20>Correct!</font></div></div><ul style = ""text-align:left;""><font color=white><li>Indicate the identity of the middle letter</li><li>Do not respond if you see a star around the letters!</li><li>Do not slow down your responses to the letter to wait for the star.</li></font></ul>",,,,79503,0.0,practice-stop-feedback,34,poldrack-single-stim,
35,,,,,,,,500.0,,,,,,,stop_signal_with_flanker,,,,,,,,0.0-0.0-35.0,-1.0,none,,-1,500.0,<div class = centerbox><div class = fixation>+</div></div>,,,,80005,0.0,practice_fixation,35,poldrack-single-stim,
36,450.0,350.0,450.0,500.0,"<div class = bigbox><div class = centerbox><div class = starbox><img class = star src=""/static/experiments/stop_signal_with_flanker/images/stopSignal.png""></img></div></div></div>",go,,2000.0,F,,70.0,1.0,0.0,12.0,stop_signal_with_flanker,,,,,,F_congruent,F,0.0-0.0-36.0,70.0,"[70, 72]",,580,1000.0,"<div class = bigbox><div class = centerbox><div class = flankerLeft_2><div class = cue-text><img class = center src=""/static/experiments/stop_signal_with_flanker/images/F.png""></img></div></div><div class = flankerLeft_1><div class = cue-text><img class = center src=""/static/experiments/stop_signal_with_flanker/images/F.png""></img></div></div><div class = flankerMiddle><div class = cue-text><img class = center src=""/static/experiments/stop_signal_with_flanker/images/F.png""></img></div></div><div class = flankerRight_1><div class = cue-text><img class = center src=""/static/experiments/stop_signal_with_flanker/images/F.png""></img></div></div><div class = flankerRight_2><div class = cue-text><img class = center src=""/static/experiments/stop_signal_with_flanker/images/F.png""></img>",,go,,82008,0.0,practice_trial,36,stop-signal,
37,,,,,,,,500.0,,,,,,,stop_signal_with_flanker,,,,,,,,0.0-0.0-37.0,-1.0,none,,-1,500.0,"<div class = fb_box><div class = center-text><font size = 20>Correct!</font></div></div><ul style = ""text-align:left;""><font color=white><li>Indicate the identity of the middle letter</li><li>Do not respond if you see a star around the letters!</li><li>Do not slow down your responses to the letter to wait for the star.</li></font></ul>",,,,82510,0.0,practice-stop-feedback,37,poldrack-single-stim,
38,,,,,,,,1745.0,,,,,,,stop_signal_with_flanker,,,,,,,,0.0-1.0,13.0,[13],,1745,1745.0,<div class = bigbox><div class = picture_box><p class = block-text><br>Please take this time to read your feedback and to take a short break! Press enter to continue.</p><p class = block-text>Done with this practice. Press Enter to continue.</p></div></div>,,,,84259,0.0,feedback_block,38,poldrack-single-stim,
39,,,,,,,,4174.0,,,,,,,stop_signal_with_flanker,,,,,,,,0.0-2.0,13.0,,,4174,,,,,"<div class = centerbox><p class = block-text>We will now start the test portion. In this experiment you will see a row of letters. If the middle letter is H, please press the H Key.  If the middle letter is F, press the F Key. Respond as quickly and accurately as possible. Ignore the letters not in the middle!</p> <p class = block-text>On some trials, you will see a star appear with or shortly after the letters. Do not respond if you see a star.  Do not slow down your responses to the letter in order to wait for the star.</p><p class = block-text>Press Enter to continue.</p></div>",88434,1000.0,instruction,39,poldrack-text,
40,,,,,,,,1907.0,,,,,,,stop_signal_with_flanker,,,,,,,,0.0-3.0-0.0,13.0,[13],,1907,1907.0,<div class = bigbox><div class = picture_box><p class = block-text>We will now start the test portion. Press enter to begin.</p></div></div>,,,,91343,0.0,feedback_block,40,poldrack-single-stim,
41,,,,,,,,13129.0,,True,72.0,,,,stop_signal_with_flanker,,,,,,,,0.0-3.0-1.0-0.0,72.0,[],,13129,13129.0,"<p>Please read the following paragraph:</p><p>As Gregor Samsa awoke one morning from uneasy dreams he found himself transformed in his bed into a gigantic insect. Are you reading this paragraph? If so, press the key the letter that starts the next sentence. He was lying on his hard, as it were armor-plated, back and when he lifted his head a little he could see his dome-like brown belly divided into stiff arched segments on top of which the bed quilt could hardly keep in position and was about to slide off completely. His numerous legs, which were pitifully thin compared to the rest of his bulk, waved helplessly before his eyes. --Metamorphosis (Franz Kafka)</p><p>Press the ""A"" key.",,,,104474,200.0,attention_check,41,attention-check,
42,,,,,,,,500.0,,,,,,,stop_signal_with_flanker,,,,,,,,0.0-3.0-2.0,-1.0,none,,-1,500.0,<div class = centerbox><div class = fixation>+</div></div>,,,,105177,0.0,test_fixation,42,poldrack-single-stim,
43,450.0,350.0,450.0,500.0,"<div class = bigbox><div class = centerbox><div class = starbox><img class = star src=""/static/experiments/stop_signal_with_flanker/images/stopSignal.png""></img></div></div></div>",go,,2000.0,F,,70.0,1.0,0.0,1.0,stop_signal_with_flanker,,,,,,F_congruent,F,0.0-3.0-3.0,70.0,"[70, 72]",,560,1000.0,"<div class = bigbox><div class = centerbox><div class = flankerLeft_2><div class = cue-text><img class = center src=""/static/experiments/stop_signal_with_flanker/images/F.png""></img></div></div><div class = flankerLeft_1><div class = cue-text><img class = center src=""/static/experiments/stop_signal_with_flanker/images/F.png""></img></div></div><div class = flankerMiddle><div class = cue-text><img class = center src=""/static/experiments/stop_signal_with_flanker/images/F.png""></img></div></div><div class = flankerRight_1><div class = cue-text><img class = center src=""/static/experiments/stop_signal_with_flanker/images/F.png""></img></div></div><div class = flankerRight_2><div class = cue-text><img class = center src=""/static/experiments/stop_signal_with_flanker/images/F.png""></img>",,go,,107180,0.0,test_trial,43,stop-signal,
44,,,,,,,,500.0,,,,,,,stop_signal_with_flanker,,,,,,,,0.0-3.0-4.0,-1.0,none,,-1,500.0,<div class = centerbox><div class = fixation>+</div></div>,,,,107683,0.0,test_fixation,44,poldrack-single-stim,
45,450.0,350.0,450.0,500.0,"<div class = bigbox><div class = centerbox><div class = starbox><img class = star src=""/static/experiments/stop_signal_with_flanker/images/stopSignal.png""></img></div></div></div>",go,,2000.0,F,,70.0,1.0,0.0,2.0,stop_signal_with_flanker,,,,,,F_congruent,F,0.0-3.0-5.0,70.0,"[70, 72]",,483,1000.0,"<div class = bigbox><div class = centerbox><div class = flankerLeft_2><div class = cue-text><img class = center src=""/static/experiments/stop_signal_with_flanker/images/F.png""></img></div></div><div class = flankerLeft_1><div class = cue-text><img class = center src=""/static/experiments/stop_signal_with_flanker/images/F.png""></img></div></div><div class = flankerMiddle><div class = cue-text><img class = center src=""/static/experiments/stop_signal_with_flanker/images/F.png""></img></div></div><div class = flankerRight_1><div class = cue-text><img class = center src=""/static/experiments/stop_signal_with_flanker/images/F.png""></img></div></div><div class = flankerRight_2><div class = cue-text><img class = center src=""/static/experiments/stop_signal_with_flanker/images/F.png""></img>",,go,,109685,0.0,test_trial,45,stop-signal,
46,,,,,,,,500.0,,,,,,,stop_signal_with_flanker,,,,,,,,0.0-3.0-6.0,-1.0,none,,-1,500.0,<div class = centerbox><div class = fixation>+</div></div>,,,,110186,0.0,test_fixation,46,poldrack-single-stim,
47,450.0,350.0,450.0,500.0,"<div class = bigbox><div class = centerbox><div class = starbox><img class = star src=""/static/experiments/stop_signal_with_flanker/images/stopSignal.png""></img></div></div></div>",go,,2000.0,H,,72.0,1.0,0.0,3.0,stop_signal_with_flanker,,,,,,H_congruent,H,0.0-3.0-7.0,72.0,"[70, 72]",,536,1000.0,"<div class = bigbox><div class = centerbox><div class = flankerLeft_2><div class = cue-text><img class = center src=""/static/experiments/stop_signal_with_flanker/images/H.png""></img></div></div><div class = flankerLeft_1><div class = cue-text><img class = center src=""/static/experiments/stop_signal_with_flanker/images/H.png""></img></div></div><div class = flankerMiddle><div class = cue-text><img class = center src=""/static/experiments/stop_signal_with_flanker/images/H.png""></img></div></div><div class = flankerRight_1><div class = cue-text><img class = center src=""/static/experiments/stop_signal_with_flanker/images/H.png""></img></div></div><div class = flankerRight_2><div class = cue-text><img class = center src=""/static/experiments/stop_signal_with_flanker/images/H.png""></img>",,go,,112188,0.0,test_trial,47,stop-signal,
48,,,,,,,,500.0,,,,,,,stop_signal_with_flanker,,,,,,,,0.0-3.0-8.0,-1.0,none,,-1,500.0,<div class = centerbox><div class = fixation>+</div></div>,,,,112691,0.0,test_fixation,48,poldrack-single-stim,
49,450.0,350.0,450.0,500.0,"<div class = bigbox><div class = centerbox><div class = starbox><img class = star src=""/static/experiments/stop_signal_with_flanker/images/stopSignal.png""></img></div></div></div>",go,,2000.0,H,,72.0,1.0,0.0,4.0,stop_signal_with_flanker,,,,,,H_congruent,H,0.0-3.0-9.0,72.0,"[70, 72]",,543,1000.0,"<div class = bigbox><div class = centerbox><div class = flankerLeft_2><div class = cue-text><img class = center src=""/static/experiments/stop_signal_with_flanker/images/H.png""></img></div></div><div class = flankerLeft_1><div class = cue-text><img class = center src=""/static/experiments/stop_signal_with_flanker/images/H.png""></img></div></div><div class = flankerMiddle><div class = cue-text><img class = center src=""/static/experiments/stop_signal_with_flanker/images/H.png""></img></div></div><div class = flankerRight_1><div class = cue-text><img class = center src=""/static/experiments/stop_signal_with_flanker/images/H.png""></img></div></div><div class = flankerRight_2><div class = cue-text><img class = center src=""/static/experiments/stop_signal_with_flanker/images/H.png""></img>",,go,,114693,0.0,test_trial,49,stop-signal,
50,,,,,,,,500.0,,,,,,,stop_signal_with_flanker,,,,,,,,0.0-3.0-10.0,-1.0,none,,-1,500.0,<div class = centerbox><div class = fixation>+</div></div>,,,,115195,0.0,test_fixation,50,poldrack-single-stim,
51,450.0,350.0,450.0,500.0,"<div class = bigbox><div class = centerbox><div class = starbox><img class = star src=""/static/experiments/stop_signal_with_flanker/images/stopSignal.png""></img></div></div></div>",go,,2000.0,F,,70.0,1.0,0.0,5.0,stop_signal_with_flanker,,,,,,F_congruent,F,0.0-3.0-11.0,70.0,"[70, 72]",,594,1000.0,"<div class = bigbox><div class = centerbox><div class = flankerLeft_2><div class = cue-text><img class = center src=""/static/experiments/stop_signal_with_flanker/images/F.png""></img></div></div><div class = flankerLeft_1><div class = cue-text><img class = center src=""/static/experiments/stop_signal_with_flanker/images/F.png""></img></div></div><div class = flankerMiddle><div class = cue-text><img class = center src=""/static/experiments/stop_signal_with_flanker/images/F.png""></img></div></div><div class = flankerRight_1><div class = cue-text><img class = center src=""/static/experiments/stop_signal_with_flanker/images/F.png""></img></div></div><div class = flankerRight_2><div class = cue-text><img class = center src=""/static/experiments/stop_signal_with_flanker/images/F.png""></img>",,go,,117198,0.0,test_trial,51,stop-signal,
52,,,,,,,,500.0,,,,,,,stop_signal_with_flanker,,,,,,,,0.0-3.0-12.0,-1.0,none,,-1,500.0,<div class = centerbox><div class = fixation>+</div></div>,,,,117701,0.0,test_fixation,52,poldrack-single-stim,
53,450.0,350.0,350.0,500.0,"<div class = bigbox><div class = centerbox><div class = starbox><img class = star src=""/static/experiments/stop_signal_with_flanker/images/stopSignal.png""></img></div></div></div>",go,,2000.0,H,,72.0,1.0,0.0,6.0,stop_signal_with_flanker,,,,,,H_incongruent,F,0.0-3.0-13.0,72.0,"[70, 72]",,689,1000.0,"<div class = bigbox><div class = centerbox><div class = flankerLeft_2><div class = cue-text><img class = center src=""/static/experiments/stop_signal_with_flanker/images/F.png""></img></div></div><div class = flankerLeft_1><div class = cue-text><img class = center src=""/static/experiments/stop_signal_with_flanker/images/F.png""></img></div></div><div class = flankerMiddle><div class = cue-text><img class = center src=""/static/experiments/stop_signal_with_flanker/images/H.png""></img></div></div><div class = flankerRight_1><div class = cue-text><img class = center src=""/static/experiments/stop_signal_with_flanker/images/F.png""></img></div></div><div class = flankerRight_2><div class = cue-text><img class = center src=""/static/experiments/stop_signal_with_flanker/images/F.png""></img>",,go,,119703,0.0,test_trial,53,stop-signal,
54,,,,,,,,500.0,,,,,,,stop_signal_with_flanker,,,,,,,,0.0-3.0-14.0,-1.0,none,,-1,500.0,<div class = centerbox><div class = fixation>+</div></div>,,,,120206,0.0,test_fixation,54,poldrack-single-stim,
55,450.0,350.0,450.0,500.0,"<div class = bigbox><div class = centerbox><div class = starbox><img class = star src=""/static/experiments/stop_signal_with_flanker/images/stopSignal.png""></img></div></div></div>",stop,,2000.0,H,,-1.0,0.0,0.0,7.0,stop_signal_with_flanker,,,,,,H_congruent,H,0.0-3.0-15.0,72.0,"[70, 72]",,636,1000.0,"<div class = bigbox><div class = centerbox><div class = flankerLeft_2><div class = cue-text><img class = center src=""/static/experiments/stop_signal_with_flanker/images/H.png""></img></div></div><div class = flankerLeft_1><div class = cue-text><img class = center src=""/static/experiments/stop_signal_with_flanker/images/H.png""></img></div></div><div class = flankerMiddle><div class = cue-text><img class = center src=""/static/experiments/stop_signal_with_flanker/images/H.png""></img></div></div><div class = flankerRight_1><div class = cue-text><img class = center src=""/static/experiments/stop_signal_with_flanker/images/H.png""></img></div></div><div class = flankerRight_2><div class = cue-text><img class = center src=""/static/experiments/stop_signal_with_flanker/images/H.png""></img>",0.0,stop,,122209,0.0,test_trial,55,stop-signal,
56,,,,,,,,500.0,,,,,,,stop_signal_with_flanker,,,,,,,,0.0-3.0-16.0,-1.0,none,,-1,500.0,<div class = centerbox><div class = fixation>+</div></div>,,,,122711,0.0,test_fixation,56,poldrack-single-stim,
57,400.0,350.0,350.0,500.0,"<div class = bigbox><div class = centerbox><div class = starbox><img class = star src=""/static/experiments/stop_signal_with_flanker/images/stopSignal.png""></img></div></div></div>",go,,2000.0,F,,70.0,1.0,0.0,8.0,stop_signal_with_flanker,,,,,,F_incongruent,H,0.0-3.0-17.0,70.0,"[70, 72]",,572,1000.0,"<div class = bigbox><div class = centerbox><div class = flankerLeft_2><div class = cue-text><img class = center src=""/static/experiments/stop_signal_with_flanker/images/H.png""></img></div></div><div class = flankerLeft_1><div class = cue-text><img class = center src=""/static/experiments/stop_signal_with_flanker/images/H.png""></img></div></div><div class = flankerMiddle><div class = cue-text><img class = center src=""/static/experiments/stop_signal_with_flanker/images/F.png""></img></div></div><div class = flankerRight_1><div class = cue-text><img class = center src=""/static/experiments/stop_signal_with_flanker/images/H.png""></img></div></div><div class = flankerRight_2><div class = cue-text><img class = center src=""/static/experiments/stop_signal_with_flanker/images/H.png""></img>",,go,,124714,0.0,test_trial,57,stop-signal,
58,,,,,,,,500.0,,,,,,,stop_signal_with_flanker,,,,,,,,0.0-3.0-18.0,-1.0,none,,-1,500.0,<div class = centerbox><div class = fixation>+</div></div>,,,,125216,0.0,test_fixation,58,poldrack-single-stim,
59,400.0,350.0,400.0,500.0,"<div class = bigbox><div class = centerbox><div class = starbox><img class = star src=""/static/experiments/stop_signal_with_flanker/images/stopSignal.png""></img></div></div></div>",go,,2000.0,H,,72.0,1.0,0.0,9.0,stop_signal_with_flanker,,,,,,H_congruent,H,0.0-3.0-19.0,72.0,"[70, 72]",,577,1000.0,"<div class = bigbox><div class = centerbox><div class = flankerLeft_2><div class = cue-text><img class = center src=""/static/experiments/stop_signal_with_flanker/images/H.png""></img></div></div><div class = flankerLeft_1><div class = cue-text><img class = center src=""/static/experiments/stop_signal_with_flanker/images/H.png""></img></div></div><div class = flankerMiddle><div class = cue-text><img class = center src=""/static/experiments/stop_signal_with_flanker/images/H.png""></img></div></div><div class = flankerRight_1><div class = cue-text><img class = center src=""/static/experiments/stop_signal_with_flanker/images/H.png""></img></div></div><div class = flankerRight_2><div class = cue-text><img class = center src=""/static/experiments/stop_signal_with_flanker/images/H.png""></img>",,go,,127218,0.0,test_trial,59,stop-signal,
60,,,,,,,,500.0,,,,,,,stop_signal_with_flanker,,,,,,,,0.0-3.0-20.0,-1.0,none,,-1,500.0,<div class = centerbox><div class = fixation>+</div></div>,,,,127720,0.0,test_fixation,60,poldrack-single-stim,
61,400.0,350.0,400.0,500.0,"<div class = bigbox><div class = centerbox><div class = starbox><img class = star src=""/static/experiments/stop_signal_with_flanker/images/stopSignal.png""></img></div></div></div>",go,,2000.0,F,,70.0,1.0,0.0,10.0,stop_signal_with_flanker,,,,,,F_congruent,F,0.0-3.0-21.0,70.0,"[70, 72]",,522,1000.0,"<div class = bigbox><div class = centerbox><div class = flankerLeft_2><div class = cue-text><img class = center src=""/static/experiments/stop_signal_with_flanker/images/F.png""></img></div></div><div class = flankerLeft_1><div class = cue-text><img class = center src=""/static/experiments/stop_signal_with_flanker/images/F.png""></img></div></div><div class = flankerMiddle><div class = cue-text><img class = center src=""/static/experiments/stop_signal_with_flanker/images/F.png""></img></div></div><div class = flankerRight_1><div class = cue-text><img class = center src=""/static/experiments/stop_signal_with_flanker/images/F.png""></img></div></div><div class = flankerRight_2><div class = cue-text><img class = center src=""/static/experiments/stop_signal_with_flanker/images/F.png""></img>",,go,,129723,0.0,test_trial,61,stop-signal,
62,,,,,,,,500.0,,,,,,,stop_signal_with_flanker,,,,,,,,0.0-3.0-22.0,-1.0,none,,-1,500.0,<div class = centerbox><div class = fixation>+</div></div>,,,,130225,0.0,test_fixation,62,poldrack-single-stim,
63,400.0,350.0,400.0,500.0,"<div class = bigbox><div class = centerbox><div class = starbox><img class = star src=""/static/experiments/stop_signal_with_flanker/images/stopSignal.png""></img></div></div></div>",stop,,2000.0,F,,-1.0,1.0,0.0,11.0,stop_signal_with_flanker,,,,,,F_congruent,F,0.0-3.0-23.0,-1.0,"[70, 72]",,-1,1000.0,"<div class = bigbox><div class = centerbox><div class = flankerLeft_2><div class = cue-text><img class = center src=""/static/experiments/stop_signal_with_flanker/images/F.png""></img></div></div><div class = flankerLeft_1><div class = cue-text><img class = center src=""/static/experiments/stop_signal_with_flanker/images/F.png""></img></div></div><div class = flankerMiddle><div class = cue-text><img class = center src=""/static/experiments/stop_signal_with_flanker/images/F.png""></img></div></div><div class = flankerRight_1><div class = cue-text><img class = center src=""/static/experiments/stop_signal_with_flanker/images/F.png""></img></div></div><div class = flankerRight_2><div class = cue-text><img class = center src=""/static/experiments/stop_signal_with_flanker/images/F.png""></img>",1.0,stop,,132228,0.0,test_trial,63,stop-signal,
64,,,,,,,,500.0,,,,,,,stop_signal_with_flanker,,,,,,,,0.0-3.0-24.0,-1.0,none,,-1,500.0,<div class = centerbox><div class = fixation>+</div></div>,,,,132731,0.0,test_fixation,64,poldrack-single-stim,
65,450.0,350.0,350.0,500.0,"<div class = bigbox><div class = centerbox><div class = starbox><img class = star src=""/static/experiments/stop_signal_with_flanker/images/stopSignal.png""></img></div></div></div>",go,,2000.0,H,,72.0,1.0,0.0,12.0,stop_signal_with_flanker,,,,,,H_incongruent,F,0.0-3.0-25.0,72.0,"[70, 72]",,512,1000.0,"<div class = bigbox><div class = centerbox><div class = flankerLeft_2><div class = cue-text><img class = center src=""/static/experiments/stop_signal_with_flanker/images/F.png""></img></div></div><div class = flankerLeft_1><div class = cue-text><img class = center src=""/static/experiments/stop_signal_with_flanker/images/F.png""></img></div></div><div class = flankerMiddle><div class = cue-text><img class = center src=""/static/experiments/stop_signal_with_flanker/images/H.png""></img></div></div><div class = flankerRight_1><div class = cue-text><img class = center src=""/static/experiments/stop_signal_with_flanker/images/F.png""></img></div></div><div class = flankerRight_2><div class = cue-text><img class = center src=""/static/experiments/stop_signal_with_flanker/images/F.png""></img>",,go,,134734,0.0,test_trial,65,stop-signal,
66,,,,,,,,500.0,,,,,,,stop_signal_with_flanker,,,,,,,,0.0-3.0-26.0,-1.0,none,,-1,500.0,<div class = centerbox><div class = fixation>+</div></div>,,,,135235,0.0,test_fixation,66,poldrack-single-stim,
67,450.0,350.0,350.0,500.0,"<div class = bigbox><div class = centerbox><div class = starbox><img class = star src=""/static/experiments/stop_signal_with_flanker/images/stopSignal.png""></img></div></div></div>",go,,2000.0,H,,72.0,1.0,0.0,13.0,stop_signal_with_flanker,,,,,,H_incongruent,F,0.0-3.0-27.0,72.0,"[70, 72]",,741,1000.0,"<div class = bigbox><div class = centerbox><div class = flankerLeft_2><div class = cue-text><img class = center src=""/static/experiments/stop_signal_with_flanker/images/F.png""></img></div></div><div class = flankerLeft_1><div class = cue-text><img class = center src=""/static/experiments/stop_signal_with_flanker/images/F.png""></img></div></div><div class = flankerMiddle><div class = cue-text><img class = center src=""/static/experiments/stop_signal_with_flanker/images/H.png""></img></div></div><div class = flankerRight_1><div class = cue-text><img class = center src=""/static/experiments/stop_signal_with_flanker/images/F.png""></img></div></div><div class = flankerRight_2><div class = cue-text><img class = center src=""/static/experiments/stop_signal_with_flanker/images/F.png""></img>",,go,,137238,0.0,test_trial,67,stop-signal,
68,,,,,,,,500.0,,,,,,,stop_signal_with_flanker,,,,,,,,0.0-3.0-28.0,-1.0,none,,-1,500.0,<div class = centerbox><div class = fixation>+</div></div>,,,,137741,0.0,test_fixation,68,poldrack-single-stim,
69,450.0,350.0,350.0,500.0,"<div class = bigbox><div class = centerbox><div class = starbox><img class = star src=""/static/experiments/stop_signal_with_flanker/images/stopSignal.png""></img></div></div></div>",go,,2000.0,H,,72.0,1.0,0.0,14.0,stop_signal_with_flanker,,,,,,H_incongruent,F,0.0-3.0-29.0,72.0,"[70, 72]",,654,1000.0,"<div class = bigbox><div class = centerbox><div class = flankerLeft_2><div class = cue-text><img class = center src=""/static/experiments/stop_signal_with_flanker/images/F.png""></img></div></div><div class = flankerLeft_1><div class = cue-text><img class = center src=""/static/experiments/stop_signal_with_flanker/images/F.png""></img></div></div><div class = flankerMiddle><div class = cue-text><img class = center src=""/static/experiments/stop_signal_with_flanker/images/H.png""></img></div></div><div class = flankerRight_1><div class = cue-text><img class = center src=""/static/experiments/stop_signal_with_flanker/images/F.png""></img></div></div><div class = flankerRight_2><div class = cue-text><img class = center src=""/static/experiments/stop_signal_with_flanker/images/F.png""></img>",,go,,139744,0.0,test_trial,69,stop-signal,
70,,,,,,,,500.0,,,,,,,stop_signal_with_flanker,,,,,,,,0.0-3.0-30.0,-1.0,none,,-1,500.0,<div class = centerbox><div class = fixation>+</div></div>,,,,140246,0.0,test_fixation,70,poldrack-single-stim,
71,450.0,350.0,350.0,500.0,"<div class = bigbox><div class = centerbox><div class = starbox><img class = star src=""/static/experiments/stop_signal_with_flanker/images/stopSignal.png""></img></div></div></div>",go,,2000.0,F,,70.0,1.0,0.0,15.0,stop_signal_with_flanker,,,,,,F_incongruent,H,0.0-3.0-31.0,70.0,"[70, 72]",,597,1000.0,"<div class = bigbox><div class = centerbox><div class = flankerLeft_2><div class = cue-text><img class = center src=""/static/experiments/stop_signal_with_flanker/images/H.png""></img></div></div><div class = flankerLeft_1><div class = cue-text><img class = center src=""/static/experiments/stop_signal_with_flanker/images/H.png""></img></div></div><div class = flankerMiddle><div class = cue-text><img class = center src=""/static/experiments/stop_signal_with_flanker/images/F.png""></img></div></div><div class = flankerRight_1><div class = cue-text><img class = center src=""/static/experiments/stop_signal_with_flanker/images/H.png""></img></div></div><div class = flankerRight_2><div class = cue-text><img class = center src=""/static/experiments/stop_signal_with_flanker/images/H.png""></img>",,go,,142247,0.0,test_trial,71,stop-signal,
72,,,,,,,,500.0,,,,,,,stop_signal_with_flanker,,,,,,,,0.0-3.0-32.0,-1.0,none,,-1,500.0,<div class = centerbox><div class = fixation>+</div></div>,,,,142750,0.0,test_fixation,72,poldrack-single-stim,
73,450.0,350.0,450.0,500.0,"<div class = bigbox><div class = centerbox><div class = starbox><img class = star src=""/static/experiments/stop_signal_with_flanker/images/stopSignal.png""></img></div></div></div>",stop,,2000.0,F,,-1.0,0.0,0.0,16.0,stop_signal_with_flanker,,,,,,F_congruent,F,0.0-3.0-33.0,70.0,"[70, 72]",,629,1000.0,"<div class = bigbox><div class = centerbox><div class = flankerLeft_2><div class = cue-text><img class = center src=""/static/experiments/stop_signal_with_flanker/images/F.png""></img></div></div><div class = flankerLeft_1><div class = cue-text><img class = center src=""/static/experiments/stop_signal_with_flanker/images/F.png""></img></div></div><div class = flankerMiddle><div class = cue-text><img class = center src=""/static/experiments/stop_signal_with_flanker/images/F.png""></img></div></div><div class = flankerRight_1><div class = cue-text><img class = center src=""/static/experiments/stop_signal_with_flanker/images/F.png""></img></div></div><div class = flankerRight_2><div class = cue-text><img class = center src=""/static/experiments/stop_signal_with_flanker/images/F.png""></img>",0.0,stop,,144753,0.0,test_trial,73,stop-signal,
74,,,,,,,,500.0,,,,,,,stop_signal_with_flanker,,,,,,,,0.0-3.0-34.0,-1.0,none,,-1,500.0,<div class = centerbox><div class = fixation>+</div></div>,,,,145255,0.0,test_fixation,74,poldrack-single-stim,
75,400.0,350.0,400.0,500.0,"<div class = bigbox><div class = centerbox><div class = starbox><img class = star src=""/static/experiments/stop_signal_with_flanker/images/stopSignal.png""></img></div></div></div>",go,,2000.0,H,,72.0,1.0,0.0,17.0,stop_signal_with_flanker,,,,,,H_congruent,H,0.0-3.0-35.0,72.0,"[70, 72]",,700,1000.0,"<div class = bigbox><div class = centerbox><div class = flankerLeft_2><div class = cue-text><img class = center src=""/static/experiments/stop_signal_with_flanker/images/H.png""></img></div></div><div class = flankerLeft_1><div class = cue-text><img class = center src=""/static/experiments/stop_signal_with_flanker/images/H.png""></img></div></div><div class = flankerMiddle><div class = cue-text><img class = center src=""/static/experiments/stop_signal_with_flanker/images/H.png""></img></div></div><div class = flankerRight_1><div class = cue-text><img class = center src=""/static/experiments/stop_signal_with_flanker/images/H.png""></img></div></div><div class = flankerRight_2><div class = cue-text><img class = center src=""/static/experiments/stop_signal_with_flanker/images/H.png""></img>",,go,,147257,0.0,test_trial,75,stop-signal,
76,,,,,,,,500.0,,,,,,,stop_signal_with_flanker,,,,,,,,0.0-3.0-36.0,-1.0,none,,-1,500.0,<div class = centerbox><div class = fixation>+</div></div>,,,,147759,0.0,test_fixation,76,poldrack-single-stim,
77,400.0,350.0,350.0,500.0,"<div class = bigbox><div class = centerbox><div class = starbox><img class = star src=""/static/experiments/stop_signal_with_flanker/images/stopSignal.png""></img></div></div></div>",stop,,2000.0,F,,-1.0,1.0,0.0,18.0,stop_signal_with_flanker,,,,,,F_incongruent,H,0.0-3.0-37.0,-1.0,"[70, 72]",,-1,1000.0,"<div class = bigbox><div class = centerbox><div class = flankerLeft_2><div class = cue-text><img class = center src=""/static/experiments/stop_signal_with_flanker/images/H.png""></img></div></div><div class = flankerLeft_1><div class = cue-text><img class = center src=""/static/experiments/stop_signal_with_flanker/images/H.png""></img></div></div><div class = flankerMiddle><div class = cue-text><img class = center src=""/static/experiments/stop_signal_with_flanker/images/F.png""></img></div></div><div class = flankerRight_1><div class = cue-text><img class = center src=""/static/experiments/stop_signal_with_flanker/images/H.png""></img></div></div><div class = flankerRight_2><div class = cue-text><img class = center src=""/static/experiments/stop_signal_with_flanker/images/H.png""></img>",1.0,stop,,149762,0.0,test_trial,77,stop-signal,
78,,,,,,,,500.0,,,,,,,stop_signal_with_flanker,,,,,,,,0.0-3.0-38.0,-1.0,none,,-1,500.0,<div class = centerbox><div class = fixation>+</div></div>,,,,150264,0.0,test_fixation,78,poldrack-single-stim,
79,400.0,400.0,400.0,500.0,"<div class = bigbox><div class = centerbox><div class = starbox><img class = star src=""/static/experiments/stop_signal_with_flanker/images/stopSignal.png""></img></div></div></div>",stop,,2000.0,H,,-1.0,1.0,0.0,19.0,stop_signal_with_flanker,,,,,,H_incongruent,F,0.0-3.0-39.0,-1.0,"[70, 72]",,-1,1000.0,"<div class = bigbox><div class = centerbox><div class = flankerLeft_2><div class = cue-text><img class = center src=""/static/experiments/stop_signal_with_flanker/images/F.png""></img></div></div><div class = flankerLeft_1><div class = cue-text><img class = center src=""/static/experiments/stop_signal_with_flanker/images/F.png""></img></div></div><div class = flankerMiddle><div class = cue-text><img class = center src=""/static/experiments/stop_signal_with_flanker/images/H.png""></img></div></div><div class = flankerRight_1><div class = cue-text><img class = center src=""/static/experiments/stop_signal_with_flanker/images/F.png""></img></div></div><div class = flankerRight_2><div class = cue-text><img class = center src=""/static/experiments/stop_signal_with_flanker/images/F.png""></img>",1.0,stop,,152266,0.0,test_trial,79,stop-signal,
80,,,,,,,,500.0,,,,,,,stop_signal_with_flanker,,,,,,,,0.0-3.0-40.0,-1.0,none,,-1,500.0,<div class = centerbox><div class = fixation>+</div></div>,,,,152769,0.0,test_fixation,80,poldrack-single-stim,
81,400.0,450.0,450.0,500.0,"<div class = bigbox><div class = centerbox><div class = starbox><img class = star src=""/static/experiments/stop_signal_with_flanker/images/stopSignal.png""></img></div></div></div>",go,,2000.0,F,,70.0,1.0,0.0,20.0,stop_signal_with_flanker,,,,,,F_incongruent,H,0.0-3.0-41.0,70.0,"[70, 72]",,673,1000.0,"<div class = bigbox><div class = centerbox><div class = flankerLeft_2><div class = cue-text><img class = center src=""/static/experiments/stop_signal_with_flanker/images/H.png""></img></div></div><div class = flankerLeft_1><div class = cue-text><img class = center src=""/static/experiments/stop_signal_with_flanker/images/H.png""></img></div></div><div class = flankerMiddle><div class = cue-text><img class = center src=""/static/experiments/stop_signal_with_flanker/images/F.png""></img></div></div><div class = flankerRight_1><div class = cue-text><img class = center src=""/static/experiments/stop_signal_with_flanker/images/H.png""></img></div></div><div class = flankerRight_2><div class = cue-text><img class = center src=""/static/experiments/stop_signal_with_flanker/images/H.png""></img>",,go,,154770,0.0,test_trial,81,stop-signal,
82,,,,,,,,500.0,,,,,,,stop_signal_with_flanker,,,,,,,,0.0-3.0-42.0,-1.0,none,,-1,500.0,<div class = centerbox><div class = fixation>+</div></div>,,,,155272,0.0,test_fixation,82,poldrack-single-stim,
83,400.0,450.0,450.0,500.0,"<div class = bigbox><div class = centerbox><div class = starbox><img class = star src=""/static/experiments/stop_signal_with_flanker/images/stopSignal.png""></img></div></div></div>",stop,,2000.0,F,,-1.0,0.0,0.0,21.0,stop_signal_with_flanker,,,,,,F_incongruent,H,0.0-3.0-43.0,70.0,"[70, 72]",,518,1000.0,"<div class = bigbox><div class = centerbox><div class = flankerLeft_2><div class = cue-text><img class = center src=""/static/experiments/stop_signal_with_flanker/images/H.png""></img></div></div><div class = flankerLeft_1><div class = cue-text><img class = center src=""/static/experiments/stop_signal_with_flanker/images/H.png""></img></div></div><div class = flankerMiddle><div class = cue-text><img class = center src=""/static/experiments/stop_signal_with_flanker/images/F.png""></img></div></div><div class = flankerRight_1><div class = cue-text><img class = center src=""/static/experiments/stop_signal_with_flanker/images/H.png""></img></div></div><div class = flankerRight_2><div class = cue-text><img class = center src=""/static/experiments/stop_signal_with_flanker/images/H.png""></img>",0.0,stop,,157274,0.0,test_trial,83,stop-signal,
84,,,,,,,,500.0,,,,,,,stop_signal_with_flanker,,,,,,,,0.0-3.0-44.0,-1.0,none,,-1,500.0,<div class = centerbox><div class = fixation>+</div></div>,,,,157777,0.0,test_fixation,84,poldrack-single-stim,
85,400.0,400.0,400.0,500.0,"<div class = bigbox><div class = centerbox><div class = starbox><img class = star src=""/static/experiments/stop_signal_with_flanker/images/stopSignal.png""></img></div></div></div>",go,,2000.0,F,,70.0,1.0,0.0,22.0,stop_signal_with_flanker,,,,,,F_congruent,F,0.0-3.0-45.0,70.0,"[70, 72]",,646,1000.0,"<div class = bigbox><div class = centerbox><div class = flankerLeft_2><div class = cue-text><img class = center src=""/static/experiments/stop_signal_with_flanker/images/F.png""></img></div></div><div class = flankerLeft_1><div class = cue-text><img class = center src=""/static/experiments/stop_signal_with_flanker/images/F.png""></img></div></div><div class = flankerMiddle><div class = cue-text><img class = center src=""/static/experiments/stop_signal_with_flanker/images/F.png""></img></div></div><div class = flankerRight_1><div class = cue-text><img class = center src=""/static/experiments/stop_signal_with_flanker/images/F.png""></img></div></div><div class = flankerRight_2><div class = cue-text><img class = center src=""/static/experiments/stop_signal_with_flanker/images/F.png""></img>",,go,,159779,0.0,test_trial,85,stop-signal,
86,,,,,,,,500.0,,,,,,,stop_signal_with_flanker,,,,,,,,0.0-3.0-46.0,-1.0,none,,-1,500.0,<div class = centerbox><div class = fixation>+</div></div>,,,,160281,0.0,test_fixation,86,poldrack-single-stim,
87,400.0,400.0,400.0,500.0,"<div class = bigbox><div class = centerbox><div class = starbox><img class = star src=""/static/experiments/stop_signal_with_flanker/images/stopSignal.png""></img></div></div></div>",go,,2000.0,F,,70.0,1.0,0.0,23.0,stop_signal_with_flanker,,,,,,F_incongruent,H,0.0-3.0-47.0,70.0,"[70, 72]",,638,1000.0,"<div class = bigbox><div class = centerbox><div class = flankerLeft_2><div class = cue-text><img class = center src=""/static/experiments/stop_signal_with_flanker/images/H.png""></img></div></div><div class = flankerLeft_1><div class = cue-text><img class = center src=""/static/experiments/stop_signal_with_flanker/images/H.png""></img></div></div><div class = flankerMiddle><div class = cue-text><img class = center src=""/static/experiments/stop_signal_with_flanker/images/F.png""></img></div></div><div class = flankerRight_1><div class = cue-text><img class = center src=""/static/experiments/stop_signal_with_flanker/images/H.png""></img></div></div><div class = flankerRight_2><div class = cue-text><img class = center src=""/static/experiments/stop_signal_with_flanker/images/H.png""></img>",,go,,162283,0.0,test_trial,87,stop-signal,
88,,,,,,,,500.0,,,,,,,stop_signal_with_flanker,,,,,,,,0.0-3.0-48.0,-1.0,none,,-1,500.0,<div class = centerbox><div class = fixation>+</div></div>,,,,162786,0.0,test_fixation,88,poldrack-single-stim,
89,400.0,400.0,400.0,500.0,"<div class = bigbox><div class = centerbox><div class = starbox><img class = star src=""/static/experiments/stop_signal_with_flanker/images/stopSignal.png""></img></div></div></div>",go,,2000.0,F,,70.0,1.0,0.0,24.0,stop_signal_with_flanker,,,,,,F_congruent,F,0.0-3.0-49.0,70.0,"[70, 72]",,622,1000.0,"<div class = bigbox><div class = centerbox><div class = flankerLeft_2><div class = cue-text><img class = center src=""/static/experiments/stop_signal_with_flanker/images/F.png""></img></div></div><div class = flankerLeft_1><div class = cue-text><img class = center src=""/static/experiments/stop_signal_with_flanker/images/F.png""></img></div></div><div class = flankerMiddle><div class = cue-text><img class = center src=""/static/experiments/stop_signal_with_flanker/images/F.png""></img></div></div><div class = flankerRight_1><div class = cue-text><img class = center src=""/static/experiments/stop_signal_with_flanker/images/F.png""></img></div></div><div class = flankerRight_2><div class = cue-text><img class = center src=""/static/experiments/stop_signal_with_flanker/images/F.png""></img>",,go,,164788,0.0,test_trial,89,stop-signal,
90,,,,,,,,500.0,,,,,,,stop_signal_with_flanker,,,,,,,,0.0-3.0-50.0,-1.0,none,,-1,500.0,<div class = centerbox><div class = fixation>+</div></div>,,,,165289,0.0,test_fixation,90,poldrack-single-stim,
91,400.0,400.0,400.0,500.0,"<div class = bigbox><div class = centerbox><div class = starbox><img class = star src=""/static/experiments/stop_signal_with_flanker/images/stopSignal.png""></img></div></div></div>",go,,2000.0,F,,70.0,1.0,0.0,25.0,stop_signal_with_flanker,,,,,,F_incongruent,H,0.0-3.0-51.0,70.0,"[70, 72]",,648,1000.0,"<div class = bigbox><div class = centerbox><div class = flankerLeft_2><div class = cue-text><img class = center src=""/static/experiments/stop_signal_with_flanker/images/H.png""></img></div></div><div class = flankerLeft_1><div class = cue-text><img class = center src=""/static/experiments/stop_signal_with_flanker/images/H.png""></img></div></div><div class = flankerMiddle><div class = cue-text><img class = center src=""/static/experiments/stop_signal_with_flanker/images/F.png""></img></div></div><div class = flankerRight_1><div class = cue-text><img class = center src=""/static/experiments/stop_signal_with_flanker/images/H.png""></img></div></div><div class = flankerRight_2><div class = cue-text><img class = center src=""/static/experiments/stop_signal_with_flanker/images/H.png""></img>",,go,,167293,0.0,test_trial,91,stop-signal,
92,,,,,,,,500.0,,,,,,,stop_signal_with_flanker,,,,,,,,0.0-3.0-52.0,-1.0,none,,-1,500.0,<div class = centerbox><div class = fixation>+</div></div>,,,,167795,0.0,test_fixation,92,poldrack-single-stim,
93,400.0,400.0,400.0,500.0,"<div class = bigbox><div class = centerbox><div class = starbox><img class = star src=""/static/experiments/stop_signal_with_flanker/images/stopSignal.png""></img></div></div></div>",go,,2000.0,H,,72.0,1.0,0.0,26.0,stop_signal_with_flanker,,,,,,H_congruent,H,0.0-3.0-53.0,72.0,"[70, 72]",,609,1000.0,"<div class = bigbox><div class = centerbox><div class = flankerLeft_2><div class = cue-text><img class = center src=""/static/experiments/stop_signal_with_flanker/images/H.png""></img></div></div><div class = flankerLeft_1><div class = cue-text><img class = center src=""/static/experiments/stop_signal_with_flanker/images/H.png""></img></div></div><div class = flankerMiddle><div class = cue-text><img class = center src=""/static/experiments/stop_signal_with_flanker/images/H.png""></img></div></div><div class = flankerRight_1><div class = cue-text><img class = center src=""/static/experiments/stop_signal_with_flanker/images/H.png""></img></div></div><div class = flankerRight_2><div class = cue-text><img class = center src=""/static/experiments/stop_signal_with_flanker/images/H.png""></img>",,go,,169797,0.0,test_trial,93,stop-signal,
94,,,,,,,,500.0,,,,,,,stop_signal_with_flanker,,,,,,,,0.0-3.0-54.0,-1.0,none,,-1,500.0,<div class = centerbox><div class = fixation>+</div></div>,,,,170299,0.0,test_fixation,94,poldrack-single-stim,
95,400.0,400.0,400.0,500.0,"<div class = bigbox><div class = centerbox><div class = starbox><img class = star src=""/static/experiments/stop_signal_with_flanker/images/stopSignal.png""></img></div></div></div>",go,,2000.0,H,,72.0,1.0,0.0,27.0,stop_signal_with_flanker,,,,,,H_incongruent,F,0.0-3.0-55.0,72.0,"[70, 72]",,600,1000.0,"<div class = bigbox><div class = centerbox><div class = flankerLeft_2><div class = cue-text><img class = center src=""/static/experiments/stop_signal_with_flanker/images/F.png""></img></div></div><div class = flankerLeft_1><div class = cue-text><img class = center src=""/static/experiments/stop_signal_with_flanker/images/F.png""></img></div></div><div class = flankerMiddle><div class = cue-text><img class = center src=""/static/experiments/stop_signal_with_flanker/images/H.png""></img></div></div><div class = flankerRight_1><div class = cue-text><img class = center src=""/static/experiments/stop_signal_with_flanker/images/F.png""></img></div></div><div class = flankerRight_2><div class = cue-text><img class = center src=""/static/experiments/stop_signal_with_flanker/images/F.png""></img>",,go,,172302,0.0,test_trial,95,stop-signal,
96,,,,,,,,500.0,,,,,,,stop_signal_with_flanker,,,,,,,,0.0-3.0-56.0,-1.0,none,,-1,500.0,<div class = centerbox><div class = fixation>+</div></div>,,,,172804,0.0,test_fixation,96,poldrack-single-stim,
97,400.0,400.0,400.0,500.0,"<div class = bigbox><div class = centerbox><div class = starbox><img class = star src=""/static/experiments/stop_signal_with_flanker/images/stopSignal.png""></img></div></div></div>",go,,2000.0,H,,72.0,1.0,0.0,28.0,stop_signal_with_flanker,,,,,,H_incongruent,F,0.0-3.0-57.0,72.0,"[70, 72]",,600,1000.0,"<div class = bigbox><div class = centerbox><div class = flankerLeft_2><div class = cue-text><img class = center src=""/static/experiments/stop_signal_with_flanker/images/F.png""></img></div></div><div class = flankerLeft_1><div class = cue-text><img class = center src=""/static/experiments/stop_signal_with_flanker/images/F.png""></img></div></div><div class = flankerMiddle><div class = cue-text><img class = center src=""/static/experiments/stop_signal_with_flanker/images/H.png""></img></div></div><div class = flankerRight_1><div class = cue-text><img class = center src=""/static/experiments/stop_signal_with_flanker/images/F.png""></img></div></div><div class = flankerRight_2><div class = cue-text><img class = center src=""/static/experiments/stop_signal_with_flanker/images/F.png""></img>",,go,,174806,0.0,test_trial,97,stop-signal,
98,,,,,,,,500.0,,,,,,,stop_signal_with_flanker,,,,,,,,0.0-3.0-58.0,-1.0,none,,-1,500.0,<div class = centerbox><div class = fixation>+</div></div>,,,,175308,0.0,test_fixation,98,poldrack-single-stim,
99,400.0,400.0,400.0,500.0,"<div class = bigbox><div class = centerbox><div class = starbox><img class = star src=""/static/experiments/stop_signal_with_flanker/images/stopSignal.png""></img></div></div></div>",go,,2000.0,F,,70.0,1.0,0.0,29.0,stop_signal_with_flanker,,,,,,F_incongruent,H,0.0-3.0-59.0,70.0,"[70, 72]",,818,1000.0,"<div class = bigbox><div class = centerbox><div class = flankerLeft_2><div class = cue-text><img class = center src=""/static/experiments/stop_signal_with_flanker/images/H.png""></img></div></div><div class = flankerLeft_1><div class = cue-text><img class = center src=""/static/experiments/stop_signal_with_flanker/images/H.png""></img></div></div><div class = flankerMiddle><div class = cue-text><img class = center src=""/static/experiments/stop_signal_with_flanker/images/F.png""></img></div></div><div class = flankerRight_1><div class = cue-text><img class = center src=""/static/experiments/stop_signal_with_flanker/images/H.png""></img></div></div><div class = flankerRight_2><div class = cue-text><img class = center src=""/static/experiments/stop_signal_with_flanker/images/H.png""></img>",,go,,177311,0.0,test_trial,99,stop-signal,
100,,,,,,,,500.0,,,,,,,stop_signal_with_flanker,,,,,,,,0.0-3.0-60.0,-1.0,none,,-1,500.0,<div class = centerbox><div class = fixation>+</div></div>,,,,177812,0.0,test_fixation,100,poldrack-single-stim,
101,400.0,400.0,400.0,500.0,"<div class = bigbox><div class = centerbox><div class = starbox><img class = star src=""/static/experiments/stop_signal_with_flanker/images/stopSignal.png""></img></div></div></div>",stop,,2000.0,F,,-1.0,1.0,0.0,30.0,stop_signal_with_flanker,,,,,,F_congruent,F,0.0-3.0-61.0,-1.0,"[70, 72]",,-1,1000.0,"<div class = bigbox><div class = centerbox><div class = flankerLeft_2><div class = cue-text><img class = center src=""/static/experiments/stop_signal_with_flanker/images/F.png""></img></div></div><div class = flankerLeft_1><div class = cue-text><img class = center src=""/static/experiments/stop_signal_with_flanker/images/F.png""></img></div></div><div class = flankerMiddle><div class = cue-text><img class = center src=""/static/experiments/stop_signal_with_flanker/images/F.png""></img></div></div><div class = flankerRight_1><div class = cue-text><img class = center src=""/static/experiments/stop_signal_with_flanker/images/F.png""></img></div></div><div class = flankerRight_2><div class = cue-text><img class = center src=""/static/experiments/stop_signal_with_flanker/images/F.png""></img>",1.0,stop,,179814,0.0,test_trial,101,stop-signal,
102,,,,,,,,500.0,,,,,,,stop_signal_with_flanker,,,,,,,,0.0-3.0-62.0,-1.0,none,,-1,500.0,<div class = centerbox><div class = fixation>+</div></div>,,,,180317,0.0,test_fixation,102,poldrack-single-stim,
103,450.0,400.0,450.0,500.0,"<div class = bigbox><div class = centerbox><div class = starbox><img class = star src=""/static/experiments/stop_signal_with_flanker/images/stopSignal.png""></img></div></div></div>",stop,,2000.0,F,,-1.0,0.0,0.0,31.0,stop_signal_with_flanker,,,,,,F_congruent,F,0.0-3.0-63.0,70.0,"[70, 72]",,471,1000.0,"<div class = bigbox><div class = centerbox><div class = flankerLeft_2><div class = cue-text><img class = center src=""/static/experiments/stop_signal_with_flanker/images/F.png""></img></div></div><div class = flankerLeft_1><div class = cue-text><img class = center src=""/static/experiments/stop_signal_with_flanker/images/F.png""></img></div></div><div class = flankerMiddle><div class = cue-text><img class = center src=""/static/experiments/stop_signal_with_flanker/images/F.png""></img></div></div><div class = flankerRight_1><div class = cue-text><img class = center src=""/static/experiments/stop_signal_with_flanker/images/F.png""></img></div></div><div class = flankerRight_2><div class = cue-text><img class = center src=""/static/experiments/stop_signal_with_flanker/images/F.png""></img>",0.0,stop,,182319,0.0,test_trial,103,stop-signal,
104,,,,,,,,500.0,,,,,,,stop_signal_with_flanker,,,,,,,,0.0-3.0-64.0,-1.0,none,,-1,500.0,<div class = centerbox><div class = fixation>+</div></div>,,,,182821,0.0,test_fixation,104,poldrack-single-stim,
105,400.0,400.0,400.0,500.0,"<div class = bigbox><div class = centerbox><div class = starbox><img class = star src=""/static/experiments/stop_signal_with_flanker/images/stopSignal.png""></img></div></div></div>",go,,2000.0,H,,72.0,1.0,0.0,32.0,stop_signal_with_flanker,,,,,,H_congruent,H,0.0-3.0-65.0,72.0,"[70, 72]",,571,1000.0,"<div class = bigbox><div class = centerbox><div class = flankerLeft_2><div class = cue-text><img class = center src=""/static/experiments/stop_signal_with_flanker/images/H.png""></img></div></div><div class = flankerLeft_1><div class = cue-text><img class = center src=""/static/experiments/stop_signal_with_flanker/images/H.png""></img></div></div><div class = flankerMiddle><div class = cue-text><img class = center src=""/static/experiments/stop_signal_with_flanker/images/H.png""></img></div></div><div class = flankerRight_1><div class = cue-text><img class = center src=""/static/experiments/stop_signal_with_flanker/images/H.png""></img></div></div><div class = flankerRight_2><div class = cue-text><img class = center src=""/static/experiments/stop_signal_with_flanker/images/H.png""></img>",,go,,184823,0.0,test_trial,105,stop-signal,
106,,,,,,,,500.0,,,,,,,stop_signal_with_flanker,,,,,,,,0.0-3.0-66.0,-1.0,none,,-1,500.0,<div class = centerbox><div class = fixation>+</div></div>,,,,185326,0.0,test_fixation,106,poldrack-single-stim,
107,400.0,400.0,400.0,500.0,"<div class = bigbox><div class = centerbox><div class = starbox><img class = star src=""/static/experiments/stop_signal_with_flanker/images/stopSignal.png""></img></div></div></div>",go,,2000.0,F,,70.0,1.0,0.0,33.0,stop_signal_with_flanker,,,,,,F_congruent,F,0.0-3.0-67.0,70.0,"[70, 72]",,578,1000.0,"<div class = bigbox><div class = centerbox><div class = flankerLeft_2><div class = cue-text><img class = center src=""/static/experiments/stop_signal_with_flanker/images/F.png""></img></div></div><div class = flankerLeft_1><div class = cue-text><img class = center src=""/static/experiments/stop_signal_with_flanker/images/F.png""></img></div></div><div class = flankerMiddle><div class = cue-text><img class = center src=""/static/experiments/stop_signal_with_flanker/images/F.png""></img></div></div><div class = flankerRight_1><div class = cue-text><img class = center src=""/static/experiments/stop_signal_with_flanker/images/F.png""></img></div></div><div class = flankerRight_2><div class = cue-text><img class = center src=""/static/experiments/stop_signal_with_flanker/images/F.png""></img>",,go,,187328,0.0,test_trial,107,stop-signal,
108,,,,,,,,500.0,,,,,,,stop_signal_with_flanker,,,,,,,,0.0-3.0-68.0,-1.0,none,,-1,500.0,<div class = centerbox><div class = fixation>+</div></div>,,,,187830,0.0,test_fixation,108,poldrack-single-stim,
109,400.0,400.0,400.0,500.0,"<div class = bigbox><div class = centerbox><div class = starbox><img class = star src=""/static/experiments/stop_signal_with_flanker/images/stopSignal.png""></img></div></div></div>",stop,,2000.0,H,,-1.0,0.0,0.0,34.0,stop_signal_with_flanker,,,,,,H_congruent,H,0.0-3.0-69.0,72.0,"[70, 72]",,621,1000.0,"<div class = bigbox><div class = centerbox><div class = flankerLeft_2><div class = cue-text><img class = center src=""/static/experiments/stop_signal_with_flanker/images/H.png""></img></div></div><div class = flankerLeft_1><div class = cue-text><img class = center src=""/static/experiments/stop_signal_with_flanker/images/H.png""></img></div></div><div class = flankerMiddle><div class = cue-text><img class = center src=""/static/experiments/stop_signal_with_flanker/images/H.png""></img></div></div><div class = flankerRight_1><div class = cue-text><img class = center src=""/static/experiments/stop_signal_with_flanker/images/H.png""></img></div></div><div class = flankerRight_2><div class = cue-text><img class = center src=""/static/experiments/stop_signal_with_flanker/images/H.png""></img>",0.0,stop,,189832,0.0,test_trial,109,stop-signal,
110,,,,,,,,500.0,,,,,,,stop_signal_with_flanker,,,,,,,,0.0-3.0-70.0,-1.0,none,,-1,500.0,<div class = centerbox><div class = fixation>+</div></div>,,,,190335,0.0,test_fixation,110,poldrack-single-stim,
111,350.0,400.0,400.0,500.0,"<div class = bigbox><div class = centerbox><div class = starbox><img class = star src=""/static/experiments/stop_signal_with_flanker/images/stopSignal.png""></img></div></div></div>",stop,,2000.0,F,,-1.0,1.0,0.0,35.0,stop_signal_with_flanker,,,,,,F_incongruent,H,0.0-3.0-71.0,-1.0,"[70, 72]",,-1,1000.0,"<div class = bigbox><div class = centerbox><div class = flankerLeft_2><div class = cue-text><img class = center src=""/static/experiments/stop_signal_with_flanker/images/H.png""></img></div></div><div class = flankerLeft_1><div class = cue-text><img class = center src=""/static/experiments/stop_signal_with_flanker/images/H.png""></img></div></div><div class = flankerMiddle><div class = cue-text><img class = center src=""/static/experiments/stop_signal_with_flanker/images/F.png""></img></div></div><div class = flankerRight_1><div class = cue-text><img class = center src=""/static/experiments/stop_signal_with_flanker/images/H.png""></img></div></div><div class = flankerRight_2><div class = cue-text><img class = center src=""/static/experiments/stop_signal_with_flanker/images/H.png""></img>",1.0,stop,,192337,0.0,test_trial,111,stop-signal,
112,,,,,,,,500.0,,,,,,,stop_signal_with_flanker,,,,,,,,0.0-3.0-72.0,-1.0,none,,-1,500.0,<div class = centerbox><div class = fixation>+</div></div>,,,,192838,0.0,test_fixation,112,poldrack-single-stim,
113,350.0,450.0,450.0,500.0,"<div class = bigbox><div class = centerbox><div class = starbox><img class = star src=""/static/experiments/stop_signal_with_flanker/images/stopSignal.png""></img></div></div></div>",stop,,2000.0,H,,-1.0,0.0,0.0,36.0,stop_signal_with_flanker,,,,,,H_incongruent,F,0.0-3.0-73.0,72.0,"[70, 72]",,535,1000.0,"<div class = bigbox><div class = centerbox><div class = flankerLeft_2><div class = cue-text><img class = center src=""/static/experiments/stop_signal_with_flanker/images/F.png""></img></div></div><div class = flankerLeft_1><div class = cue-text><img class = center src=""/static/experiments/stop_signal_with_flanker/images/F.png""></img></div></div><div class = flankerMiddle><div class = cue-text><img class = center src=""/static/experiments/stop_signal_with_flanker/images/H.png""></img></div></div><div class = flankerRight_1><div class = cue-text><img class = center src=""/static/experiments/stop_signal_with_flanker/images/F.png""></img></div></div><div class = flankerRight_2><div class = cue-text><img class = center src=""/static/experiments/stop_signal_with_flanker/images/F.png""></img>",0.0,stop,,194841,0.0,test_trial,113,stop-signal,
114,,,,,,,,500.0,,,,,,,stop_signal_with_flanker,,,,,,,,0.0-3.0-74.0,-1.0,none,,-1,500.0,<div class = centerbox><div class = fixation>+</div></div>,,,,195343,0.0,test_fixation,114,poldrack-single-stim,
115,350.0,400.0,400.0,500.0,"<div class = bigbox><div class = centerbox><div class = starbox><img class = star src=""/static/experiments/stop_signal_with_flanker/images/stopSignal.png""></img></div></div></div>",go,,2000.0,F,,70.0,1.0,0.0,37.0,stop_signal_with_flanker,,,,,,F_incongruent,H,0.0-3.0-75.0,70.0,"[70, 72]",,574,1000.0,"<div class = bigbox><div class = centerbox><div class = flankerLeft_2><div class = cue-text><img class = center src=""/static/experiments/stop_signal_with_flanker/images/H.png""></img></div></div><div class = flankerLeft_1><div class = cue-text><img class = center src=""/static/experiments/stop_signal_with_flanker/images/H.png""></img></div></div><div class = flankerMiddle><div class = cue-text><img class = center src=""/static/experiments/stop_signal_with_flanker/images/F.png""></img></div></div><div class = flankerRight_1><div class = cue-text><img class = center src=""/static/experiments/stop_signal_with_flanker/images/H.png""></img></div></div><div class = flankerRight_2><div class = cue-text><img class = center src=""/static/experiments/stop_signal_with_flanker/images/H.png""></img>",,go,,197346,0.0,test_trial,115,stop-signal,
116,,,,,,,,500.0,,,,,,,stop_signal_with_flanker,,,,,,,,0.0-3.0-76.0,-1.0,none,,-1,500.0,<div class = centerbox><div class = fixation>+</div></div>,,,,197847,0.0,test_fixation,116,poldrack-single-stim,
117,350.0,400.0,400.0,500.0,"<div class = bigbox><div class = centerbox><div class = starbox><img class = star src=""/static/experiments/stop_signal_with_flanker/images/stopSignal.png""></img></div></div></div>",stop,,2000.0,H,,-1.0,0.0,0.0,38.0,stop_signal_with_flanker,,,,,,H_incongruent,F,0.0-3.0-77.0,72.0,"[70, 72]",,546,1000.0,"<div class = bigbox><div class = centerbox><div class = flankerLeft_2><div class = cue-text><img class = center src=""/static/experiments/stop_signal_with_flanker/images/F.png""></img></div></div><div class = flankerLeft_1><div class = cue-text><img class = center src=""/static/experiments/stop_signal_with_flanker/images/F.png""></img></div></div><div class = flankerMiddle><div class = cue-text><img class = center src=""/static/experiments/stop_signal_with_flanker/images/H.png""></img></div></div><div class = flankerRight_1><div class = cue-text><img class = center src=""/static/experiments/stop_signal_with_flanker/images/F.png""></img></div></div><div class = flankerRight_2><div class = cue-text><img class = center src=""/static/experiments/stop_signal_with_flanker/images/F.png""></img>",0.0,stop,,199849,0.0,test_trial,117,stop-signal,
118,,,,,,,,500.0,,,,,,,stop_signal_with_flanker,,,,,,,,0.0-3.0-78.0,-1.0,none,,-1,500.0,<div class = centerbox><div class = fixation>+</div></div>,,,,200352,0.0,test_fixation,118,poldrack-single-stim,
119,350.0,350.0,350.0,500.0,"<div class = bigbox><div class = centerbox><div class = starbox><img class = star src=""/static/experiments/stop_signal_with_flanker/images/stopSignal.png""></img></div></div></div>",stop,,2000.0,H,,-1.0,1.0,0.0,39.0,stop_signal_with_flanker,,,,,,H_incongruent,F,0.0-3.0-79.0,-1.0,"[70, 72]",,-1,1000.0,"<div class = bigbox><div class = centerbox><div class = flankerLeft_2><div class = cue-text><img class = center src=""/static/experiments/stop_signal_with_flanker/images/F.png""></img></div></div><div class = flankerLeft_1><div class = cue-text><img class = center src=""/static/experiments/stop_signal_with_flanker/images/F.png""></img></div></div><div class = flankerMiddle><div class = cue-text><img class = center src=""/static/experiments/stop_signal_with_flanker/images/H.png""></img></div></div><div class = flankerRight_1><div class = cue-text><img class = center src=""/static/experiments/stop_signal_with_flanker/images/F.png""></img></div></div><div class = flankerRight_2><div class = cue-text><img class = center src=""/static/experiments/stop_signal_with_flanker/images/F.png""></img>",1.0,stop,,202354,0.0,test_trial,119,stop-signal,
120,,,,,,,,500.0,,,,,,,stop_signal_with_flanker,,,,,,,,0.0-3.0-80.0,-1.0,none,,-1,500.0,<div class = centerbox><div class = fixation>+</div></div>,,,,202856,0.0,test_fixation,120,poldrack-single-stim,
121,350.0,400.0,350.0,500.0,"<div class = bigbox><div class = centerbox><div class = starbox><img class = star src=""/static/experiments/stop_signal_with_flanker/images/stopSignal.png""></img></div></div></div>",stop,,2000.0,H,,-1.0,1.0,0.0,40.0,stop_signal_with_flanker,,,,,,H_congruent,H,0.0-3.0-81.0,-1.0,"[70, 72]",,-1,1000.0,"<div class = bigbox><div class = centerbox><div class = flankerLeft_2><div class = cue-text><img class = center src=""/static/experiments/stop_signal_with_flanker/images/H.png""></img></div></div><div class = flankerLeft_1><div class = cue-text><img class = center src=""/static/experiments/stop_signal_with_flanker/images/H.png""></img></div></div><div class = flankerMiddle><div class = cue-text><img class = center src=""/static/experiments/stop_signal_with_flanker/images/H.png""></img></div></div><div class = flankerRight_1><div class = cue-text><img class = center src=""/static/experiments/stop_signal_with_flanker/images/H.png""></img></div></div><div class = flankerRight_2><div class = cue-text><img class = center src=""/static/experiments/stop_signal_with_flanker/images/H.png""></img>",1.0,stop,,204858,0.0,test_trial,121,stop-signal,
122,,,,,,,,500.0,,,,,,,stop_signal_with_flanker,,,,,,,,0.0-3.0-82.0,-1.0,none,,-1,500.0,<div class = centerbox><div class = fixation>+</div></div>,,,,205360,0.0,test_fixation,122,poldrack-single-stim,
123,400.0,400.0,400.0,500.0,"<div class = bigbox><div class = centerbox><div class = starbox><img class = star src=""/static/experiments/stop_signal_with_flanker/images/stopSignal.png""></img></div></div></div>",stop,,2000.0,H,,-1.0,0.0,0.0,41.0,stop_signal_with_flanker,,,,,,H_congruent,H,0.0-3.0-83.0,72.0,"[70, 72]",,552,1000.0,"<div class = bigbox><div class = centerbox><div class = flankerLeft_2><div class = cue-text><img class = center src=""/static/experiments/stop_signal_with_flanker/images/H.png""></img></div></div><div class = flankerLeft_1><div class = cue-text><img class = center src=""/static/experiments/stop_signal_with_flanker/images/H.png""></img></div></div><div class = flankerMiddle><div class = cue-text><img class = center src=""/static/experiments/stop_signal_with_flanker/images/H.png""></img></div></div><div class = flankerRight_1><div class = cue-text><img class = center src=""/static/experiments/stop_signal_with_flanker/images/H.png""></img></div></div><div class = flankerRight_2><div class = cue-text><img class = center src=""/static/experiments/stop_signal_with_flanker/images/H.png""></img>",0.0,stop,,207362,0.0,test_trial,123,stop-signal,
124,,,,,,,,500.0,,,,,,,stop_signal_with_flanker,,,,,,,,0.0-3.0-84.0,-1.0,none,,-1,500.0,<div class = centerbox><div class = fixation>+</div></div>,,,,207864,0.0,test_fixation,124,poldrack-single-stim,
125,350.0,400.0,400.0,500.0,"<div class = bigbox><div class = centerbox><div class = starbox><img class = star src=""/static/experiments/stop_signal_with_flanker/images/stopSignal.png""></img></div></div></div>",go,,2000.0,F,,70.0,1.0,0.0,42.0,stop_signal_with_flanker,,,,,,F_incongruent,H,0.0-3.0-85.0,70.0,"[70, 72]",,601,1000.0,"<div class = bigbox><div class = centerbox><div class = flankerLeft_2><div class = cue-text><img class = center src=""/static/experiments/stop_signal_with_flanker/images/H.png""></img></div></div><div class = flankerLeft_1><div class = cue-text><img class = center src=""/static/experiments/stop_signal_with_flanker/images/H.png""></img></div></div><div class = flankerMiddle><div class = cue-text><img class = center src=""/static/experiments/stop_signal_with_flanker/images/F.png""></img></div></div><div class = flankerRight_1><div class = cue-text><img class = center src=""/static/experiments/stop_signal_with_flanker/images/H.png""></img></div></div><div class = flankerRight_2><div class = cue-text><img class = center src=""/static/experiments/stop_signal_with_flanker/images/H.png""></img>",,go,,209867,0.0,test_trial,125,stop-signal,
126,,,,,,,,500.0,,,,,,,stop_signal_with_flanker,,,,,,,,0.0-3.0-86.0,-1.0,none,,-1,500.0,<div class = centerbox><div class = fixation>+</div></div>,,,,210368,0.0,test_fixation,126,poldrack-single-stim,
127,350.0,400.0,350.0,500.0,"<div class = bigbox><div class = centerbox><div class = starbox><img class = star src=""/static/experiments/stop_signal_with_flanker/images/stopSignal.png""></img></div></div></div>",go,,2000.0,F,,70.0,1.0,0.0,43.0,stop_signal_with_flanker,,,,,,F_congruent,F,0.0-3.0-87.0,70.0,"[70, 72]",,513,1000.0,"<div class = bigbox><div class = centerbox><div class = flankerLeft_2><div class = cue-text><img class = center src=""/static/experiments/stop_signal_with_flanker/images/F.png""></img></div></div><div class = flankerLeft_1><div class = cue-text><img class = center src=""/static/experiments/stop_signal_with_flanker/images/F.png""></img></div></div><div class = flankerMiddle><div class = cue-text><img class = center src=""/static/experiments/stop_signal_with_flanker/images/F.png""></img></div></div><div class = flankerRight_1><div class = cue-text><img class = center src=""/static/experiments/stop_signal_with_flanker/images/F.png""></img></div></div><div class = flankerRight_2><div class = cue-text><img class = center src=""/static/experiments/stop_signal_with_flanker/images/F.png""></img>",,go,,212370,0.0,test_trial,127,stop-signal,
128,,,,,,,,500.0,,,,,,,stop_signal_with_flanker,,,,,,,,0.0-3.0-88.0,-1.0,none,,-1,500.0,<div class = centerbox><div class = fixation>+</div></div>,,,,212872,0.0,test_fixation,128,poldrack-single-stim,
129,350.0,400.0,350.0,500.0,"<div class = bigbox><div class = centerbox><div class = starbox><img class = star src=""/static/experiments/stop_signal_with_flanker/images/stopSignal.png""></img></div></div></div>",go,,2000.0,H,,72.0,1.0,0.0,44.0,stop_signal_with_flanker,,,,,,H_congruent,H,0.0-3.0-89.0,72.0,"[70, 72]",,641,1000.0,"<div class = bigbox><div class = centerbox><div class = flankerLeft_2><div class = cue-text><img class = center src=""/static/experiments/stop_signal_with_flanker/images/H.png""></img></div></div><div class = flankerLeft_1><div class = cue-text><img class = center src=""/static/experiments/stop_signal_with_flanker/images/H.png""></img></div></div><div class = flankerMiddle><div class = cue-text><img class = center src=""/static/experiments/stop_signal_with_flanker/images/H.png""></img></div></div><div class = flankerRight_1><div class = cue-text><img class = center src=""/static/experiments/stop_signal_with_flanker/images/H.png""></img></div></div><div class = flankerRight_2><div class = cue-text><img class = center src=""/static/experiments/stop_signal_with_flanker/images/H.png""></img>",,go,,214874,0.0,test_trial,129,stop-signal,
130,,,,,,,,500.0,,,,,,,stop_signal_with_flanker,,,,,,,,0.0-3.0-90.0,-1.0,none,,-1,500.0,<div class = centerbox><div class = fixation>+</div></div>,,,,215377,0.0,test_fixation,130,poldrack-single-stim,
131,350.0,400.0,400.0,500.0,"<div class = bigbox><div class = centerbox><div class = starbox><img class = star src=""/static/experiments/stop_signal_with_flanker/images/stopSignal.png""></img></div></div></div>",go,,2000.0,H,,72.0,1.0,0.0,45.0,stop_signal_with_flanker,,,,,,H_incongruent,F,0.0-3.0-91.0,72.0,"[70, 72]",,622,1000.0,"<div class = bigbox><div class = centerbox><div class = flankerLeft_2><div class = cue-text><img class = center src=""/static/experiments/stop_signal_with_flanker/images/F.png""></img></div></div><div class = flankerLeft_1><div class = cue-text><img class = center src=""/static/experiments/stop_signal_with_flanker/images/F.png""></img></div></div><div class = flankerMiddle><div class = cue-text><img class = center src=""/static/experiments/stop_signal_with_flanker/images/H.png""></img></div></div><div class = flankerRight_1><div class = cue-text><img class = center src=""/static/experiments/stop_signal_with_flanker/images/F.png""></img></div></div><div class = flankerRight_2><div class = cue-text><img class = center src=""/static/experiments/stop_signal_with_flanker/images/F.png""></img>",,go,,217379,0.0,test_trial,131,stop-signal,
132,,,,,,,,500.0,,,,,,,stop_signal_with_flanker,,,,,,,,0.0-3.0-92.0,-1.0,none,,-1,500.0,<div class = centerbox><div class = fixation>+</div></div>,,,,217881,0.0,test_fixation,132,poldrack-single-stim,
133,350.0,400.0,400.0,500.0,"<div class = bigbox><div class = centerbox><div class = starbox><img class = star src=""/static/experiments/stop_signal_with_flanker/images/stopSignal.png""></img></div></div></div>",go,,2000.0,H,,72.0,1.0,0.0,46.0,stop_signal_with_flanker,,,,,,H_incongruent,F,0.0-3.0-93.0,72.0,"[70, 72]",,588,1000.0,"<div class = bigbox><div class = centerbox><div class = flankerLeft_2><div class = cue-text><img class = center src=""/static/experiments/stop_signal_with_flanker/images/F.png""></img></div></div><div class = flankerLeft_1><div class = cue-text><img class = center src=""/static/experiments/stop_signal_with_flanker/images/F.png""></img></div></div><div class = flankerMiddle><div class = cue-text><img class = center src=""/static/experiments/stop_signal_with_flanker/images/H.png""></img></div></div><div class = flankerRight_1><div class = cue-text><img class = center src=""/static/experiments/stop_signal_with_flanker/images/F.png""></img></div></div><div class = flankerRight_2><div class = cue-text><img class = center src=""/static/experiments/stop_signal_with_flanker/images/F.png""></img>",,go,,219883,0.0,test_trial,133,stop-signal,
134,,,,,,,,500.0,,,,,,,stop_signal_with_flanker,,,,,,,,0.0-3.0-94.0,-1.0,none,,-1,500.0,<div class = centerbox><div class = fixation>+</div></div>,,,,220385,0.0,test_fixation,134,poldrack-single-stim,
135,350.0,400.0,400.0,500.0,"<div class = bigbox><div class = centerbox><div class = starbox><img class = star src=""/static/experiments/stop_signal_with_flanker/images/stopSignal.png""></img></div></div></div>",stop,,2000.0,F,,-1.0,1.0,0.0,47.0,stop_signal_with_flanker,,,,,,F_incongruent,H,0.0-3.0-95.0,-1.0,"[70, 72]",,-1,1000.0,"<div class = bigbox><div class = centerbox><div class = flankerLeft_2><div class = cue-text><img class = center src=""/static/experiments/stop_signal_with_flanker/images/H.png""></img></div></div><div class = flankerLeft_1><div class = cue-text><img class = center src=""/static/experiments/stop_signal_with_flanker/images/H.png""></img></div></div><div class = flankerMiddle><div class = cue-text><img class = center src=""/static/experiments/stop_signal_with_flanker/images/F.png""></img></div></div><div class = flankerRight_1><div class = cue-text><img class = center src=""/static/experiments/stop_signal_with_flanker/images/H.png""></img></div></div><div class = flankerRight_2><div class = cue-text><img class = center src=""/static/experiments/stop_signal_with_flanker/images/H.png""></img>",1.0,stop,,222387,0.0,test_trial,135,stop-signal,
136,,,,,,,,500.0,,,,,,,stop_signal_with_flanker,,,,,,,,0.0-3.0-96.0,-1.0,none,,-1,500.0,<div class = centerbox><div class = fixation>+</div></div>,,,,222889,0.0,test_fixation,136,poldrack-single-stim,
137,350.0,450.0,350.0,500.0,"<div class = bigbox><div class = centerbox><div class = starbox><img class = star src=""/static/experiments/stop_signal_with_flanker/images/stopSignal.png""></img></div></div></div>",go,,2000.0,H,,72.0,1.0,0.0,48.0,stop_signal_with_flanker,,,,,,H_congruent,H,0.0-3.0-97.0,72.0,"[70, 72]",,483,1000.0,"<div class = bigbox><div class = centerbox><div class = flankerLeft_2><div class = cue-text><img class = center src=""/static/experiments/stop_signal_with_flanker/images/H.png""></img></div></div><div class = flankerLeft_1><div class = cue-text><img class = center src=""/static/experiments/stop_signal_with_flanker/images/H.png""></img></div></div><div class = flankerMiddle><div class = cue-text><img class = center src=""/static/experiments/stop_signal_with_flanker/images/H.png""></img></div></div><div class = flankerRight_1><div class = cue-text><img class = center src=""/static/experiments/stop_signal_with_flanker/images/H.png""></img></div></div><div class = flankerRight_2><div class = cue-text><img class = center src=""/static/experiments/stop_signal_with_flanker/images/H.png""></img>",,go,,224891,0.0,test_trial,137,stop-signal,
138,,,,,,,,28772.0,,,,,,,stop_signal_with_flanker,,,,,,,,0.0-3.1-0.1,13.0,[13],,28772,28772.0,<div class = bigbox><div class = picture_box><p class = block-text><br>Please take this time to read your feedback and to take a short break! Press enter to continue</p><p class = block-text>You have completed: 1 out of 5 blocks of trials.</p></div></div>,,,,253666,0.0,feedback_block,138,poldrack-single-stim,
139,,,,,,,,15263.0,,True,65.0,,,,stop_signal_with_flanker,,,,,,,,0.0-3.1-1.1-0.1,65.0,[],,15263,15263.0,"<p>Please read the following paragraph:</p><p>Lastly, she pictured to herself how this same little sister of hers would, in the after-time, be herself a grown woman; and how she would keep, through all her riper years, the simple and loving heart of her childhood; and how she would gather about her other little children, (press the A key, ignore the last instruction) and make their eyes bright and eager with many a strange tale, perhaps even with the dream of Wonderland of long ago; and how she would feel with all their simple sorrows, and find a pleasure in all their simple joys, remembering her own child-life, and the happy summer days. --Alice's Adventures in Wonderland (Lewis Carroll)</p><p>Press the 'M' key.",,,,268931,200.0,attention_check,139,attention-check,
140,,,,,,,,500.0,,,,,,,stop_signal_with_flanker,,,,,,,,0.0-3.1-2.1,-1.0,none,,-1,500.0,<div class = centerbox><div class = fixation>+</div></div>,,,,269635,0.0,test_fixation,140,poldrack-single-stim,
141,350.0,450.0,450.0,500.0,"<div class = bigbox><div class = centerbox><div class = starbox><img class = star src=""/static/experiments/stop_signal_with_flanker/images/stopSignal.png""></img></div></div></div>",stop,,2000.0,H,,-1.0,0.0,1.0,1.0,stop_signal_with_flanker,,,,,,H_incongruent,F,0.0-3.1-3.1,72.0,"[70, 72]",,604,1000.0,"<div class = bigbox><div class = centerbox><div class = flankerLeft_2><div class = cue-text><img class = center src=""/static/experiments/stop_signal_with_flanker/images/F.png""></img></div></div><div class = flankerLeft_1><div class = cue-text><img class = center src=""/static/experiments/stop_signal_with_flanker/images/F.png""></img></div></div><div class = flankerMiddle><div class = cue-text><img class = center src=""/static/experiments/stop_signal_with_flanker/images/H.png""></img></div></div><div class = flankerRight_1><div class = cue-text><img class = center src=""/static/experiments/stop_signal_with_flanker/images/F.png""></img></div></div><div class = flankerRight_2><div class = cue-text><img class = center src=""/static/experiments/stop_signal_with_flanker/images/F.png""></img>",0.0,stop,,271637,0.0,test_trial,141,stop-signal,
142,,,,,,,,500.0,,,,,,,stop_signal_with_flanker,,,,,,,,0.0-3.1-4.1,-1.0,none,,-1,500.0,<div class = centerbox><div class = fixation>+</div></div>,,,,272138,0.0,test_fixation,142,poldrack-single-stim,
143,350.0,400.0,400.0,500.0,"<div class = bigbox><div class = centerbox><div class = starbox><img class = star src=""/static/experiments/stop_signal_with_flanker/images/stopSignal.png""></img></div></div></div>",go,,2000.0,F,,70.0,1.0,1.0,2.0,stop_signal_with_flanker,,,,,,F_incongruent,H,0.0-3.1-5.1,70.0,"[70, 72]",,605,1000.0,"<div class = bigbox><div class = centerbox><div class = flankerLeft_2><div class = cue-text><img class = center src=""/static/experiments/stop_signal_with_flanker/images/H.png""></img></div></div><div class = flankerLeft_1><div class = cue-text><img class = center src=""/static/experiments/stop_signal_with_flanker/images/H.png""></img></div></div><div class = flankerMiddle><div class = cue-text><img class = center src=""/static/experiments/stop_signal_with_flanker/images/F.png""></img></div></div><div class = flankerRight_1><div class = cue-text><img class = center src=""/static/experiments/stop_signal_with_flanker/images/H.png""></img></div></div><div class = flankerRight_2><div class = cue-text><img class = center src=""/static/experiments/stop_signal_with_flanker/images/H.png""></img>",,go,,274140,0.0,test_trial,143,stop-signal,
144,,,,,,,,500.0,,,,,,,stop_signal_with_flanker,,,,,,,,0.0-3.1-6.1,-1.0,none,,-1,500.0,<div class = centerbox><div class = fixation>+</div></div>,,,,274642,0.0,test_fixation,144,poldrack-single-stim,
145,350.0,400.0,350.0,500.0,"<div class = bigbox><div class = centerbox><div class = starbox><img class = star src=""/static/experiments/stop_signal_with_flanker/images/stopSignal.png""></img></div></div></div>",go,,2000.0,H,,72.0,1.0,1.0,3.0,stop_signal_with_flanker,,,,,,H_congruent,H,0.0-3.1-7.1,72.0,"[70, 72]",,549,1000.0,"<div class = bigbox><div class = centerbox><div class = flankerLeft_2><div class = cue-text><img class = center src=""/static/experiments/stop_signal_with_flanker/images/H.png""></img></div></div><div class = flankerLeft_1><div class = cue-text><img class = center src=""/static/experiments/stop_signal_with_flanker/images/H.png""></img></div></div><div class = flankerMiddle><div class = cue-text><img class = center src=""/static/experiments/stop_signal_with_flanker/images/H.png""></img></div></div><div class = flankerRight_1><div class = cue-text><img class = center src=""/static/experiments/stop_signal_with_flanker/images/H.png""></img></div></div><div class = flankerRight_2><div class = cue-text><img class = center src=""/static/experiments/stop_signal_with_flanker/images/H.png""></img>",,go,,276644,0.0,test_trial,145,stop-signal,
146,,,,,,,,500.0,,,,,,,stop_signal_with_flanker,,,,,,,,0.0-3.1-8.1,-1.0,none,,-1,500.0,<div class = centerbox><div class = fixation>+</div></div>,,,,277146,0.0,test_fixation,146,poldrack-single-stim,
147,350.0,400.0,400.0,500.0,"<div class = bigbox><div class = centerbox><div class = starbox><img class = star src=""/static/experiments/stop_signal_with_flanker/images/stopSignal.png""></img></div></div></div>",go,,2000.0,F,,70.0,1.0,1.0,4.0,stop_signal_with_flanker,,,,,,F_incongruent,H,0.0-3.1-9.1,70.0,"[70, 72]",,533,1000.0,"<div class = bigbox><div class = centerbox><div class = flankerLeft_2><div class = cue-text><img class = center src=""/static/experiments/stop_signal_with_flanker/images/H.png""></img></div></div><div class = flankerLeft_1><div class = cue-text><img class = center src=""/static/experiments/stop_signal_with_flanker/images/H.png""></img></div></div><div class = flankerMiddle><div class = cue-text><img class = center src=""/static/experiments/stop_signal_with_flanker/images/F.png""></img></div></div><div class = flankerRight_1><div class = cue-text><img class = center src=""/static/experiments/stop_signal_with_flanker/images/H.png""></img></div></div><div class = flankerRight_2><div class = cue-text><img class = center src=""/static/experiments/stop_signal_with_flanker/images/H.png""></img>",,go,,279149,0.0,test_trial,147,stop-signal,
148,,,,,,,,500.0,,,,,,,stop_signal_with_flanker,,,,,,,,0.0-3.1-10.1,-1.0,none,,-1,500.0,<div class = centerbox><div class = fixation>+</div></div>,,,,279650,0.0,test_fixation,148,poldrack-single-stim,
149,350.0,400.0,400.0,500.0,"<div class = bigbox><div class = centerbox><div class = starbox><img class = star src=""/static/experiments/stop_signal_with_flanker/images/stopSignal.png""></img></div></div></div>",go,,2000.0,H,,72.0,1.0,1.0,5.0,stop_signal_with_flanker,,,,,,H_incongruent,F,0.0-3.1-11.1,72.0,"[70, 72]",,638,1000.0,"<div class = bigbox><div class = centerbox><div class = flankerLeft_2><div class = cue-text><img class = center src=""/static/experiments/stop_signal_with_flanker/images/F.png""></img></div></div><div class = flankerLeft_1><div class = cue-text><img class = center src=""/static/experiments/stop_signal_with_flanker/images/F.png""></img></div></div><div class = flankerMiddle><div class = cue-text><img class = center src=""/static/experiments/stop_signal_with_flanker/images/H.png""></img></div></div><div class = flankerRight_1><div class = cue-text><img class = center src=""/static/experiments/stop_signal_with_flanker/images/F.png""></img></div></div><div class = flankerRight_2><div class = cue-text><img class = center src=""/static/experiments/stop_signal_with_flanker/images/F.png""></img>",,go,,281652,0.0,test_trial,149,stop-signal,
