,SS_delay,SS_duration,SS_stimulus,SS_trial_type,att_check_percent,block_duration,correct,correct_response,correct_trial,current_block,current_trial,exp_id,final_accuracy,final_avg_rt,final_credit_var,final_missed_percent,final_responses_ok,go_acc,internal_node_id,key_press,possible_responses,responses,rt,stim,stim_duration,stimulus,stop_acc,stop_signal_condition,text,time_elapsed,timing_post_trial,trial_id,trial_index,trial_type,view_history
0,,,,,,4050.0,,,,,,stop_signal_single_task_network,,,,,,,0.0-0.0-0.0,13.0,[13],,4050,,4050.0,"<div class = bigbox><div class = picture_box><p class = block-text><font color=""white"">Welcome to the experiment. This experiment will take about 10 minutes. Press <i>enter</i> to begin.</font></p></div></div>",,,,4058,0.0,practice-no-stop-feedback,0,poldrack-single-stim,
1,,,,,,,,,,,,stop_signal_single_task_network,,,,,,,0.0-0.0-1.0,,,,50314,,,,,,,54380,,instruction,1,poldrack-instructions,"[{""page_index"":0,""viewing_time"":38264},{""page_index"":1,""viewing_time"":8963},{""page_index"":2,""viewing_time"":3085}]"
2,,,,,,500.0,,,,,,stop_signal_single_task_network,,,,,,,0.0-0.0-2.0,-1.0,none,,-1,,500.0,<div class = centerbox><div class = fixation>+</div></div>,,,,54889,0.0,prompt_fixation,2,poldrack-single-stim,
3,350.0,500.0,<img class = center src='/static/experiments/stop_signal_single_task_network/images/stopSignal.png'></img>,stop,,2000.0,,-1.0,0.0,0.0,1.0,stop_signal_single_task_network,,,,,,,0.0-0.0-3.0,90.0,"[90, 77]",,827,square,1000.0,<div class = bigbox><div class = centerbox><div class = gng_number><div class = cue-text><img class = center src='/static/experiments/stop_signal_single_task_network/images/square.png'></img></div>,0.0,stop,,56900,0.0,practice_trial,3,stop-signal,
4,,,,,,500.0,,,,,,stop_signal_single_task_network,,,,,,,0.0-0.0-4.0,-1.0,none,,-1,,500.0,"<div class = fb_box><div class = center-text><font size = 20>There was a star.</font></div></div><div class = prompt_box><p class = center-block-text style = ""font-size:16px; line-height:80%%;"">circle: Z key</p><p class = center-block-text style = ""font-size:16px; line-height:80%%;"">square: M key</p><p class = center-block-text style = ""font-size:16px; line-height:80%%;"">Do not respond if a star appears!</p></div>",,,,57414,0.0,practice-stop-feedback,4,poldrack-single-stim,
5,,,,,,500.0,,,,,,stop_signal_single_task_network,,,,,,,0.0-0.0-5.0,-1.0,none,,-1,,500.0,<div class = centerbox><div class = fixation>+</div></div>,,,,57922,0.0,prompt_fixation,5,poldrack-single-stim,
6,300.0,500.0,<img class = center src='/static/experiments/stop_signal_single_task_network/images/stopSignal.png'></img>,go,,2000.0,,90.0,1.0,0.0,2.0,stop_signal_single_task_network,,,,,,1.0,0.0-0.0-6.0,90.0,"[90, 77]",,884,circle,1000.0,<div class = bigbox><div class = centerbox><div class = gng_number><div class = cue-text><img class = center src='/static/experiments/stop_signal_single_task_network/images/circle.png'></img></div>,,go,,59931,0.0,practice_trial,6,stop-signal,
7,,,,,,500.0,,,,,,stop_signal_single_task_network,,,,,,,0.0-0.0-7.0,-1.0,none,,-1,,500.0,"<div class = fb_box><div class = center-text><font size = 20>Correct!</font></div></div><div class = prompt_box><p class = center-block-text style = ""font-size:16px; line-height:80%%;"">circle: Z key</p><p class = center-block-text style = ""font-size:16px; line-height:80%%;"">square: M key</p><p class = center-block-text style = ""font-size:16px; line-height:80%%;"">Do not respond if a star appears!</p></div>",,,,60443,0.0,practice-stop-feedback,7,poldrack-single-stim,
8,,,,,,500.0,,,,,,stop_signal_single_task_network,,,,,,,0.0-0.0-8.0,-1.0,none,,-1,,500.0,<div class = centerbox><div class = fixation>+</div></div>,,,,60952,0.0,prompt_fixation,8,poldrack-single-stim,
9,300.0,500.0,<img class = center src='/static/experiments/stop_signal_single_task_network/images/stopSignal.png'></img>,go,,2000.0,,77.0,1.0,0.0,3.0,stop_signal_single_task_network,,,,,,1.0,0.0-0.0-9.0,77.0,"[90, 77]",,485,square,1000.0,<div class = bigbox><div class = centerbox><div class = gng_number><div class = cue-text><img class = center src='/static/experiments/stop_signal_single_task_network/images/square.png'></img></div>,,go,,62961,0.0,practice_trial,9,stop-signal,
10,,,,,,500.0,,,,,,stop_signal_single_task_network,,,,,,,0.0-0.0-10.0,-1.0,none,,-1,,500.0,"<div class = fb_box><div class = center-text><font size = 20>Correct!</font></div></div><div class = prompt_box><p class = center-block-text style = ""font-size:16px; line-height:80%%;"">circle: Z key</p><p class = center-block-text style = ""font-size:16px; line-height:80%%;"">square: M key</p><p class = center-block-text style = ""font-size:16px; line-height:80%%;"">Do not respond if a star appears!</p></div>",,,,63476,0.0,practice-stop-feedback,10,poldrack-single-stim,
11,,,,,,500.0,,,,,,stop_signal_single_task_network,,,,,,,0.0-0.0-11.0,-1.0,none,,-1,,500.0,<div class = centerbox><div class = fixation>+</div></div>,,,,63992,0.0,prompt_fixation,11,poldrack-single-stim,
12,300.0,500.0,<img class = center src='/static/experiments/stop_signal_single_task_network/images/stopSignal.png'></img>,stop,,2000.0,,-1.0,0.0,0.0,4.0,stop_signal_single_task_network,,,,,,,0.0-0.0-12.0,77.0,"[90, 77]",,460,square,1000.0,<div class = bigbox><div class = centerbox><div class = gng_number><div class = cue-text><img class = center src='/static/experiments/stop_signal_single_task_network/images/square.png'></img></div>,0.0,stop,,66008,0.0,practice_trial,12,stop-signal,
13,,,,,,500.0,,,,,,stop_signal_single_task_network,,,,,,,0.0-0.0-13.0,-1.0,none,,-1,,500.0,"<div class = fb_box><div class = center-text><font size = 20>There was a star.</font></div></div><div class = prompt_box><p class = center-block-text style = ""font-size:16px; line-height:80%%;"">circle: Z key</p><p class = center-block-text style = ""font-size:16px; line-height:80%%;"">square: M key</p><p class = center-block-text style = ""font-size:16px; line-height:80%%;"">Do not respond if a star appears!</p></div>",,,,66521,0.0,practice-stop-feedback,13,poldrack-single-stim,
14,,,,,,500.0,,,,,,stop_signal_single_task_network,,,,,,,0.0-0.0-14.0,-1.0,none,,-1,,500.0,<div class = centerbox><div class = fixation>+</div></div>,,,,67032,0.0,prompt_fixation,14,poldrack-single-stim,
15,250.0,500.0,<img class = center src='/static/experiments/stop_signal_single_task_network/images/stopSignal.png'></img>,go,,2000.0,,90.0,1.0,0.0,5.0,stop_signal_single_task_network,,,,,,1.0,0.0-0.0-15.0,90.0,"[90, 77]",,762,circle,1000.0,<div class = bigbox><div class = centerbox><div class = gng_number><div class = cue-text><img class = center src='/static/experiments/stop_signal_single_task_network/images/circle.png'></img></div>,,go,,69048,0.0,practice_trial,15,stop-signal,
16,,,,,,500.0,,,,,,stop_signal_single_task_network,,,,,,,0.0-0.0-16.0,-1.0,none,,-1,,500.0,"<div class = fb_box><div class = center-text><font size = 20>Correct!</font></div></div><div class = prompt_box><p class = center-block-text style = ""font-size:16px; line-height:80%%;"">circle: Z key</p><p class = center-block-text style = ""font-size:16px; line-height:80%%;"">square: M key</p><p class = center-block-text style = ""font-size:16px; line-height:80%%;"">Do not respond if a star appears!</p></div>",,,,69555,0.0,practice-stop-feedback,16,poldrack-single-stim,
17,,,,,,500.0,,,,,,stop_signal_single_task_network,,,,,,,0.0-0.0-17.0,-1.0,none,,-1,,500.0,<div class = centerbox><div class = fixation>+</div></div>,,,,70068,0.0,prompt_fixation,17,poldrack-single-stim,
18,250.0,500.0,<img class = center src='/static/experiments/stop_signal_single_task_network/images/stopSignal.png'></img>,go,,2000.0,,77.0,1.0,0.0,6.0,stop_signal_single_task_network,,,,,,1.0,0.0-0.0-18.0,77.0,"[90, 77]",,835,square,1000.0,<div class = bigbox><div class = centerbox><div class = gng_number><div class = cue-text><img class = center src='/static/experiments/stop_signal_single_task_network/images/square.png'></img></div>,,go,,72084,0.0,practice_trial,18,stop-signal,
19,,,,,,500.0,,,,,,stop_signal_single_task_network,,,,,,,0.0-0.0-19.0,-1.0,none,,-1,,500.0,"<div class = fb_box><div class = center-text><font size = 20>Correct!</font></div></div><div class = prompt_box><p class = center-block-text style = ""font-size:16px; line-height:80%%;"">circle: Z key</p><p class = center-block-text style = ""font-size:16px; line-height:80%%;"">square: M key</p><p class = center-block-text style = ""font-size:16px; line-height:80%%;"">Do not respond if a star appears!</p></div>",,,,72596,0.0,practice-stop-feedback,19,poldrack-single-stim,
20,,,,,,500.0,,,,,,stop_signal_single_task_network,,,,,,,0.0-0.0-20.0,-1.0,none,,-1,,500.0,<div class = centerbox><div class = fixation>+</div></div>,,,,73105,0.0,prompt_fixation,20,poldrack-single-stim,
21,250.0,500.0,<img class = center src='/static/experiments/stop_signal_single_task_network/images/stopSignal.png'></img>,stop,,2000.0,,-1.0,1.0,0.0,7.0,stop_signal_single_task_network,,,,,,,0.0-0.0-21.0,-1.0,"[90, 77]",,-1,square,1000.0,<div class = bigbox><div class = centerbox><div class = gng_number><div class = cue-text><img class = center src='/static/experiments/stop_signal_single_task_network/images/square.png'></img></div>,1.0,stop,,75111,0.0,practice_trial,21,stop-signal,
22,,,,,,500.0,,,,,,stop_signal_single_task_network,,,,,,,0.0-0.0-22.0,-1.0,none,,-1,,500.0,"<div class = fb_box><div class = center-text><font size = 20>Correct!</font></div></div><div class = prompt_box><p class = center-block-text style = ""font-size:16px; line-height:80%%;"">circle: Z key</p><p class = center-block-text style = ""font-size:16px; line-height:80%%;"">square: M key</p><p class = center-block-text style = ""font-size:16px; line-height:80%%;"">Do not respond if a star appears!</p></div>",,,,75616,0.0,practice-stop-feedback,22,poldrack-single-stim,
23,,,,,,500.0,,,,,,stop_signal_single_task_network,,,,,,,0.0-0.0-23.0,-1.0,none,,-1,,500.0,<div class = centerbox><div class = fixation>+</div></div>,,,,76125,0.0,prompt_fixation,23,poldrack-single-stim,
24,300.0,500.0,<img class = center src='/static/experiments/stop_signal_single_task_network/images/stopSignal.png'></img>,stop,,2000.0,,-1.0,1.0,0.0,8.0,stop_signal_single_task_network,,,,,,,0.0-0.0-24.0,-1.0,"[90, 77]",,-1,circle,1000.0,<div class = bigbox><div class = centerbox><div class = gng_number><div class = cue-text><img class = center src='/static/experiments/stop_signal_single_task_network/images/circle.png'></img></div>,1.0,stop,,78131,0.0,practice_trial,24,stop-signal,
25,,,,,,500.0,,,,,,stop_signal_single_task_network,,,,,,,0.0-0.0-25.0,-1.0,none,,-1,,500.0,"<div class = fb_box><div class = center-text><font size = 20>Correct!</font></div></div><div class = prompt_box><p class = center-block-text style = ""font-size:16px; line-height:80%%;"">circle: Z key</p><p class = center-block-text style = ""font-size:16px; line-height:80%%;"">square: M key</p><p class = center-block-text style = ""font-size:16px; line-height:80%%;"">Do not respond if a star appears!</p></div>",,,,78643,0.0,practice-stop-feedback,25,poldrack-single-stim,
26,,,,,,500.0,,,,,,stop_signal_single_task_network,,,,,,,0.0-0.0-26.0,-1.0,none,,-1,,500.0,<div class = centerbox><div class = fixation>+</div></div>,,,,79149,0.0,prompt_fixation,26,poldrack-single-stim,
27,350.0,500.0,<img class = center src='/static/experiments/stop_signal_single_task_network/images/stopSignal.png'></img>,stop,,2000.0,,-1.0,1.0,0.0,9.0,stop_signal_single_task_network,,,,,,,0.0-0.0-27.0,-1.0,"[90, 77]",,-1,circle,1000.0,<div class = bigbox><div class = centerbox><div class = gng_number><div class = cue-text><img class = center src='/static/experiments/stop_signal_single_task_network/images/circle.png'></img></div>,1.0,stop,,81159,0.0,practice_trial,27,stop-signal,
28,,,,,,500.0,,,,,,stop_signal_single_task_network,,,,,,,0.0-0.0-28.0,-1.0,none,,-1,,500.0,"<div class = fb_box><div class = center-text><font size = 20>Correct!</font></div></div><div class = prompt_box><p class = center-block-text style = ""font-size:16px; line-height:80%%;"">circle: Z key</p><p class = center-block-text style = ""font-size:16px; line-height:80%%;"">square: M key</p><p class = center-block-text style = ""font-size:16px; line-height:80%%;"">Do not respond if a star appears!</p></div>",,,,81670,0.0,practice-stop-feedback,28,poldrack-single-stim,
29,,,,,,500.0,,,,,,stop_signal_single_task_network,,,,,,,0.0-0.0-29.0,-1.0,none,,-1,,500.0,<div class = centerbox><div class = fixation>+</div></div>,,,,82183,0.0,prompt_fixation,29,poldrack-single-stim,
30,400.0,500.0,<img class = center src='/static/experiments/stop_signal_single_task_network/images/stopSignal.png'></img>,stop,,2000.0,,-1.0,0.0,0.0,10.0,stop_signal_single_task_network,,,,,,,0.0-0.0-30.0,90.0,"[90, 77]",,610,circle,1000.0,<div class = bigbox><div class = centerbox><div class = gng_number><div class = cue-text><img class = center src='/static/experiments/stop_signal_single_task_network/images/circle.png'></img></div>,0.0,stop,,84192,0.0,practice_trial,30,stop-signal,
31,,,,,,500.0,,,,,,stop_signal_single_task_network,,,,,,,0.0-0.0-31.0,-1.0,none,,-1,,500.0,"<div class = fb_box><div class = center-text><font size = 20>There was a star.</font></div></div><div class = prompt_box><p class = center-block-text style = ""font-size:16px; line-height:80%%;"">circle: Z key</p><p class = center-block-text style = ""font-size:16px; line-height:80%%;"">square: M key</p><p class = center-block-text style = ""font-size:16px; line-height:80%%;"">Do not respond if a star appears!</p></div>",,,,84703,0.0,practice-stop-feedback,31,poldrack-single-stim,
32,,,,,,500.0,,,,,,stop_signal_single_task_network,,,,,,,0.0-0.0-32.0,-1.0,none,,-1,,500.0,<div class = centerbox><div class = fixation>+</div></div>,,,,85218,0.0,prompt_fixation,32,poldrack-single-stim,
33,350.0,500.0,<img class = center src='/static/experiments/stop_signal_single_task_network/images/stopSignal.png'></img>,stop,,2000.0,,-1.0,1.0,0.0,11.0,stop_signal_single_task_network,,,,,,,0.0-0.0-33.0,-1.0,"[90, 77]",,-1,circle,1000.0,<div class = bigbox><div class = centerbox><div class = gng_number><div class = cue-text><img class = center src='/static/experiments/stop_signal_single_task_network/images/circle.png'></img></div>,1.0,stop,,87222,0.0,practice_trial,33,stop-signal,
34,,,,,,500.0,,,,,,stop_signal_single_task_network,,,,,,,0.0-0.0-34.0,-1.0,none,,-1,,500.0,"<div class = fb_box><div class = center-text><font size = 20>Correct!</font></div></div><div class = prompt_box><p class = center-block-text style = ""font-size:16px; line-height:80%%;"">circle: Z key</p><p class = center-block-text style = ""font-size:16px; line-height:80%%;"">square: M key</p><p class = center-block-text style = ""font-size:16px; line-height:80%%;"">Do not respond if a star appears!</p></div>",,,,87740,0.0,practice-stop-feedback,34,poldrack-single-stim,
35,,,,,,500.0,,,,,,stop_signal_single_task_network,,,,,,,0.0-0.0-35.0,-1.0,none,,-1,,500.0,<div class = centerbox><div class = fixation>+</div></div>,,,,88251,0.0,prompt_fixation,35,poldrack-single-stim,
36,400.0,500.0,<img class = center src='/static/experiments/stop_signal_single_task_network/images/stopSignal.png'></img>,stop,,2000.0,,-1.0,1.0,0.0,12.0,stop_signal_single_task_network,,,,,,,0.0-0.0-36.0,-1.0,"[90, 77]",,-1,square,1000.0,<div class = bigbox><div class = centerbox><div class = gng_number><div class = cue-text><img class = center src='/static/experiments/stop_signal_single_task_network/images/square.png'></img></div>,1.0,stop,,90259,0.0,practice_trial,36,stop-signal,
37,,,,,,500.0,,,,,,stop_signal_single_task_network,,,,,,,0.0-0.0-37.0,-1.0,none,,-1,,500.0,"<div class = fb_box><div class = center-text><font size = 20>Correct!</font></div></div><div class = prompt_box><p class = center-block-text style = ""font-size:16px; line-height:80%%;"">circle: Z key</p><p class = center-block-text style = ""font-size:16px; line-height:80%%;"">square: M key</p><p class = center-block-text style = ""font-size:16px; line-height:80%%;"">Do not respond if a star appears!</p></div>",,,,90769,0.0,practice-stop-feedback,37,poldrack-single-stim,
38,,,,,,500.0,,,,,,stop_signal_single_task_network,,,,,,,0.0-0.0-38.0,-1.0,none,,-1,,500.0,<div class = centerbox><div class = fixation>+</div></div>,,,,91284,0.0,prompt_fixation,38,poldrack-single-stim,
39,450.0,500.0,<img class = center src='/static/experiments/stop_signal_single_task_network/images/stopSignal.png'></img>,go,,2000.0,,77.0,1.0,0.0,13.0,stop_signal_single_task_network,,,,,,1.0,0.0-0.0-39.0,77.0,"[90, 77]",,606,square,1000.0,<div class = bigbox><div class = centerbox><div class = gng_number><div class = cue-text><img class = center src='/static/experiments/stop_signal_single_task_network/images/square.png'></img></div>,,go,,93298,0.0,practice_trial,39,stop-signal,
40,,,,,,500.0,,,,,,stop_signal_single_task_network,,,,,,,0.0-0.0-40.0,-1.0,none,,-1,,500.0,"<div class = fb_box><div class = center-text><font size = 20>Correct!</font></div></div><div class = prompt_box><p class = center-block-text style = ""font-size:16px; line-height:80%%;"">circle: Z key</p><p class = center-block-text style = ""font-size:16px; line-height:80%%;"">square: M key</p><p class = center-block-text style = ""font-size:16px; line-height:80%%;"">Do not respond if a star appears!</p></div>",,,,93810,0.0,practice-stop-feedback,40,poldrack-single-stim,
41,,,,,,500.0,,,,,,stop_signal_single_task_network,,,,,,,0.0-0.0-41.0,-1.0,none,,-1,,500.0,<div class = centerbox><div class = fixation>+</div></div>,,,,94318,0.0,prompt_fixation,41,poldrack-single-stim,
42,450.0,500.0,<img class = center src='/static/experiments/stop_signal_single_task_network/images/stopSignal.png'></img>,go,,2000.0,,77.0,1.0,0.0,14.0,stop_signal_single_task_network,,,,,,1.0,0.0-0.0-42.0,77.0,"[90, 77]",,764,square,1000.0,<div class = bigbox><div class = centerbox><div class = gng_number><div class = cue-text><img class = center src='/static/experiments/stop_signal_single_task_network/images/square.png'></img></div>,,go,,96331,0.0,practice_trial,42,stop-signal,
43,,,,,,500.0,,,,,,stop_signal_single_task_network,,,,,,,0.0-0.0-43.0,-1.0,none,,-1,,500.0,"<div class = fb_box><div class = center-text><font size = 20>Correct!</font></div></div><div class = prompt_box><p class = center-block-text style = ""font-size:16px; line-height:80%%;"">circle: Z key</p><p class = center-block-text style = ""font-size:16px; line-height:80%%;"">square: M key</p><p class = center-block-text style = ""font-size:16px; line-height:80%%;"">Do not respond if a star appears!</p></div>",,,,96838,0.0,practice-stop-feedback,43,poldrack-single-stim,
44,,,,,,500.0,,,,,,stop_signal_single_task_network,,,,,,,0.0-0.0-44.0,-1.0,none,,-1,,500.0,<div class = centerbox><div class = fixation>+</div></div>,,,,97347,0.0,prompt_fixation,44,poldrack-single-stim,
45,450.0,500.0,<img class = center src='/static/experiments/stop_signal_single_task_network/images/stopSignal.png'></img>,stop,,2000.0,,-1.0,1.0,0.0,15.0,stop_signal_single_task_network,,,,,,,0.0-0.0-45.0,-1.0,"[90, 77]",,-1,square,1000.0,<div class = bigbox><div class = centerbox><div class = gng_number><div class = cue-text><img class = center src='/static/experiments/stop_signal_single_task_network/images/square.png'></img></div>,1.0,stop,,99359,0.0,practice_trial,45,stop-signal,
46,,,,,,500.0,,,,,,stop_signal_single_task_network,,,,,,,0.0-0.0-46.0,-1.0,none,,-1,,500.0,"<div class = fb_box><div class = center-text><font size = 20>Correct!</font></div></div><div class = prompt_box><p class = center-block-text style = ""font-size:16px; line-height:80%%;"">circle: Z key</p><p class = center-block-text style = ""font-size:16px; line-height:80%%;"">square: M key</p><p class = center-block-text style = ""font-size:16px; line-height:80%%;"">Do not respond if a star appears!</p></div>",,,,99871,0.0,practice-stop-feedback,46,poldrack-single-stim,
47,,,,,,500.0,,,,,,stop_signal_single_task_network,,,,,,,0.0-0.0-47.0,-1.0,none,,-1,,500.0,<div class = centerbox><div class = fixation>+</div></div>,,,,100380,0.0,prompt_fixation,47,poldrack-single-stim,
48,500.0,500.0,<img class = center src='/static/experiments/stop_signal_single_task_network/images/stopSignal.png'></img>,go,,2000.0,,90.0,1.0,0.0,16.0,stop_signal_single_task_network,,,,,,1.0,0.0-0.0-48.0,90.0,"[90, 77]",,766,circle,1000.0,<div class = bigbox><div class = centerbox><div class = gng_number><div class = cue-text><img class = center src='/static/experiments/stop_signal_single_task_network/images/circle.png'></img></div>,,go,,102399,0.0,practice_trial,48,stop-signal,
49,,,,,,500.0,,,,,,stop_signal_single_task_network,,,,,,,0.0-0.0-49.0,-1.0,none,,-1,,500.0,"<div class = fb_box><div class = center-text><font size = 20>Correct!</font></div></div><div class = prompt_box><p class = center-block-text style = ""font-size:16px; line-height:80%%;"">circle: Z key</p><p class = center-block-text style = ""font-size:16px; line-height:80%%;"">square: M key</p><p class = center-block-text style = ""font-size:16px; line-height:80%%;"">Do not respond if a star appears!</p></div>",,,,102915,0.0,practice-stop-feedback,49,poldrack-single-stim,
50,,,,,,500.0,,,,,,stop_signal_single_task_network,,,,,,,0.0-0.0-50.0,-1.0,none,,-1,,500.0,<div class = centerbox><div class = fixation>+</div></div>,,,,103425,0.0,prompt_fixation,50,poldrack-single-stim,
51,500.0,500.0,<img class = center src='/static/experiments/stop_signal_single_task_network/images/stopSignal.png'></img>,go,,2000.0,,90.0,1.0,0.0,17.0,stop_signal_single_task_network,,,,,,1.0,0.0-0.0-51.0,90.0,"[90, 77]",,780,circle,1000.0,<div class = bigbox><div class = centerbox><div class = gng_number><div class = cue-text><img class = center src='/static/experiments/stop_signal_single_task_network/images/circle.png'></img></div>,,go,,105449,0.0,practice_trial,51,stop-signal,
52,,,,,,500.0,,,,,,stop_signal_single_task_network,,,,,,,0.0-0.0-52.0,-1.0,none,,-1,,500.0,"<div class = fb_box><div class = center-text><font size = 20>Correct!</font></div></div><div class = prompt_box><p class = center-block-text style = ""font-size:16px; line-height:80%%;"">circle: Z key</p><p class = center-block-text style = ""font-size:16px; line-height:80%%;"">square: M key</p><p class = center-block-text style = ""font-size:16px; line-height:80%%;"">Do not respond if a star appears!</p></div>",,,,105967,0.0,practice-stop-feedback,52,poldrack-single-stim,
53,,,,,,500.0,,,,,,stop_signal_single_task_network,,,,,,,0.0-0.0-53.0,-1.0,none,,-1,,500.0,<div class = centerbox><div class = fixation>+</div></div>,,,,106482,0.0,prompt_fixation,53,poldrack-single-stim,
54,500.0,500.0,<img class = center src='/static/experiments/stop_signal_single_task_network/images/stopSignal.png'></img>,stop,,2000.0,,-1.0,1.0,0.0,18.0,stop_signal_single_task_network,,,,,,,0.0-0.0-54.0,-1.0,"[90, 77]",,-1,circle,1000.0,<div class = bigbox><div class = centerbox><div class = gng_number><div class = cue-text><img class = center src='/static/experiments/stop_signal_single_task_network/images/circle.png'></img></div>,1.0,stop,,108491,0.0,practice_trial,54,stop-signal,
55,,,,,,500.0,,,,,,stop_signal_single_task_network,,,,,,,0.0-0.0-55.0,-1.0,none,,-1,,500.0,"<div class = fb_box><div class = center-text><font size = 20>Correct!</font></div></div><div class = prompt_box><p class = center-block-text style = ""font-size:16px; line-height:80%%;"">circle: Z key</p><p class = center-block-text style = ""font-size:16px; line-height:80%%;"">square: M key</p><p class = center-block-text style = ""font-size:16px; line-height:80%%;"">Do not respond if a star appears!</p></div>",,,,109003,0.0,practice-stop-feedback,55,poldrack-single-stim,
56,,,,,,500.0,,,,,,stop_signal_single_task_network,,,,,,,0.0-0.0-56.0,-1.0,none,,-1,,500.0,<div class = centerbox><div class = fixation>+</div></div>,,,,109519,0.0,prompt_fixation,56,poldrack-single-stim,
57,550.0,500.0,<img class = center src='/static/experiments/stop_signal_single_task_network/images/stopSignal.png'></img>,go,,2000.0,,90.0,1.0,0.0,19.0,stop_signal_single_task_network,,,,,,1.0,0.0-0.0-57.0,90.0,"[90, 77]",,744,circle,1000.0,<div class = bigbox><div class = centerbox><div class = gng_number><div class = cue-text><img class = center src='/static/experiments/stop_signal_single_task_network/images/circle.png'></img></div>,,go,,111536,0.0,practice_trial,57,stop-signal,
58,,,,,,500.0,,,,,,stop_signal_single_task_network,,,,,,,0.0-0.0-58.0,-1.0,none,,-1,,500.0,"<div class = fb_box><div class = center-text><font size = 20>Correct!</font></div></div><div class = prompt_box><p class = center-block-text style = ""font-size:16px; line-height:80%%;"">circle: Z key</p><p class = center-block-text style = ""font-size:16px; line-height:80%%;"">square: M key</p><p class = center-block-text style = ""font-size:16px; line-height:80%%;"">Do not respond if a star appears!</p></div>",,,,112052,0.0,practice-stop-feedback,58,poldrack-single-stim,
59,,,,,,500.0,,,,,,stop_signal_single_task_network,,,,,,,0.0-0.0-59.0,-1.0,none,,-1,,500.0,<div class = centerbox><div class = fixation>+</div></div>,,,,112559,0.0,prompt_fixation,59,poldrack-single-stim,
60,550.0,500.0,<img class = center src='/static/experiments/stop_signal_single_task_network/images/stopSignal.png'></img>,stop,,2000.0,,-1.0,0.0,0.0,20.0,stop_signal_single_task_network,,,,,,,0.0-0.0-60.0,77.0,"[90, 77]",,743,square,1000.0,<div class = bigbox><div class = centerbox><div class = gng_number><div class = cue-text><img class = center src='/static/experiments/stop_signal_single_task_network/images/square.png'></img></div>,0.0,stop,,114565,0.0,practice_trial,60,stop-signal,
61,,,,,,500.0,,,,,,stop_signal_single_task_network,,,,,,,0.0-0.0-61.0,-1.0,none,,-1,,500.0,"<div class = fb_box><div class = center-text><font size = 20>There was a star.</font></div></div><div class = prompt_box><p class = center-block-text style = ""font-size:16px; line-height:80%%;"">circle: Z key</p><p class = center-block-text style = ""font-size:16px; line-height:80%%;"">square: M key</p><p class = center-block-text style = ""font-size:16px; line-height:80%%;"">Do not respond if a star appears!</p></div>",,,,115075,0.0,practice-stop-feedback,61,poldrack-single-stim,
62,,,,,,500.0,,,,,,stop_signal_single_task_network,,,,,,,0.0-0.0-62.0,-1.0,none,,-1,,500.0,<div class = centerbox><div class = fixation>+</div></div>,,,,115596,0.0,prompt_fixation,62,poldrack-single-stim,
63,500.0,500.0,<img class = center src='/static/experiments/stop_signal_single_task_network/images/stopSignal.png'></img>,stop,,2000.0,,-1.0,1.0,0.0,21.0,stop_signal_single_task_network,,,,,,,0.0-0.0-63.0,-1.0,"[90, 77]",,-1,square,1000.0,<div class = bigbox><div class = centerbox><div class = gng_number><div class = cue-text><img class = center src='/static/experiments/stop_signal_single_task_network/images/square.png'></img></div>,1.0,stop,,117622,0.0,practice_trial,63,stop-signal,
64,,,,,,500.0,,,,,,stop_signal_single_task_network,,,,,,,0.0-0.0-64.0,-1.0,none,,-1,,500.0,"<div class = fb_box><div class = center-text><font size = 20>Correct!</font></div></div><div class = prompt_box><p class = center-block-text style = ""font-size:16px; line-height:80%%;"">circle: Z key</p><p class = center-block-text style = ""font-size:16px; line-height:80%%;"">square: M key</p><p class = center-block-text style = ""font-size:16px; line-height:80%%;"">Do not respond if a star appears!</p></div>",,,,118140,0.0,practice-stop-feedback,64,poldrack-single-stim,
65,,,,,,500.0,,,,,,stop_signal_single_task_network,,,,,,,0.0-0.0-65.0,-1.0,none,,-1,,500.0,<div class = centerbox><div class = fixation>+</div></div>,,,,118651,0.0,prompt_fixation,65,poldrack-single-stim,
66,550.0,500.0,<img class = center src='/static/experiments/stop_signal_single_task_network/images/stopSignal.png'></img>,go,,2000.0,,77.0,1.0,0.0,22.0,stop_signal_single_task_network,,,,,,1.0,0.0-0.0-66.0,77.0,"[90, 77]",,997,square,1000.0,<div class = bigbox><div class = centerbox><div class = gng_number><div class = cue-text><img class = center src='/static/experiments/stop_signal_single_task_network/images/square.png'></img></div>,,go,,120666,0.0,practice_trial,66,stop-signal,
67,,,,,,500.0,,,,,,stop_signal_single_task_network,,,,,,,0.0-0.0-67.0,-1.0,none,,-1,,500.0,"<div class = fb_box><div class = center-text><font size = 20>Correct!</font></div></div><div class = prompt_box><p class = center-block-text style = ""font-size:16px; line-height:80%%;"">circle: Z key</p><p class = center-block-text style = ""font-size:16px; line-height:80%%;"">square: M key</p><p class = center-block-text style = ""font-size:16px; line-height:80%%;"">Do not respond if a star appears!</p></div>",,,,121207,0.0,practice-stop-feedback,67,poldrack-single-stim,
68,,,,,,500.0,,,,,,stop_signal_single_task_network,,,,,,,0.0-0.0-68.0,-1.0,none,,-1,,500.0,<div class = centerbox><div class = fixation>+</div></div>,,,,121715,0.0,prompt_fixation,68,poldrack-single-stim,
69,550.0,500.0,<img class = center src='/static/experiments/stop_signal_single_task_network/images/stopSignal.png'></img>,go,,2000.0,,90.0,1.0,0.0,23.0,stop_signal_single_task_network,,,,,,1.0,0.0-0.0-69.0,90.0,"[90, 77]",,1208,circle,1000.0,<div class = bigbox><div class = centerbox><div class = gng_number><div class = cue-text><img class = center src='/static/experiments/stop_signal_single_task_network/images/circle.png'></img></div>,,go,,123733,0.0,practice_trial,69,stop-signal,
70,,,,,,500.0,,,,,,stop_signal_single_task_network,,,,,,,0.0-0.0-70.0,-1.0,none,,-1,,500.0,"<div class = fb_box><div class = center-text><font size = 20>Correct!</font></div></div><div class = prompt_box><p class = center-block-text style = ""font-size:16px; line-height:80%%;"">circle: Z key</p><p class = center-block-text style = ""font-size:16px; line-height:80%%;"">square: M key</p><p class = center-block-text style = ""font-size:16px; line-height:80%%;"">Do not respond if a star appears!</p></div>",,,,124248,0.0,practice-stop-feedback,70,poldrack-single-stim,
71,,,,,,500.0,,,,,,stop_signal_single_task_network,,,,,,,0.0-0.0-71.0,-1.0,none,,-1,,500.0,<div class = centerbox><div class = fixation>+</div></div>,,,,124757,0.0,prompt_fixation,71,poldrack-single-stim,
72,550.0,500.0,<img class = center src='/static/experiments/stop_signal_single_task_network/images/stopSignal.png'></img>,go,,2000.0,,77.0,1.0,0.0,24.0,stop_signal_single_task_network,,,,,,1.0,0.0-0.0-72.0,77.0,"[90, 77]",,903,square,1000.0,<div class = bigbox><div class = centerbox><div class = gng_number><div class = cue-text><img class = center src='/static/experiments/stop_signal_single_task_network/images/square.png'></img></div>,,go,,126773,0.0,practice_trial,72,stop-signal,
73,,,,,,500.0,,,,,,stop_signal_single_task_network,,,,,,,0.0-0.0-73.0,-1.0,none,,-1,,500.0,"<div class = fb_box><div class = center-text><font size = 20>Correct!</font></div></div><div class = prompt_box><p class = center-block-text style = ""font-size:16px; line-height:80%%;"">circle: Z key</p><p class = center-block-text style = ""font-size:16px; line-height:80%%;"">square: M key</p><p class = center-block-text style = ""font-size:16px; line-height:80%%;"">Do not respond if a star appears!</p></div>",,,,127286,0.0,practice-stop-feedback,73,poldrack-single-stim,
74,,,,,,4384.0,,,,,,stop_signal_single_task_network,,,,,,,0.0-1.0,13.0,[13],,4384,,4384.0,"<div class = bigbox><div class = picture_box><p class = block-text><font color=""white""><br>Please take this time to read your feedback and to take a short break. Press enter to continue.</p><p class = block-text>Done with this practice.</font></p></div></div>",,,,131687,0.0,practice-no-stop-feedback,74,poldrack-single-stim,
75,,,,,,59713.0,,,,,,stop_signal_single_task_network,,,,,,,0.0-2.0,13.0,[13],,59713,,59713.0,"<div class = centerbox><p class = block-text>We will now begin the test portion.</p><p class = block-text>You will see a shape on every trial. Please respond to each shape as quickly and accurately as possible!</p><p class = block-text>If the shape is a circle, press the Z key.</p><p class = block-text>If the shape is a square, press the M key.</p><p class = block-text>Do not respond if you see a star.</p><p class = block-text>You will no longer receive the rule prompt, so remember the instructions before you continue. Press Enter to begin.</p></div>",,,,191405,0.0,test_intro,75,poldrack-single-stim,
76,,,,,,3368.0,,,,,,stop_signal_single_task_network,,,,,,,0.0-3.0-0.0,13.0,[13],,3368,,3368.0,"<div class = bigbox><div class = picture_box><p class = block-text><font color=""white"">We will now start the test session. Please concentrate on responding quickly and accurately to each stimulus. Press Enter to begin.</font></p></div></div>",,,,194780,0.0,practice-no-stop-feedback,76,poldrack-single-stim,
77,,,,,,5367.0,False,54.0,,,,stop_signal_single_task_network,,,,,,,0.0-3.0-1.0-0.0,52.0,[],,5367,,5367.0,<p>Press the number corresponding to the number of sides that a cube has.<p>,,,,200162,200.0,attention_check,77,attention-check,
78,,,,,,500.0,,,,,,stop_signal_single_task_network,,,,,,,0.0-3.0-2.0,-1.0,none,,-1,,500.0,<div class = centerbox><div class = fixation>+</div></div>,,,,200873,0.0,fixation,78,poldrack-single-stim,
79,550.0,500.0,<img class = center src='/static/experiments/stop_signal_single_task_network/images/stopSignal.png'></img>,go,,2000.0,,90.0,1.0,0.0,1.0,stop_signal_single_task_network,,,,,,1.0,0.0-3.0-3.0,90.0,"[90, 77]",,1175,circle,1000.0,<div class = bigbox><div class = centerbox><div class = gng_number><div class = cue-text><img class = center src='/static/experiments/stop_signal_single_task_network/images/circle.png'></img></div>,,go,,202879,0.0,test_trial,79,stop-signal,
80,,,,,,500.0,,,,,,stop_signal_single_task_network,,,,,,,0.0-3.0-4.0,-1.0,none,,-1,,500.0,<div class = centerbox><div class = fixation>+</div></div>,,,,203387,0.0,fixation,80,poldrack-single-stim,
81,550.0,500.0,<img class = center src='/static/experiments/stop_signal_single_task_network/images/stopSignal.png'></img>,go,,2000.0,,90.0,1.0,0.0,2.0,stop_signal_single_task_network,,,,,,1.0,0.0-3.0-5.0,90.0,"[90, 77]",,593,circle,1000.0,<div class = bigbox><div class = centerbox><div class = gng_number><div class = cue-text><img class = center src='/static/experiments/stop_signal_single_task_network/images/circle.png'></img></div>,,go,,205419,0.0,test_trial,81,stop-signal,
82,,,,,,500.0,,,,,,stop_signal_single_task_network,,,,,,,0.0-3.0-6.0,-1.0,none,,-1,,500.0,<div class = centerbox><div class = fixation>+</div></div>,,,,205930,0.0,fixation,82,poldrack-single-stim,
83,550.0,500.0,<img class = center src='/static/experiments/stop_signal_single_task_network/images/stopSignal.png'></img>,stop,,2000.0,,-1.0,0.0,0.0,3.0,stop_signal_single_task_network,,,,,,,0.0-3.0-7.0,90.0,"[90, 77]",,771,circle,1000.0,<div class = bigbox><div class = centerbox><div class = gng_number><div class = cue-text><img class = center src='/static/experiments/stop_signal_single_task_network/images/circle.png'></img></div>,0.0,stop,,207940,0.0,test_trial,83,stop-signal,
84,,,,,,500.0,,,,,,stop_signal_single_task_network,,,,,,,0.0-3.0-8.0,-1.0,none,,-1,,500.0,<div class = centerbox><div class = fixation>+</div></div>,,,,208445,0.0,fixation,84,poldrack-single-stim,
85,500.0,500.0,<img class = center src='/static/experiments/stop_signal_single_task_network/images/stopSignal.png'></img>,go,,2000.0,,77.0,1.0,0.0,4.0,stop_signal_single_task_network,,,,,,1.0,0.0-3.0-9.0,77.0,"[90, 77]",,724,square,1000.0,<div class = bigbox><div class = centerbox><div class = gng_number><div class = cue-text><img class = center src='/static/experiments/stop_signal_single_task_network/images/square.png'></img></div>,,go,,210451,0.0,test_trial,85,stop-signal,
86,,,,,,500.0,,,,,,stop_signal_single_task_network,,,,,,,0.0-3.0-10.0,-1.0,none,,-1,,500.0,<div class = centerbox><div class = fixation>+</div></div>,,,,210967,0.0,fixation,86,poldrack-single-stim,
87,500.0,500.0,<img class = center src='/static/experiments/stop_signal_single_task_network/images/stopSignal.png'></img>,go,,2000.0,,90.0,1.0,0.0,5.0,stop_signal_single_task_network,,,,,,1.0,0.0-3.0-11.0,90.0,"[90, 77]",,744,circle,1000.0,<div class = bigbox><div class = centerbox><div class = gng_number><div class = cue-text><img class = center src='/static/experiments/stop_signal_single_task_network/images/circle.png'></img></div>,,go,,212974,0.0,test_trial,87,stop-signal,
88,,,,,,500.0,,,,,,stop_signal_single_task_network,,,,,,,0.0-3.0-12.0,-1.0,none,,-1,,500.0,<div class = centerbox><div class = fixation>+</div></div>,,,,213479,0.0,fixation,88,poldrack-single-stim,
89,500.0,500.0,<img class = center src='/static/experiments/stop_signal_single_task_network/images/stopSignal.png'></img>,stop,,2000.0,,-1.0,1.0,0.0,6.0,stop_signal_single_task_network,,,,,,,0.0-3.0-13.0,-1.0,"[90, 77]",,-1,circle,1000.0,<div class = bigbox><div class = centerbox><div class = gng_number><div class = cue-text><img class = center src='/static/experiments/stop_signal_single_task_network/images/circle.png'></img></div>,1.0,stop,,215484,0.0,test_trial,89,stop-signal,
90,,,,,,500.0,,,,,,stop_signal_single_task_network,,,,,,,0.0-3.0-14.0,-1.0,none,,-1,,500.0,<div class = centerbox><div class = fixation>+</div></div>,,,,215992,0.0,fixation,90,poldrack-single-stim,
91,550.0,500.0,<img class = center src='/static/experiments/stop_signal_single_task_network/images/stopSignal.png'></img>,go,,2000.0,,77.0,1.0,0.0,7.0,stop_signal_single_task_network,,,,,,1.0,0.0-3.0-15.0,77.0,"[90, 77]",,625,square,1000.0,<div class = bigbox><div class = centerbox><div class = gng_number><div class = cue-text><img class = center src='/static/experiments/stop_signal_single_task_network/images/square.png'></img></div>,,go,,218000,0.0,test_trial,91,stop-signal,
92,,,,,,500.0,,,,,,stop_signal_single_task_network,,,,,,,0.0-3.0-16.0,-1.0,none,,-1,,500.0,<div class = centerbox><div class = fixation>+</div></div>,,,,218504,0.0,fixation,92,poldrack-single-stim,
93,550.0,500.0,<img class = center src='/static/experiments/stop_signal_single_task_network/images/stopSignal.png'></img>,go,,2000.0,,77.0,1.0,0.0,8.0,stop_signal_single_task_network,,,,,,1.0,0.0-3.0-17.0,77.0,"[90, 77]",,683,square,1000.0,<div class = bigbox><div class = centerbox><div class = gng_number><div class = cue-text><img class = center src='/static/experiments/stop_signal_single_task_network/images/square.png'></img></div>,,go,,220511,0.0,test_trial,93,stop-signal,
94,,,,,,500.0,,,,,,stop_signal_single_task_network,,,,,,,0.0-3.0-18.0,-1.0,none,,-1,,500.0,<div class = centerbox><div class = fixation>+</div></div>,,,,221021,0.0,fixation,94,poldrack-single-stim,
95,550.0,500.0,<img class = center src='/static/experiments/stop_signal_single_task_network/images/stopSignal.png'></img>,go,,2000.0,,77.0,1.0,0.0,9.0,stop_signal_single_task_network,,,,,,1.0,0.0-3.0-19.0,77.0,"[90, 77]",,838,square,1000.0,<div class = bigbox><div class = centerbox><div class = gng_number><div class = cue-text><img class = center src='/static/experiments/stop_signal_single_task_network/images/square.png'></img></div>,,go,,223031,0.0,test_trial,95,stop-signal,
96,,,,,,500.0,,,,,,stop_signal_single_task_network,,,,,,,0.0-3.0-20.0,-1.0,none,,-1,,500.0,<div class = centerbox><div class = fixation>+</div></div>,,,,223539,0.0,fixation,96,poldrack-single-stim,
97,550.0,500.0,<img class = center src='/static/experiments/stop_signal_single_task_network/images/stopSignal.png'></img>,stop,,2000.0,,-1.0,0.0,0.0,10.0,stop_signal_single_task_network,,,,,,,0.0-3.0-21.0,90.0,"[90, 77]",,718,circle,1000.0,<div class = bigbox><div class = centerbox><div class = gng_number><div class = cue-text><img class = center src='/static/experiments/stop_signal_single_task_network/images/circle.png'></img></div>,0.0,stop,,225557,0.0,test_trial,97,stop-signal,
98,,,,,,500.0,,,,,,stop_signal_single_task_network,,,,,,,0.0-3.0-22.0,-1.0,none,,-1,,500.0,<div class = centerbox><div class = fixation>+</div></div>,,,,226084,0.0,fixation,98,poldrack-single-stim,
99,500.0,500.0,<img class = center src='/static/experiments/stop_signal_single_task_network/images/stopSignal.png'></img>,go,,2000.0,,90.0,1.0,0.0,11.0,stop_signal_single_task_network,,,,,,1.0,0.0-3.0-23.0,90.0,"[90, 77]",,810,circle,1000.0,<div class = bigbox><div class = centerbox><div class = gng_number><div class = cue-text><img class = center src='/static/experiments/stop_signal_single_task_network/images/circle.png'></img></div>,,go,,228089,0.0,test_trial,99,stop-signal,
100,,,,,,500.0,,,,,,stop_signal_single_task_network,,,,,,,0.0-3.0-24.0,-1.0,none,,-1,,500.0,<div class = centerbox><div class = fixation>+</div></div>,,,,228597,0.0,fixation,100,poldrack-single-stim,
101,500.0,500.0,<img class = center src='/static/experiments/stop_signal_single_task_network/images/stopSignal.png'></img>,go,,2000.0,,77.0,1.0,0.0,12.0,stop_signal_single_task_network,,,,,,1.0,0.0-3.0-25.0,77.0,"[90, 77]",,723,square,1000.0,<div class = bigbox><div class = centerbox><div class = gng_number><div class = cue-text><img class = center src='/static/experiments/stop_signal_single_task_network/images/square.png'></img></div>,,go,,230614,0.0,test_trial,101,stop-signal,
102,,,,,,500.0,,,,,,stop_signal_single_task_network,,,,,,,0.0-3.0-26.0,-1.0,none,,-1,,500.0,<div class = centerbox><div class = fixation>+</div></div>,,,,231128,0.0,fixation,102,poldrack-single-stim,
103,500.0,500.0,<img class = center src='/static/experiments/stop_signal_single_task_network/images/stopSignal.png'></img>,go,,2000.0,,77.0,1.0,0.0,13.0,stop_signal_single_task_network,,,,,,1.0,0.0-3.0-27.0,77.0,"[90, 77]",,907,square,1000.0,<div class = bigbox><div class = centerbox><div class = gng_number><div class = cue-text><img class = center src='/static/experiments/stop_signal_single_task_network/images/square.png'></img></div>,,go,,233143,0.0,test_trial,103,stop-signal,
104,,,,,,500.0,,,,,,stop_signal_single_task_network,,,,,,,0.0-3.0-28.0,-1.0,none,,-1,,500.0,<div class = centerbox><div class = fixation>+</div></div>,,,,233659,0.0,fixation,104,poldrack-single-stim,
105,500.0,500.0,<img class = center src='/static/experiments/stop_signal_single_task_network/images/stopSignal.png'></img>,go,,2000.0,,90.0,1.0,0.0,14.0,stop_signal_single_task_network,,,,,,1.0,0.0-3.0-29.0,90.0,"[90, 77]",,755,circle,1000.0,<div class = bigbox><div class = centerbox><div class = gng_number><div class = cue-text><img class = center src='/static/experiments/stop_signal_single_task_network/images/circle.png'></img></div>,,go,,235676,0.0,test_trial,105,stop-signal,
106,,,,,,500.0,,,,,,stop_signal_single_task_network,,,,,,,0.0-3.0-30.0,-1.0,none,,-1,,500.0,<div class = centerbox><div class = fixation>+</div></div>,,,,236196,0.0,fixation,106,poldrack-single-stim,
107,500.0,500.0,<img class = center src='/static/experiments/stop_signal_single_task_network/images/stopSignal.png'></img>,go,,2000.0,,77.0,1.0,0.0,15.0,stop_signal_single_task_network,,,,,,1.0,0.0-3.0-31.0,77.0,"[90, 77]",,825,square,1000.0,<div class = bigbox><div class = centerbox><div class = gng_number><div class = cue-text><img class = center src='/static/experiments/stop_signal_single_task_network/images/square.png'></img></div>,,go,,238206,0.0,test_trial,107,stop-signal,
108,,,,,,500.0,,,,,,stop_signal_single_task_network,,,,,,,0.0-3.0-32.0,-1.0,none,,-1,,500.0,<div class = centerbox><div class = fixation>+</div></div>,,,,238714,0.0,fixation,108,poldrack-single-stim,
109,500.0,500.0,<img class = center src='/static/experiments/stop_signal_single_task_network/images/stopSignal.png'></img>,stop,,2000.0,,-1.0,0.0,0.0,16.0,stop_signal_single_task_network,,,,,,,0.0-3.0-33.0,90.0,"[90, 77]",,690,circle,1000.0,<div class = bigbox><div class = centerbox><div class = gng_number><div class = cue-text><img class = center src='/static/experiments/stop_signal_single_task_network/images/circle.png'></img></div>,0.0,stop,,240736,0.0,test_trial,109,stop-signal,
110,,,,,,500.0,,,,,,stop_signal_single_task_network,,,,,,,0.0-3.0-34.0,-1.0,none,,-1,,500.0,<div class = centerbox><div class = fixation>+</div></div>,,,,241251,0.0,fixation,110,poldrack-single-stim,
111,450.0,500.0,<img class = center src='/static/experiments/stop_signal_single_task_network/images/stopSignal.png'></img>,go,,2000.0,,77.0,1.0,0.0,17.0,stop_signal_single_task_network,,,,,,1.0,0.0-3.0-35.0,77.0,"[90, 77]",,923,square,1000.0,<div class = bigbox><div class = centerbox><div class = gng_number><div class = cue-text><img class = center src='/static/experiments/stop_signal_single_task_network/images/square.png'></img></div>,,go,,243265,0.0,test_trial,111,stop-signal,
112,,,,,,500.0,,,,,,stop_signal_single_task_network,,,,,,,0.0-3.0-36.0,-1.0,none,,-1,,500.0,<div class = centerbox><div class = fixation>+</div></div>,,,,243799,0.0,fixation,112,poldrack-single-stim,
113,450.0,500.0,<img class = center src='/static/experiments/stop_signal_single_task_network/images/stopSignal.png'></img>,go,,2000.0,,77.0,1.0,0.0,18.0,stop_signal_single_task_network,,,,,,1.0,0.0-3.0-37.0,77.0,"[90, 77]",,635,square,1000.0,<div class = bigbox><div class = centerbox><div class = gng_number><div class = cue-text><img class = center src='/static/experiments/stop_signal_single_task_network/images/square.png'></img></div>,,go,,245803,0.0,test_trial,113,stop-signal,
114,,,,,,500.0,,,,,,stop_signal_single_task_network,,,,,,,0.0-3.0-38.0,-1.0,none,,-1,,500.0,<div class = centerbox><div class = fixation>+</div></div>,,,,246312,0.0,fixation,114,poldrack-single-stim,
115,450.0,500.0,<img class = center src='/static/experiments/stop_signal_single_task_network/images/stopSignal.png'></img>,stop,,2000.0,,-1.0,0.0,0.0,19.0,stop_signal_single_task_network,,,,,,,0.0-3.0-39.0,77.0,"[90, 77]",,499,square,1000.0,<div class = bigbox><div class = centerbox><div class = gng_number><div class = cue-text><img class = center src='/static/experiments/stop_signal_single_task_network/images/square.png'></img></div>,0.0,stop,,248321,0.0,test_trial,115,stop-signal,
116,,,,,,500.0,,,,,,stop_signal_single_task_network,,,,,,,0.0-3.0-40.0,-1.0,none,,-1,,500.0,<div class = centerbox><div class = fixation>+</div></div>,,,,248826,0.0,fixation,116,poldrack-single-stim,
117,400.0,500.0,<img class = center src='/static/experiments/stop_signal_single_task_network/images/stopSignal.png'></img>,go,,2000.0,,90.0,1.0,0.0,20.0,stop_signal_single_task_network,,,,,,1.0,0.0-3.0-41.0,90.0,"[90, 77]",,788,circle,1000.0,<div class = bigbox><div class = centerbox><div class = gng_number><div class = cue-text><img class = center src='/static/experiments/stop_signal_single_task_network/images/circle.png'></img></div>,,go,,250830,0.0,test_trial,117,stop-signal,
118,,,,,,500.0,,,,,,stop_signal_single_task_network,,,,,,,0.0-3.0-42.0,-1.0,none,,-1,,500.0,<div class = centerbox><div class = fixation>+</div></div>,,,,251335,0.0,fixation,118,poldrack-single-stim,
119,400.0,500.0,<img class = center src='/static/experiments/stop_signal_single_task_network/images/stopSignal.png'></img>,go,,2000.0,,90.0,1.0,0.0,21.0,stop_signal_single_task_network,,,,,,1.0,0.0-3.0-43.0,90.0,"[90, 77]",,876,circle,1000.0,<div class = bigbox><div class = centerbox><div class = gng_number><div class = cue-text><img class = center src='/static/experiments/stop_signal_single_task_network/images/circle.png'></img></div>,,go,,253340,0.0,test_trial,119,stop-signal,
120,,,,,,500.0,,,,,,stop_signal_single_task_network,,,,,,,0.0-3.0-44.0,-1.0,none,,-1,,500.0,<div class = centerbox><div class = fixation>+</div></div>,,,,253850,0.0,fixation,120,poldrack-single-stim,
121,400.0,500.0,<img class = center src='/static/experiments/stop_signal_single_task_network/images/stopSignal.png'></img>,stop,,2000.0,,-1.0,1.0,0.0,22.0,stop_signal_single_task_network,,,,,,,0.0-3.0-45.0,-1.0,"[90, 77]",,-1,square,1000.0,<div class = bigbox><div class = centerbox><div class = gng_number><div class = cue-text><img class = center src='/static/experiments/stop_signal_single_task_network/images/square.png'></img></div>,1.0,stop,,255856,0.0,test_trial,121,stop-signal,
122,,,,,,500.0,,,,,,stop_signal_single_task_network,,,,,,,0.0-3.0-46.0,-1.0,none,,-1,,500.0,<div class = centerbox><div class = fixation>+</div></div>,,,,256368,0.0,fixation,122,poldrack-single-stim,
123,450.0,500.0,<img class = center src='/static/experiments/stop_signal_single_task_network/images/stopSignal.png'></img>,stop,,2000.0,,-1.0,1.0,0.0,23.0,stop_signal_single_task_network,,,,,,,0.0-3.0-47.0,-1.0,"[90, 77]",,-1,square,1000.0,<div class = bigbox><div class = centerbox><div class = gng_number><div class = cue-text><img class = center src='/static/experiments/stop_signal_single_task_network/images/square.png'></img></div>,1.0,stop,,258379,0.0,test_trial,123,stop-signal,
124,,,,,,500.0,,,,,,stop_signal_single_task_network,,,,,,,0.0-3.0-48.0,-1.0,none,,-1,,500.0,<div class = centerbox><div class = fixation>+</div></div>,,,,258884,0.0,fixation,124,poldrack-single-stim,
125,500.0,500.0,<img class = center src='/static/experiments/stop_signal_single_task_network/images/stopSignal.png'></img>,stop,,2000.0,,-1.0,1.0,0.0,24.0,stop_signal_single_task_network,,,,,,,0.0-3.0-49.0,-1.0,"[90, 77]",,-1,square,1000.0,<div class = bigbox><div class = centerbox><div class = gng_number><div class = cue-text><img class = center src='/static/experiments/stop_signal_single_task_network/images/square.png'></img></div>,1.0,stop,,260890,0.0,test_trial,125,stop-signal,
126,,,,,,500.0,,,,,,stop_signal_single_task_network,,,,,,,0.0-3.0-50.0,-1.0,none,,-1,,500.0,<div class = centerbox><div class = fixation>+</div></div>,,,,261401,0.0,fixation,126,poldrack-single-stim,
127,550.0,500.0,<img class = center src='/static/experiments/stop_signal_single_task_network/images/stopSignal.png'></img>,go,,2000.0,,77.0,1.0,0.0,25.0,stop_signal_single_task_network,,,,,,1.0,0.0-3.0-51.0,77.0,"[90, 77]",,717,square,1000.0,<div class = bigbox><div class = centerbox><div class = gng_number><div class = cue-text><img class = center src='/static/experiments/stop_signal_single_task_network/images/square.png'></img></div>,,go,,263413,0.0,test_trial,127,stop-signal,
128,,,,,,500.0,,,,,,stop_signal_single_task_network,,,,,,,0.0-3.0-52.0,-1.0,none,,-1,,500.0,<div class = centerbox><div class = fixation>+</div></div>,,,,263926,0.0,fixation,128,poldrack-single-stim,
129,550.0,500.0,<img class = center src='/static/experiments/stop_signal_single_task_network/images/stopSignal.png'></img>,go,,2000.0,,90.0,1.0,0.0,26.0,stop_signal_single_task_network,,,,,,1.0,0.0-3.0-53.0,90.0,"[90, 77]",,894,circle,1000.0,<div class = bigbox><div class = centerbox><div class = gng_number><div class = cue-text><img class = center src='/static/experiments/stop_signal_single_task_network/images/circle.png'></img></div>,,go,,265941,0.0,test_trial,129,stop-signal,
130,,,,,,500.0,,,,,,stop_signal_single_task_network,,,,,,,0.0-3.0-54.0,-1.0,none,,-1,,500.0,<div class = centerbox><div class = fixation>+</div></div>,,,,266452,0.0,fixation,130,poldrack-single-stim,
131,550.0,500.0,<img class = center src='/static/experiments/stop_signal_single_task_network/images/stopSignal.png'></img>,go,,2000.0,,90.0,1.0,0.0,27.0,stop_signal_single_task_network,,,,,,1.0,0.0-3.0-55.0,90.0,"[90, 77]",,977,circle,1000.0,<div class = bigbox><div class = centerbox><div class = gng_number><div class = cue-text><img class = center src='/static/experiments/stop_signal_single_task_network/images/circle.png'></img></div>,,go,,268458,0.0,test_trial,131,stop-signal,
132,,,,,,500.0,,,,,,stop_signal_single_task_network,,,,,,,0.0-3.0-56.0,-1.0,none,,-1,,500.0,<div class = centerbox><div class = fixation>+</div></div>,,,,268963,0.0,fixation,132,poldrack-single-stim,
133,550.0,500.0,<img class = center src='/static/experiments/stop_signal_single_task_network/images/stopSignal.png'></img>,go,,2000.0,,90.0,1.0,0.0,28.0,stop_signal_single_task_network,,,,,,1.0,0.0-3.0-57.0,90.0,"[90, 77]",,675,circle,1000.0,<div class = bigbox><div class = centerbox><div class = gng_number><div class = cue-text><img class = center src='/static/experiments/stop_signal_single_task_network/images/circle.png'></img></div>,,go,,270969,0.0,test_trial,133,stop-signal,
134,,,,,,500.0,,,,,,stop_signal_single_task_network,,,,,,,0.0-3.0-58.0,-1.0,none,,-1,,500.0,<div class = centerbox><div class = fixation>+</div></div>,,,,271475,0.0,fixation,134,poldrack-single-stim,
135,550.0,500.0,<img class = center src='/static/experiments/stop_signal_single_task_network/images/stopSignal.png'></img>,go,,2000.0,,77.0,1.0,0.0,29.0,stop_signal_single_task_network,,,,,,1.0,0.0-3.0-59.0,77.0,"[90, 77]",,737,square,1000.0,<div class = bigbox><div class = centerbox><div class = gng_number><div class = cue-text><img class = center src='/static/experiments/stop_signal_single_task_network/images/square.png'></img></div>,,go,,273483,0.0,test_trial,135,stop-signal,
136,,,,,,500.0,,,,,,stop_signal_single_task_network,,,,,,,0.0-3.0-60.0,-1.0,none,,-1,,500.0,<div class = centerbox><div class = fixation>+</div></div>,,,,273999,0.0,fixation,136,poldrack-single-stim,
137,550.0,500.0,<img class = center src='/static/experiments/stop_signal_single_task_network/images/stopSignal.png'></img>,go,,2000.0,,77.0,1.0,0.0,30.0,stop_signal_single_task_network,,,,,,1.0,0.0-3.0-61.0,77.0,"[90, 77]",,755,square,1000.0,<div class = bigbox><div class = centerbox><div class = gng_number><div class = cue-text><img class = center src='/static/experiments/stop_signal_single_task_network/images/square.png'></img></div>,,go,,276016,0.0,test_trial,137,stop-signal,
138,,,,,,500.0,,,,,,stop_signal_single_task_network,,,,,,,0.0-3.0-62.0,-1.0,none,,-1,,500.0,<div class = centerbox><div class = fixation>+</div></div>,,,,276524,0.0,fixation,138,poldrack-single-stim,
139,550.0,500.0,<img class = center src='/static/experiments/stop_signal_single_task_network/images/stopSignal.png'></img>,go,,2000.0,,77.0,1.0,0.0,31.0,stop_signal_single_task_network,,,,,,1.0,0.0-3.0-63.0,77.0,"[90, 77]",,711,square,1000.0,<div class = bigbox><div class = centerbox><div class = gng_number><div class = cue-text><img class = center src='/static/experiments/stop_signal_single_task_network/images/square.png'></img></div>,,go,,278532,0.0,test_trial,139,stop-signal,
140,,,,,,500.0,,,,,,stop_signal_single_task_network,,,,,,,0.0-3.0-64.0,-1.0,none,,-1,,500.0,<div class = centerbox><div class = fixation>+</div></div>,,,,279047,0.0,fixation,140,poldrack-single-stim,
141,550.0,500.0,<img class = center src='/static/experiments/stop_signal_single_task_network/images/stopSignal.png'></img>,go,,2000.0,,77.0,1.0,0.0,32.0,stop_signal_single_task_network,,,,,,1.0,0.0-3.0-65.0,77.0,"[90, 77]",,739,square,1000.0,<div class = bigbox><div class = centerbox><div class = gng_number><div class = cue-text><img class = center src='/static/experiments/stop_signal_single_task_network/images/square.png'></img></div>,,go,,281064,0.0,test_trial,141,stop-signal,
142,,,,,,500.0,,,,,,stop_signal_single_task_network,,,,,,,0.0-3.0-66.0,-1.0,none,,-1,,500.0,<div class = centerbox><div class = fixation>+</div></div>,,,,281593,0.0,fixation,142,poldrack-single-stim,
143,550.0,500.0,<img class = center src='/static/experiments/stop_signal_single_task_network/images/stopSignal.png'></img>,go,,2000.0,,90.0,1.0,0.0,33.0,stop_signal_single_task_network,,,,,,1.0,0.0-3.0-67.0,90.0,"[90, 77]",,672,circle,1000.0,<div class = bigbox><div class = centerbox><div class = gng_number><div class = cue-text><img class = center src='/static/experiments/stop_signal_single_task_network/images/circle.png'></img></div>,,go,,283616,0.0,test_trial,143,stop-signal,
144,,,,,,500.0,,,,,,stop_signal_single_task_network,,,,,,,0.0-3.0-68.0,-1.0,none,,-1,,500.0,<div class = centerbox><div class = fixation>+</div></div>,,,,284123,0.0,fixation,144,poldrack-single-stim,
145,550.0,500.0,<img class = center src='/static/experiments/stop_signal_single_task_network/images/stopSignal.png'></img>,stop,,2000.0,,-1.0,0.0,0.0,34.0,stop_signal_single_task_network,,,,,,,0.0-3.0-69.0,90.0,"[90, 77]",,722,circle,1000.0,<div class = bigbox><div class = centerbox><div class = gng_number><div class = cue-text><img class = center src='/static/experiments/stop_signal_single_task_network/images/circle.png'></img></div>,0.0,stop,,286128,0.0,test_trial,145,stop-signal,
146,,,,,,500.0,,,,,,stop_signal_single_task_network,,,,,,,0.0-3.0-70.0,-1.0,none,,-1,,500.0,<div class = centerbox><div class = fixation>+</div></div>,,,,286636,0.0,fixation,146,poldrack-single-stim,
147,500.0,500.0,<img class = center src='/static/experiments/stop_signal_single_task_network/images/stopSignal.png'></img>,go,,2000.0,,77.0,1.0,0.0,35.0,stop_signal_single_task_network,,,,,,1.0,0.0-3.0-71.0,77.0,"[90, 77]",,771,square,1000.0,<div class = bigbox><div class = centerbox><div class = gng_number><div class = cue-text><img class = center src='/static/experiments/stop_signal_single_task_network/images/square.png'></img></div>,,go,,288649,0.0,test_trial,147,stop-signal,
148,,,,,,500.0,,,,,,stop_signal_single_task_network,,,,,,,0.0-3.0-72.0,-1.0,none,,-1,,500.0,<div class = centerbox><div class = fixation>+</div></div>,,,,289157,0.0,fixation,148,poldrack-single-stim,
149,500.0,500.0,<img class = center src='/static/experiments/stop_signal_single_task_network/images/stopSignal.png'></img>,go,,2000.0,,77.0,1.0,0.0,36.0,stop_signal_single_task_network,,,,,,1.0,0.0-3.0-73.0,77.0,"[90, 77]",,757,square,1000.0,<div class = bigbox><div class = centerbox><div class = gng_number><div class = cue-text><img class = center src='/static/experiments/stop_signal_single_task_network/images/square.png'></img></div>,,go,,291163,0.0,test_trial,149,stop-signal,
150,,,,,,500.0,,,,,,stop_signal_single_task_network,,,,,,,0.0-3.0-74.0,-1.0,none,,-1,,500.0,<div class = centerbox><div class = fixation>+</div></div>,,,,291682,0.0,fixation,150,poldrack-single-stim,
151,500.0,500.0,<img class = center src='/static/experiments/stop_signal_single_task_network/images/stopSignal.png'></img>,stop,,2000.0,,-1.0,1.0,0.0,37.0,stop_signal_single_task_network,,,,,,,0.0-3.0-75.0,-1.0,"[90, 77]",,-1,square,1000.0,<div class = bigbox><div class = centerbox><div class = gng_number><div class = cue-text><img class = center src='/static/experiments/stop_signal_single_task_network/images/square.png'></img></div>,1.0,stop,,293708,0.0,test_trial,151,stop-signal,
152,,,,,,500.0,,,,,,stop_signal_single_task_network,,,,,,,0.0-3.0-76.0,-1.0,none,,-1,,500.0,<div class = centerbox><div class = fixation>+</div></div>,,,,294224,0.0,fixation,152,poldrack-single-stim,
153,550.0,500.0,<img class = center src='/static/experiments/stop_signal_single_task_network/images/stopSignal.png'></img>,stop,,2000.0,,-1.0,0.0,0.0,38.0,stop_signal_single_task_network,,,,,,,0.0-3.0-77.0,90.0,"[90, 77]",,614,circle,1000.0,<div class = bigbox><div class = centerbox><div class = gng_number><div class = cue-text><img class = center src='/static/experiments/stop_signal_single_task_network/images/circle.png'></img></div>,0.0,stop,,296241,0.0,test_trial,153,stop-signal,
154,,,,,,500.0,,,,,,stop_signal_single_task_network,,,,,,,0.0-3.0-78.0,-1.0,none,,-1,,500.0,<div class = centerbox><div class = fixation>+</div></div>,,,,296746,0.0,fixation,154,poldrack-single-stim,
155,500.0,500.0,<img class = center src='/static/experiments/stop_signal_single_task_network/images/stopSignal.png'></img>,go,,2000.0,,90.0,1.0,0.0,39.0,stop_signal_single_task_network,,,,,,1.0,0.0-3.0-79.0,90.0,"[90, 77]",,975,circle,1000.0,<div class = bigbox><div class = centerbox><div class = gng_number><div class = cue-text><img class = center src='/static/experiments/stop_signal_single_task_network/images/circle.png'></img></div>,,go,,298754,0.0,test_trial,155,stop-signal,
156,,,,,,500.0,,,,,,stop_signal_single_task_network,,,,,,,0.0-3.0-80.0,-1.0,none,,-1,,500.0,<div class = centerbox><div class = fixation>+</div></div>,,,,299272,0.0,fixation,156,poldrack-single-stim,
157,500.0,500.0,<img class = center src='/static/experiments/stop_signal_single_task_network/images/stopSignal.png'></img>,stop,,2000.0,,-1.0,1.0,0.0,40.0,stop_signal_single_task_network,,,,,,,0.0-3.0-81.0,-1.0,"[90, 77]",,-1,circle,1000.0,<div class = bigbox><div class = centerbox><div class = gng_number><div class = cue-text><img class = center src='/static/experiments/stop_signal_single_task_network/images/circle.png'></img></div>,1.0,stop,,301284,0.0,test_trial,157,stop-signal,
158,,,,,,500.0,,,,,,stop_signal_single_task_network,,,,,,,0.0-3.0-82.0,-1.0,none,,-1,,500.0,<div class = centerbox><div class = fixation>+</div></div>,,,,301800,0.0,fixation,158,poldrack-single-stim,
159,550.0,500.0,<img class = center src='/static/experiments/stop_signal_single_task_network/images/stopSignal.png'></img>,go,,2000.0,,90.0,1.0,0.0,41.0,stop_signal_single_task_network,,,,,,1.0,0.0-3.0-83.0,90.0,"[90, 77]",,854,circle,1000.0,<div class = bigbox><div class = centerbox><div class = gng_number><div class = cue-text><img class = center src='/static/experiments/stop_signal_single_task_network/images/circle.png'></img></div>,,go,,303804,0.0,test_trial,159,stop-signal,
160,,,,,,500.0,,,,,,stop_signal_single_task_network,,,,,,,0.0-3.0-84.0,-1.0,none,,-1,,500.0,<div class = centerbox><div class = fixation>+</div></div>,,,,304312,0.0,fixation,160,poldrack-single-stim,
161,550.0,500.0,<img class = center src='/static/experiments/stop_signal_single_task_network/images/stopSignal.png'></img>,go,,2000.0,,90.0,1.0,0.0,42.0,stop_signal_single_task_network,,,,,,1.0,0.0-3.0-85.0,90.0,"[90, 77]",,1042,circle,1000.0,<div class = bigbox><div class = centerbox><div class = gng_number><div class = cue-text><img class = center src='/static/experiments/stop_signal_single_task_network/images/circle.png'></img></div>,,go,,306321,0.0,test_trial,161,stop-signal,
162,,,,,,500.0,,,,,,stop_signal_single_task_network,,,,,,,0.0-3.0-86.0,-1.0,none,,-1,,500.0,<div class = centerbox><div class = fixation>+</div></div>,,,,306827,0.0,fixation,162,poldrack-single-stim,
163,550.0,500.0,<img class = center src='/static/experiments/stop_signal_single_task_network/images/stopSignal.png'></img>,go,,2000.0,,90.0,1.0,0.0,43.0,stop_signal_single_task_network,,,,,,1.0,0.0-3.0-87.0,90.0,"[90, 77]",,913,circle,1000.0,<div class = bigbox><div class = centerbox><div class = gng_number><div class = cue-text><img class = center src='/static/experiments/stop_signal_single_task_network/images/circle.png'></img></div>,,go,,308831,0.0,test_trial,163,stop-signal,
164,,,,,,500.0,,,,,,stop_signal_single_task_network,,,,,,,0.0-3.0-88.0,-1.0,none,,-1,,500.0,<div class = centerbox><div class = fixation>+</div></div>,,,,309344,0.0,fixation,164,poldrack-single-stim,
165,550.0,500.0,<img class = center src='/static/experiments/stop_signal_single_task_network/images/stopSignal.png'></img>,stop,,2000.0,,-1.0,1.0,0.0,44.0,stop_signal_single_task_network,,,,,,,0.0-3.0-89.0,-1.0,"[90, 77]",,-1,square,1000.0,<div class = bigbox><div class = centerbox><div class = gng_number><div class = cue-text><img class = center src='/static/experiments/stop_signal_single_task_network/images/square.png'></img></div>,1.0,stop,,311356,0.0,test_trial,165,stop-signal,
166,,,,,,500.0,,,,,,stop_signal_single_task_network,,,,,,,0.0-3.0-90.0,-1.0,none,,-1,,500.0,<div class = centerbox><div class = fixation>+</div></div>,,,,311871,0.0,fixation,166,poldrack-single-stim,
167,600.0,500.0,<img class = center src='/static/experiments/stop_signal_single_task_network/images/stopSignal.png'></img>,stop,,2000.0,,-1.0,1.0,0.0,45.0,stop_signal_single_task_network,,,,,,,0.0-3.0-91.0,-1.0,"[90, 77]",,-1,circle,1000.0,<div class = bigbox><div class = centerbox><div class = gng_number><div class = cue-text><img class = center src='/static/experiments/stop_signal_single_task_network/images/circle.png'></img></div>,1.0,stop,,313875,0.0,test_trial,167,stop-signal,
168,,,,,,500.0,,,,,,stop_signal_single_task_network,,,,,,,0.0-3.0-92.0,-1.0,none,,-1,,500.0,<div class = centerbox><div class = fixation>+</div></div>,,,,314385,0.0,fixation,168,poldrack-single-stim,
169,650.0,500.0,<img class = center src='/static/experiments/stop_signal_single_task_network/images/stopSignal.png'></img>,go,,2000.0,,90.0,1.0,0.0,46.0,stop_signal_single_task_network,,,,,,1.0,0.0-3.0-93.0,90.0,"[90, 77]",,864,circle,1000.0,<div class = bigbox><div class = centerbox><div class = gng_number><div class = cue-text><img class = center src='/static/experiments/stop_signal_single_task_network/images/circle.png'></img></div>,,go,,316399,0.0,test_trial,169,stop-signal,
170,,,,,,500.0,,,,,,stop_signal_single_task_network,,,,,,,0.0-3.0-94.0,-1.0,none,,-1,,500.0,<div class = centerbox><div class = fixation>+</div></div>,,,,316910,0.0,fixation,170,poldrack-single-stim,
171,650.0,500.0,<img class = center src='/static/experiments/stop_signal_single_task_network/images/stopSignal.png'></img>,stop,,2000.0,,-1.0,1.0,0.0,47.0,stop_signal_single_task_network,,,,,,,0.0-3.0-95.0,-1.0,"[90, 77]",,-1,square,1000.0,<div class = bigbox><div class = centerbox><div class = gng_number><div class = cue-text><img class = center src='/static/experiments/stop_signal_single_task_network/images/square.png'></img></div>,1.0,stop,,318919,0.0,test_trial,171,stop-signal,
172,,,,,,500.0,,,,,,stop_signal_single_task_network,,,,,,,0.0-3.0-96.0,-1.0,none,,-1,,500.0,<div class = centerbox><div class = fixation>+</div></div>,,,,319427,0.0,fixation,172,poldrack-single-stim,
173,700.0,500.0,<img class = center src='/static/experiments/stop_signal_single_task_network/images/stopSignal.png'></img>,stop,,2000.0,,-1.0,0.0,0.0,48.0,stop_signal_single_task_network,,,,,,,0.0-3.0-97.0,77.0,"[90, 77]",,893,square,1000.0,<div class = bigbox><div class = centerbox><div class = gng_number><div class = cue-text><img class = center src='/static/experiments/stop_signal_single_task_network/images/square.png'></img></div>,0.0,stop,,321442,0.0,test_trial,173,stop-signal,
174,,,,,,1653.0,,,,,,stop_signal_single_task_network,,,,,,,0.0-3.1-0.1,13.0,[13],,1653,,1653.0,"<div class = bigbox><div class = picture_box><p class = block-text><font color=""white""><br>Please take this time to read your feedback and to take a short break. Press enter to continue.</p><p class = block-text>You have completed: 1 out of 3 blocks of trials.</font></p></div></div>",,,,323126,0.0,practice-no-stop-feedback,174,poldrack-single-stim,
175,,,,,,20015.0,True,187.0,,,,stop_signal_single_task_network,,,,,,,0.0-3.1-1.1-0.1,187.0,[],,20015,,20015.0,"<p>Press the key that indicates ""equals"" or ""equality"" when you press it, and ""plus"" or ""addition"" if you are holding the shift-key when you press it. <p>",,,,343149,200.0,attention_check,175,attention-check,
176,,,,,,500.0,,,,,,stop_signal_single_task_network,,,,,,,0.0-3.1-2.1,-1.0,none,,-1,,500.0,<div class = centerbox><div class = fixation>+</div></div>,,,,343856,0.0,fixation,176,poldrack-single-stim,
177,650.0,500.0,<img class = center src='/static/experiments/stop_signal_single_task_network/images/stopSignal.png'></img>,go,,2000.0,,90.0,1.0,1.0,1.0,stop_signal_single_task_network,,,,,,1.0,0.0-3.1-3.1,90.0,"[90, 77]",,938,circle,1000.0,<div class = bigbox><div class = centerbox><div class = gng_number><div class = cue-text><img class = center src='/static/experiments/stop_signal_single_task_network/images/circle.png'></img></div>,,go,,345859,0.0,test_trial,177,stop-signal,
178,,,,,,500.0,,,,,,stop_signal_single_task_network,,,,,,,0.0-3.1-4.1,-1.0,none,,-1,,500.0,<div class = centerbox><div class = fixation>+</div></div>,,,,346369,0.0,fixation,178,poldrack-single-stim,
179,650.0,500.0,<img class = center src='/static/experiments/stop_signal_single_task_network/images/stopSignal.png'></img>,stop,,2000.0,,-1.0,1.0,1.0,2.0,stop_signal_single_task_network,,,,,,,0.0-3.1-5.1,-1.0,"[90, 77]",,-1,square,1000.0,<div class = bigbox><div class = centerbox><div class = gng_number><div class = cue-text><img class = center src='/static/experiments/stop_signal_single_task_network/images/square.png'></img></div>,1.0,stop,,348392,0.0,test_trial,179,stop-signal,
180,,,,,,500.0,,,,,,stop_signal_single_task_network,,,,,,,0.0-3.1-6.1,-1.0,none,,-1,,500.0,<div class = centerbox><div class = fixation>+</div></div>,,,,348905,0.0,fixation,180,poldrack-single-stim,
181,700.0,500.0,<img class = center src='/static/experiments/stop_signal_single_task_network/images/stopSignal.png'></img>,stop,,2000.0,,-1.0,1.0,1.0,3.0,stop_signal_single_task_network,,,,,,,0.0-3.1-7.1,-1.0,"[90, 77]",,-1,square,1000.0,<div class = bigbox><div class = centerbox><div class = gng_number><div class = cue-text><img class = center src='/static/experiments/stop_signal_single_task_network/images/square.png'></img></div>,1.0,stop,,350918,0.0,test_trial,181,stop-signal,
182,,,,,,500.0,,,,,,stop_signal_single_task_network,,,,,,,0.0-3.1-8.1,-1.0,none,,-1,,500.0,<div class = centerbox><div class = fixation>+</div></div>,,,,351434,0.0,fixation,182,poldrack-single-stim,
183,750.0,500.0,<img class = center src='/static/experiments/stop_signal_single_task_network/images/stopSignal.png'></img>,stop,,2000.0,,-1.0,0.0,1.0,4.0,stop_signal_single_task_network,,,,,,,0.0-3.1-9.1,90.0,"[90, 77]",,831,circle,1000.0,<div class = bigbox><div class = centerbox><div class = gng_number><div class = cue-text><img class = center src='/static/experiments/stop_signal_single_task_network/images/circle.png'></img></div>,0.0,stop,,353444,0.0,test_trial,183,stop-signal,
184,,,,,,500.0,,,,,,stop_signal_single_task_network,,,,,,,0.0-3.1-10.1,-1.0,none,,-1,,500.0,<div class = centerbox><div class = fixation>+</div></div>,,,,353949,0.0,fixation,184,poldrack-single-stim,
185,700.0,500.0,<img class = center src='/static/experiments/stop_signal_single_task_network/images/stopSignal.png'></img>,go,,2000.0,,77.0,1.0,1.0,5.0,stop_signal_single_task_network,,,,,,1.0,0.0-3.1-11.1,77.0,"[90, 77]",,888,square,1000.0,<div class = bigbox><div class = centerbox><div class = gng_number><div class = cue-text><img class = center src='/static/experiments/stop_signal_single_task_network/images/square.png'></img></div>,,go,,355957,0.0,test_trial,185,stop-signal,
186,,,,,,500.0,,,,,,stop_signal_single_task_network,,,,,,,0.0-3.1-12.1,-1.0,none,,-1,,500.0,<div class = centerbox><div class = fixation>+</div></div>,,,,356466,0.0,fixation,186,poldrack-single-stim,
187,700.0,500.0,<img class = center src='/static/experiments/stop_signal_single_task_network/images/stopSignal.png'></img>,stop,,2000.0,,-1.0,1.0,1.0,6.0,stop_signal_single_task_network,,,,,,,0.0-3.1-13.1,-1.0,"[90, 77]",,-1,square,1000.0,<div class = bigbox><div class = centerbox><div class = gng_number><div class = cue-text><img class = center src='/static/experiments/stop_signal_single_task_network/images/square.png'></img></div>,1.0,stop,,358470,0.0,test_trial,187,stop-signal,
188,,,,,,500.0,,,,,,stop_signal_single_task_network,,,,,,,0.0-3.1-14.1,-1.0,none,,-1,,500.0,<div class = centerbox><div class = fixation>+</div></div>,,,,358975,0.0,fixation,188,poldrack-single-stim,
189,750.0,500.0,<img class = center src='/static/experiments/stop_signal_single_task_network/images/stopSignal.png'></img>,stop,,2000.0,,-1.0,0.0,1.0,7.0,stop_signal_single_task_network,,,,,,,0.0-3.1-15.1,90.0,"[90, 77]",,857,circle,1000.0,<div class = bigbox><div class = centerbox><div class = gng_number><div class = cue-text><img class = center src='/static/experiments/stop_signal_single_task_network/images/circle.png'></img></div>,0.0,stop,,360984,0.0,test_trial,189,stop-signal,
190,,,,,,500.0,,,,,,stop_signal_single_task_network,,,,,,,0.0-3.1-16.1,-1.0,none,,-1,,500.0,<div class = centerbox><div class = fixation>+</div></div>,,,,361504,0.0,fixation,190,poldrack-single-stim,
191,700.0,500.0,<img class = center src='/static/experiments/stop_signal_single_task_network/images/stopSignal.png'></img>,go,,2000.0,,90.0,1.0,1.0,8.0,stop_signal_single_task_network,,,,,,1.0,0.0-3.1-17.1,90.0,"[90, 77]",,1036,circle,1000.0,<div class = bigbox><div class = centerbox><div class = gng_number><div class = cue-text><img class = center src='/static/experiments/stop_signal_single_task_network/images/circle.png'></img></div>,,go,,363517,0.0,test_trial,191,stop-signal,
192,,,,,,500.0,,,,,,stop_signal_single_task_network,,,,,,,0.0-3.1-18.1,-1.0,none,,-1,,500.0,<div class = centerbox><div class = fixation>+</div></div>,,,,364021,0.0,fixation,192,poldrack-single-stim,
193,700.0,500.0,<img class = center src='/static/experiments/stop_signal_single_task_network/images/stopSignal.png'></img>,go,,2000.0,,90.0,1.0,1.0,9.0,stop_signal_single_task_network,,,,,,1.0,0.0-3.1-19.1,90.0,"[90, 77]",,876,circle,1000.0,<div class = bigbox><div class = centerbox><div class = gng_number><div class = cue-text><img class = center src='/static/experiments/stop_signal_single_task_network/images/circle.png'></img></div>,,go,,366027,0.0,test_trial,193,stop-signal,
194,,,,,,500.0,,,,,,stop_signal_single_task_network,,,,,,,0.0-3.1-20.1,-1.0,none,,-1,,500.0,<div class = centerbox><div class = fixation>+</div></div>,,,,366546,0.0,fixation,194,poldrack-single-stim,
195,700.0,500.0,<img class = center src='/static/experiments/stop_signal_single_task_network/images/stopSignal.png'></img>,go,,2000.0,,90.0,1.0,1.0,10.0,stop_signal_single_task_network,,,,,,1.0,0.0-3.1-21.1,90.0,"[90, 77]",,820,circle,1000.0,<div class = bigbox><div class = centerbox><div class = gng_number><div class = cue-text><img class = center src='/static/experiments/stop_signal_single_task_network/images/circle.png'></img></div>,,go,,368559,0.0,test_trial,195,stop-signal,
196,,,,,,500.0,,,,,,stop_signal_single_task_network,,,,,,,0.0-3.1-22.1,-1.0,none,,-1,,500.0,<div class = centerbox><div class = fixation>+</div></div>,,,,369075,0.0,fixation,196,poldrack-single-stim,
197,700.0,500.0,<img class = center src='/static/experiments/stop_signal_single_task_network/images/stopSignal.png'></img>,stop,,2000.0,,-1.0,1.0,1.0,11.0,stop_signal_single_task_network,,,,,,,0.0-3.1-23.1,-1.0,"[90, 77]",,-1,square,1000.0,<div class = bigbox><div class = centerbox><div class = gng_number><div class = cue-text><img class = center src='/static/experiments/stop_signal_single_task_network/images/square.png'></img></div>,1.0,stop,,371087,0.0,test_trial,197,stop-signal,
198,,,,,,500.0,,,,,,stop_signal_single_task_network,,,,,,,0.0-3.1-24.1,-1.0,none,,-1,,500.0,<div class = centerbox><div class = fixation>+</div></div>,,,,371594,0.0,fixation,198,poldrack-single-stim,
199,750.0,500.0,<img class = center src='/static/experiments/stop_signal_single_task_network/images/stopSignal.png'></img>,go,,2000.0,,77.0,1.0,1.0,12.0,stop_signal_single_task_network,,,,,,1.0,0.0-3.1-25.1,77.0,"[90, 77]",,1091,square,1000.0,<div class = bigbox><div class = centerbox><div class = gng_number><div class = cue-text><img class = center src='/static/experiments/stop_signal_single_task_network/images/square.png'></img></div>,,go,,373605,0.0,test_trial,199,stop-signal,
200,,,,,,500.0,,,,,,stop_signal_single_task_network,,,,,,,0.0-3.1-26.1,-1.0,none,,-1,,500.0,<div class = centerbox><div class = fixation>+</div></div>,,,,374109,0.0,fixation,200,poldrack-single-stim,
201,750.0,500.0,<img class = center src='/static/experiments/stop_signal_single_task_network/images/stopSignal.png'></img>,go,,2000.0,,90.0,1.0,1.0,13.0,stop_signal_single_task_network,,,,,,1.0,0.0-3.1-27.1,90.0,"[90, 77]",,839,circle,1000.0,<div class = bigbox><div class = centerbox><div class = gng_number><div class = cue-text><img class = center src='/static/experiments/stop_signal_single_task_network/images/circle.png'></img></div>,,go,,376115,0.0,test_trial,201,stop-signal,
202,,,,,,500.0,,,,,,stop_signal_single_task_network,,,,,,,0.0-3.1-28.1,-1.0,none,,-1,,500.0,<div class = centerbox><div class = fixation>+</div></div>,,,,376620,0.0,fixation,202,poldrack-single-stim,
203,750.0,500.0,<img class = center src='/static/experiments/stop_signal_single_task_network/images/stopSignal.png'></img>,go,,2000.0,,90.0,1.0,1.0,14.0,stop_signal_single_task_network,,,,,,1.0,0.0-3.1-29.1,90.0,"[90, 77]",,1181,circle,1000.0,<div class = bigbox><div class = centerbox><div class = gng_number><div class = cue-text><img class = center src='/static/experiments/stop_signal_single_task_network/images/circle.png'></img></div>,,go,,378629,0.0,test_trial,203,stop-signal,
204,,,,,,500.0,,,,,,stop_signal_single_task_network,,,,,,,0.0-3.1-30.1,-1.0,none,,-1,,500.0,<div class = centerbox><div class = fixation>+</div></div>,,,,379141,0.0,fixation,204,poldrack-single-stim,
205,750.0,500.0,<img class = center src='/static/experiments/stop_signal_single_task_network/images/stopSignal.png'></img>,go,,2000.0,,90.0,1.0,1.0,15.0,stop_signal_single_task_network,,,,,,1.0,0.0-3.1-31.1,90.0,"[90, 77]",,968,circle,1000.0,<div class = bigbox><div class = centerbox><div class = gng_number><div class = cue-text><img class = center src='/static/experiments/stop_signal_single_task_network/images/circle.png'></img></div>,,go,,381145,0.0,test_trial,205,stop-signal,
206,,,,,,500.0,,,,,,stop_signal_single_task_network,,,,,,,0.0-3.1-32.1,-1.0,none,,-1,,500.0,<div class = centerbox><div class = fixation>+</div></div>,,,,381655,0.0,fixation,206,poldrack-single-stim,
207,750.0,500.0,<img class = center src='/static/experiments/stop_signal_single_task_network/images/stopSignal.png'></img>,stop,,2000.0,,-1.0,0.0,1.0,16.0,stop_signal_single_task_network,,,,,,,0.0-3.1-33.1,77.0,"[90, 77]",,998,square,1000.0,<div class = bigbox><div class = centerbox><div class = gng_number><div class = cue-text><img class = center src='/static/experiments/stop_signal_single_task_network/images/square.png'></img></div>,0.0,stop,,383672,0.0,test_trial,207,stop-signal,
208,,,,,,500.0,,,,,,stop_signal_single_task_network,,,,,,,0.0-3.1-34.1,-1.0,none,,-1,,500.0,<div class = centerbox><div class = fixation>+</div></div>,,,,384186,0.0,fixation,208,poldrack-single-stim,
209,700.0,500.0,<img class = center src='/static/experiments/stop_signal_single_task_network/images/stopSignal.png'></img>,go,,2000.0,,77.0,1.0,1.0,17.0,stop_signal_single_task_network,,,,,,1.0,0.0-3.1-35.1,77.0,"[90, 77]",,1010,square,1000.0,<div class = bigbox><div class = centerbox><div class = gng_number><div class = cue-text><img class = center src='/static/experiments/stop_signal_single_task_network/images/square.png'></img></div>,,go,,386191,0.0,test_trial,209,stop-signal,
210,,,,,,500.0,,,,,,stop_signal_single_task_network,,,,,,,0.0-3.1-36.1,-1.0,none,,-1,,500.0,<div class = centerbox><div class = fixation>+</div></div>,,,,386699,0.0,fixation,210,poldrack-single-stim,
211,700.0,500.0,<img class = center src='/static/experiments/stop_signal_single_task_network/images/stopSignal.png'></img>,stop,,2000.0,,-1.0,1.0,1.0,18.0,stop_signal_single_task_network,,,,,,,0.0-3.1-37.1,-1.0,"[90, 77]",,-1,circle,1000.0,<div class = bigbox><div class = centerbox><div class = gng_number><div class = cue-text><img class = center src='/static/experiments/stop_signal_single_task_network/images/circle.png'></img></div>,1.0,stop,,388710,0.0,test_trial,211,stop-signal,
212,,,,,,500.0,,,,,,stop_signal_single_task_network,,,,,,,0.0-3.1-38.1,-1.0,none,,-1,,500.0,<div class = centerbox><div class = fixation>+</div></div>,,,,389215,0.0,fixation,212,poldrack-single-stim,
213,750.0,500.0,<img class = center src='/static/experiments/stop_signal_single_task_network/images/stopSignal.png'></img>,go,,2000.0,,77.0,1.0,1.0,19.0,stop_signal_single_task_network,,,,,,1.0,0.0-3.1-39.1,77.0,"[90, 77]",,876,square,1000.0,<div class = bigbox><div class = centerbox><div class = gng_number><div class = cue-text><img class = center src='/static/experiments/stop_signal_single_task_network/images/square.png'></img></div>,,go,,391224,0.0,test_trial,213,stop-signal,
214,,,,,,500.0,,,,,,stop_signal_single_task_network,,,,,,,0.0-3.1-40.1,-1.0,none,,-1,,500.0,<div class = centerbox><div class = fixation>+</div></div>,,,,391736,0.0,fixation,214,poldrack-single-stim,
215,750.0,500.0,<img class = center src='/static/experiments/stop_signal_single_task_network/images/stopSignal.png'></img>,go,,2000.0,,77.0,1.0,1.0,20.0,stop_signal_single_task_network,,,,,,1.0,0.0-3.1-41.1,77.0,"[90, 77]",,779,square,1000.0,<div class = bigbox><div class = centerbox><div class = gng_number><div class = cue-text><img class = center src='/static/experiments/stop_signal_single_task_network/images/square.png'></img></div>,,go,,393755,0.0,test_trial,215,stop-signal,
216,,,,,,500.0,,,,,,stop_signal_single_task_network,,,,,,,0.0-3.1-42.1,-1.0,none,,-1,,500.0,<div class = centerbox><div class = fixation>+</div></div>,,,,394273,0.0,fixation,216,poldrack-single-stim,
217,750.0,500.0,<img class = center src='/static/experiments/stop_signal_single_task_network/images/stopSignal.png'></img>,go,,2000.0,,90.0,1.0,1.0,21.0,stop_signal_single_task_network,,,,,,1.0,0.0-3.1-43.1,90.0,"[90, 77]",,781,circle,1000.0,<div class = bigbox><div class = centerbox><div class = gng_number><div class = cue-text><img class = center src='/static/experiments/stop_signal_single_task_network/images/circle.png'></img></div>,,go,,396284,0.0,test_trial,217,stop-signal,
218,,,,,,500.0,,,,,,stop_signal_single_task_network,,,,,,,0.0-3.1-44.1,-1.0,none,,-1,,500.0,<div class = centerbox><div class = fixation>+</div></div>,,,,396797,0.0,fixation,218,poldrack-single-stim,
219,750.0,500.0,<img class = center src='/static/experiments/stop_signal_single_task_network/images/stopSignal.png'></img>,stop,,2000.0,,-1.0,0.0,1.0,22.0,stop_signal_single_task_network,,,,,,,0.0-3.1-45.1,77.0,"[90, 77]",,791,square,1000.0,<div class = bigbox><div class = centerbox><div class = gng_number><div class = cue-text><img class = center src='/static/experiments/stop_signal_single_task_network/images/square.png'></img></div>,0.0,stop,,398802,0.0,test_trial,219,stop-signal,
220,,,,,,500.0,,,,,,stop_signal_single_task_network,,,,,,,0.0-3.1-46.1,-1.0,none,,-1,,500.0,<div class = centerbox><div class = fixation>+</div></div>,,,,399307,0.0,fixation,220,poldrack-single-stim,
221,700.0,500.0,<img class = center src='/static/experiments/stop_signal_single_task_network/images/stopSignal.png'></img>,stop,,2000.0,,-1.0,1.0,1.0,23.0,stop_signal_single_task_network,,,,,,,0.0-3.1-47.1,-1.0,"[90, 77]",,-1,square,1000.0,<div class = bigbox><div class = centerbox><div class = gng_number><div class = cue-text><img class = center src='/static/experiments/stop_signal_single_task_network/images/square.png'></img></div>,1.0,stop,,401315,0.0,test_trial,221,stop-signal,
222,,,,,,500.0,,,,,,stop_signal_single_task_network,,,,,,,0.0-3.1-48.1,-1.0,none,,-1,,500.0,<div class = centerbox><div class = fixation>+</div></div>,,,,401835,0.0,fixation,222,poldrack-single-stim,
223,750.0,500.0,<img class = center src='/static/experiments/stop_signal_single_task_network/images/stopSignal.png'></img>,stop,,2000.0,,-1.0,0.0,1.0,24.0,stop_signal_single_task_network,,,,,,,0.0-3.1-49.1,90.0,"[90, 77]",,569,circle,1000.0,<div class = bigbox><div class = centerbox><div class = gng_number><div class = cue-text><img class = center src='/static/experiments/stop_signal_single_task_network/images/circle.png'></img></div>,0.0,stop,,403843,0.0,test_trial,223,stop-signal,
224,,,,,,500.0,,,,,,stop_signal_single_task_network,,,,,,,0.0-3.1-50.1,-1.0,none,,-1,,500.0,<div class = centerbox><div class = fixation>+</div></div>,,,,404352,0.0,fixation,224,poldrack-single-stim,
225,700.0,500.0,<img class = center src='/static/experiments/stop_signal_single_task_network/images/stopSignal.png'></img>,go,,2000.0,,77.0,1.0,1.0,25.0,stop_signal_single_task_network,,,,,,1.0,0.0-3.1-51.1,77.0,"[90, 77]",,1066,square,1000.0,<div class = bigbox><div class = centerbox><div class = gng_number><div class = cue-text><img class = center src='/static/experiments/stop_signal_single_task_network/images/square.png'></img></div>,,go,,406365,0.0,test_trial,225,stop-signal,
226,,,,,,500.0,,,,,,stop_signal_single_task_network,,,,,,,0.0-3.1-52.1,-1.0,none,,-1,,500.0,<div class = centerbox><div class = fixation>+</div></div>,,,,406870,0.0,fixation,226,poldrack-single-stim,
227,700.0,500.0,<img class = center src='/static/experiments/stop_signal_single_task_network/images/stopSignal.png'></img>,go,,2000.0,,77.0,1.0,1.0,26.0,stop_signal_single_task_network,,,,,,1.0,0.0-3.1-53.1,77.0,"[90, 77]",,1092,square,1000.0,<div class = bigbox><div class = centerbox><div class = gng_number><div class = cue-text><img class = center src='/static/experiments/stop_signal_single_task_network/images/square.png'></img></div>,,go,,408875,0.0,test_trial,227,stop-signal,
228,,,,,,500.0,,,,,,stop_signal_single_task_network,,,,,,,0.0-3.1-54.1,-1.0,none,,-1,,500.0,<div class = centerbox><div class = fixation>+</div></div>,,,,409382,0.0,fixation,228,poldrack-single-stim,
229,700.0,500.0,<img class = center src='/static/experiments/stop_signal_single_task_network/images/stopSignal.png'></img>,go,,2000.0,,90.0,1.0,1.0,27.0,stop_signal_single_task_network,,,,,,1.0,0.0-3.1-55.1,90.0,"[90, 77]",,1102,circle,1000.0,<div class = bigbox><div class = centerbox><div class = gng_number><div class = cue-text><img class = center src='/static/experiments/stop_signal_single_task_network/images/circle.png'></img></div>,,go,,411394,0.0,test_trial,229,stop-signal,
230,,,,,,500.0,,,,,,stop_signal_single_task_network,,,,,,,0.0-3.1-56.1,-1.0,none,,-1,,500.0,<div class = centerbox><div class = fixation>+</div></div>,,,,411906,0.0,fixation,230,poldrack-single-stim,
231,700.0,500.0,<img class = center src='/static/experiments/stop_signal_single_task_network/images/stopSignal.png'></img>,stop,,2000.0,,-1.0,0.0,1.0,28.0,stop_signal_single_task_network,,,,,,,0.0-3.1-57.1,77.0,"[90, 77]",,960,square,1000.0,<div class = bigbox><div class = centerbox><div class = gng_number><div class = cue-text><img class = center src='/static/experiments/stop_signal_single_task_network/images/square.png'></img></div>,0.0,stop,,413915,0.0,test_trial,231,stop-signal,
232,,,,,,500.0,,,,,,stop_signal_single_task_network,,,,,,,0.0-3.1-58.1,-1.0,none,,-1,,500.0,<div class = centerbox><div class = fixation>+</div></div>,,,,414423,0.0,fixation,232,poldrack-single-stim,
233,650.0,500.0,<img class = center src='/static/experiments/stop_signal_single_task_network/images/stopSignal.png'></img>,stop,,2000.0,,-1.0,0.0,1.0,29.0,stop_signal_single_task_network,,,,,,,0.0-3.1-59.1,90.0,"[90, 77]",,896,circle,1000.0,<div class = bigbox><div class = centerbox><div class = gng_number><div class = cue-text><img class = center src='/static/experiments/stop_signal_single_task_network/images/circle.png'></img></div>,0.0,stop,,416428,0.0,test_trial,233,stop-signal,
234,,,,,,500.0,,,,,,stop_signal_single_task_network,,,,,,,0.0-3.1-60.1,-1.0,none,,-1,,500.0,<div class = centerbox><div class = fixation>+</div></div>,,,,416932,0.0,fixation,234,poldrack-single-stim,
235,600.0,500.0,<img class = center src='/static/experiments/stop_signal_single_task_network/images/stopSignal.png'></img>,go,,2000.0,,90.0,1.0,1.0,30.0,stop_signal_single_task_network,,,,,,1.0,0.0-3.1-61.1,90.0,"[90, 77]",,1013,circle,1000.0,<div class = bigbox><div class = centerbox><div class = gng_number><div class = cue-text><img class = center src='/static/experiments/stop_signal_single_task_network/images/circle.png'></img></div>,,go,,418935,0.0,test_trial,235,stop-signal,
236,,,,,,500.0,,,,,,stop_signal_single_task_network,,,,,,,0.0-3.1-62.1,-1.0,none,,-1,,500.0,<div class = centerbox><div class = fixation>+</div></div>,,,,419440,0.0,fixation,236,poldrack-single-stim,
237,600.0,500.0,<img class = center src='/static/experiments/stop_signal_single_task_network/images/stopSignal.png'></img>,go,,2000.0,,90.0,1.0,1.0,31.0,stop_signal_single_task_network,,,,,,1.0,0.0-3.1-63.1,90.0,"[90, 77]",,1032,circle,1000.0,<div class = bigbox><div class = centerbox><div class = gng_number><div class = cue-text><img class = center src='/static/experiments/stop_signal_single_task_network/images/circle.png'></img></div>,,go,,421454,0.0,test_trial,237,stop-signal,
238,,,,,,500.0,,,,,,stop_signal_single_task_network,,,,,,,0.0-3.1-64.1,-1.0,none,,-1,,500.0,<div class = centerbox><div class = fixation>+</div></div>,,,,421967,0.0,fixation,238,poldrack-single-stim,
239,600.0,500.0,<img class = center src='/static/experiments/stop_signal_single_task_network/images/stopSignal.png'></img>,go,,2000.0,,90.0,1.0,1.0,32.0,stop_signal_single_task_network,,,,,,1.0,0.0-3.1-65.1,90.0,"[90, 77]",,1066,circle,1000.0,<div class = bigbox><div class = centerbox><div class = gng_number><div class = cue-text><img class = center src='/static/experiments/stop_signal_single_task_network/images/circle.png'></img></div>,,go,,423977,0.0,test_trial,239,stop-signal,
240,,,,,,500.0,,,,,,stop_signal_single_task_network,,,,,,,0.0-3.1-66.1,-1.0,none,,-1,,500.0,<div class = centerbox><div class = fixation>+</div></div>,,,,424502,0.0,fixation,240,poldrack-single-stim,
241,600.0,500.0,<img class = center src='/static/experiments/stop_signal_single_task_network/images/stopSignal.png'></img>,go,,2000.0,,77.0,1.0,1.0,33.0,stop_signal_single_task_network,,,,,,1.0,0.0-3.1-67.1,77.0,"[90, 77]",,978,square,1000.0,<div class = bigbox><div class = centerbox><div class = gng_number><div class = cue-text><img class = center src='/static/experiments/stop_signal_single_task_network/images/square.png'></img></div>,,go,,426513,0.0,test_trial,241,stop-signal,
242,,,,,,500.0,,,,,,stop_signal_single_task_network,,,,,,,0.0-3.1-68.1,-1.0,none,,-1,,500.0,<div class = centerbox><div class = fixation>+</div></div>,,,,427034,0.0,fixation,242,poldrack-single-stim,
243,600.0,500.0,<img class = center src='/static/experiments/stop_signal_single_task_network/images/stopSignal.png'></img>,go,,2000.0,,77.0,1.0,1.0,34.0,stop_signal_single_task_network,,,,,,1.0,0.0-3.1-69.1,77.0,"[90, 77]",,1083,square,1000.0,<div class = bigbox><div class = centerbox><div class = gng_number><div class = cue-text><img class = center src='/static/experiments/stop_signal_single_task_network/images/square.png'></img></div>,,go,,429046,0.0,test_trial,243,stop-signal,
244,,,,,,500.0,,,,,,stop_signal_single_task_network,,,,,,,0.0-3.1-70.1,-1.0,none,,-1,,500.0,<div class = centerbox><div class = fixation>+</div></div>,,,,429557,0.0,fixation,244,poldrack-single-stim,
245,600.0,500.0,<img class = center src='/static/experiments/stop_signal_single_task_network/images/stopSignal.png'></img>,stop,,2000.0,,-1.0,1.0,1.0,35.0,stop_signal_single_task_network,,,,,,,0.0-3.1-71.1,-1.0,"[90, 77]",,-1,circle,1000.0,<div class = bigbox><div class = centerbox><div class = gng_number><div class = cue-text><img class = center src='/static/experiments/stop_signal_single_task_network/images/circle.png'></img></div>,1.0,stop,,431567,0.0,test_trial,245,stop-signal,
246,,,,,,500.0,,,,,,stop_signal_single_task_network,,,,,,,0.0-3.1-72.1,-1.0,none,,-1,,500.0,<div class = centerbox><div class = fixation>+</div></div>,,,,432079,0.0,fixation,246,poldrack-single-stim,
247,650.0,500.0,<img class = center src='/static/experiments/stop_signal_single_task_network/images/stopSignal.png'></img>,stop,,2000.0,,-1.0,1.0,1.0,36.0,stop_signal_single_task_network,,,,,,,0.0-3.1-73.1,-1.0,"[90, 77]",,-1,circle,1000.0,<div class = bigbox><div class = centerbox><div class = gng_number><div class = cue-text><img class = center src='/static/experiments/stop_signal_single_task_network/images/circle.png'></img></div>,1.0,stop,,434083,0.0,test_trial,247,stop-signal,
248,,,,,,500.0,,,,,,stop_signal_single_task_network,,,,,,,0.0-3.1-74.1,-1.0,none,,-1,,500.0,<div class = centerbox><div class = fixation>+</div></div>,,,,434589,0.0,fixation,248,poldrack-single-stim,
249,700.0,500.0,<img class = center src='/static/experiments/stop_signal_single_task_network/images/stopSignal.png'></img>,go,,2000.0,,77.0,1.0,1.0,37.0,stop_signal_single_task_network,,,,,,1.0,0.0-3.1-75.1,77.0,"[90, 77]",,844,square,1000.0,<div class = bigbox><div class = centerbox><div class = gng_number><div class = cue-text><img class = center src='/static/experiments/stop_signal_single_task_network/images/square.png'></img></div>,,go,,436599,0.0,test_trial,249,stop-signal,
250,,,,,,500.0,,,,,,stop_signal_single_task_network,,,,,,,0.0-3.1-76.1,-1.0,none,,-1,,500.0,<div class = centerbox><div class = fixation>+</div></div>,,,,437103,0.0,fixation,250,poldrack-single-stim,
251,700.0,500.0,<img class = center src='/static/experiments/stop_signal_single_task_network/images/stopSignal.png'></img>,go,,2000.0,,77.0,1.0,1.0,38.0,stop_signal_single_task_network,,,,,,1.0,0.0-3.1-77.1,77.0,"[90, 77]",,1078,square,1000.0,<div class = bigbox><div class = centerbox><div class = gng_number><div class = cue-text><img class = center src='/static/experiments/stop_signal_single_task_network/images/square.png'></img></div>,,go,,439108,0.0,test_trial,251,stop-signal,
252,,,,,,500.0,,,,,,stop_signal_single_task_network,,,,,,,0.0-3.1-78.1,-1.0,none,,-1,,500.0,<div class = centerbox><div class = fixation>+</div></div>,,,,439614,0.0,fixation,252,poldrack-single-stim,
253,700.0,500.0,<img class = center src='/static/experiments/stop_signal_single_task_network/images/stopSignal.png'></img>,go,,2000.0,,90.0,1.0,1.0,39.0,stop_signal_single_task_network,,,,,,1.0,0.0-3.1-79.1,90.0,"[90, 77]",,873,circle,1000.0,<div class = bigbox><div class = centerbox><div class = gng_number><div class = cue-text><img class = center src='/static/experiments/stop_signal_single_task_network/images/circle.png'></img></div>,,go,,441643,0.0,test_trial,253,stop-signal,
254,,,,,,500.0,,,,,,stop_signal_single_task_network,,,,,,,0.0-3.1-80.1,-1.0,none,,-1,,500.0,<div class = centerbox><div class = fixation>+</div></div>,,,,442151,0.0,fixation,254,poldrack-single-stim,
255,700.0,500.0,<img class = center src='/static/experiments/stop_signal_single_task_network/images/stopSignal.png'></img>,go,,2000.0,,77.0,1.0,1.0,40.0,stop_signal_single_task_network,,,,,,1.0,0.0-3.1-81.1,77.0,"[90, 77]",,1041,square,1000.0,<div class = bigbox><div class = centerbox><div class = gng_number><div class = cue-text><img class = center src='/static/experiments/stop_signal_single_task_network/images/square.png'></img></div>,,go,,444158,0.0,test_trial,255,stop-signal,
256,,,,,,500.0,,,,,,stop_signal_single_task_network,,,,,,,0.0-3.1-82.1,-1.0,none,,-1,,500.0,<div class = centerbox><div class = fixation>+</div></div>,,,,444676,0.0,fixation,256,poldrack-single-stim,
257,700.0,500.0,<img class = center src='/static/experiments/stop_signal_single_task_network/images/stopSignal.png'></img>,go,,2000.0,,90.0,1.0,1.0,41.0,stop_signal_single_task_network,,,,,,1.0,0.0-3.1-83.1,90.0,"[90, 77]",,1042,circle,1000.0,<div class = bigbox><div class = centerbox><div class = gng_number><div class = cue-text><img class = center src='/static/experiments/stop_signal_single_task_network/images/circle.png'></img></div>,,go,,446692,0.0,test_trial,257,stop-signal,
258,,,,,,500.0,,,,,,stop_signal_single_task_network,,,,,,,0.0-3.1-84.1,-1.0,none,,-1,,500.0,<div class = centerbox><div class = fixation>+</div></div>,,,,447211,0.0,fixation,258,poldrack-single-stim,
259,700.0,500.0,<img class = center src='/static/experiments/stop_signal_single_task_network/images/stopSignal.png'></img>,go,,2000.0,,77.0,1.0,1.0,42.0,stop_signal_single_task_network,,,,,,1.0,0.0-3.1-85.1,77.0,"[90, 77]",,923,square,1000.0,<div class = bigbox><div class = centerbox><div class = gng_number><div class = cue-text><img class = center src='/static/experiments/stop_signal_single_task_network/images/square.png'></img></div>,,go,,449224,0.0,test_trial,259,stop-signal,
260,,,,,,500.0,,,,,,stop_signal_single_task_network,,,,,,,0.0-3.1-86.1,-1.0,none,,-1,,500.0,<div class = centerbox><div class = fixation>+</div></div>,,,,449732,0.0,fixation,260,poldrack-single-stim,
261,700.0,500.0,<img class = center src='/static/experiments/stop_signal_single_task_network/images/stopSignal.png'></img>,go,,2000.0,,77.0,1.0,1.0,43.0,stop_signal_single_task_network,,,,,,1.0,0.0-3.1-87.1,77.0,"[90, 77]",,682,square,1000.0,<div class = bigbox><div class = centerbox><div class = gng_number><div class = cue-text><img class = center src='/static/experiments/stop_signal_single_task_network/images/square.png'></img></div>,,go,,451755,0.0,test_trial,261,stop-signal,
262,,,,,,500.0,,,,,,stop_signal_single_task_network,,,,,,,0.0-3.1-88.1,-1.0,none,,-1,,500.0,<div class = centerbox><div class = fixation>+</div></div>,,,,452262,0.0,fixation,262,poldrack-single-stim,
263,700.0,500.0,<img class = center src='/static/experiments/stop_signal_single_task_network/images/stopSignal.png'></img>,stop,,2000.0,,-1.0,0.0,1.0,44.0,stop_signal_single_task_network,,,,,,,0.0-3.1-89.1,90.0,"[90, 77]",,886,circle,1000.0,<div class = bigbox><div class = centerbox><div class = gng_number><div class = cue-text><img class = center src='/static/experiments/stop_signal_single_task_network/images/circle.png'></img></div>,0.0,stop,,454269,0.0,test_trial,263,stop-signal,
264,,,,,,500.0,,,,,,stop_signal_single_task_network,,,,,,,0.0-3.1-90.1,-1.0,none,,-1,,500.0,<div class = centerbox><div class = fixation>+</div></div>,,,,454776,0.0,fixation,264,poldrack-single-stim,
265,650.0,500.0,<img class = center src='/static/experiments/stop_signal_single_task_network/images/stopSignal.png'></img>,go,,2000.0,,90.0,1.0,1.0,45.0,stop_signal_single_task_network,,,,,,1.0,0.0-3.1-91.1,90.0,"[90, 77]",,985,circle,1000.0,<div class = bigbox><div class = centerbox><div class = gng_number><div class = cue-text><img class = center src='/static/experiments/stop_signal_single_task_network/images/circle.png'></img></div>,,go,,456800,0.0,test_trial,265,stop-signal,
266,,,,,,500.0,,,,,,stop_signal_single_task_network,,,,,,,0.0-3.1-92.1,-1.0,none,,-1,,500.0,<div class = centerbox><div class = fixation>+</div></div>,,,,457305,0.0,fixation,266,poldrack-single-stim,
267,650.0,500.0,<img class = center src='/static/experiments/stop_signal_single_task_network/images/stopSignal.png'></img>,go,,2000.0,,90.0,1.0,1.0,46.0,stop_signal_single_task_network,,,,,,1.0,0.0-3.1-93.1,90.0,"[90, 77]",,890,circle,1000.0,<div class = bigbox><div class = centerbox><div class = gng_number><div class = cue-text><img class = center src='/static/experiments/stop_signal_single_task_network/images/circle.png'></img></div>,,go,,459315,0.0,test_trial,267,stop-signal,
268,,,,,,500.0,,,,,,stop_signal_single_task_network,,,,,,,0.0-3.1-94.1,-1.0,none,,-1,,500.0,<div class = centerbox><div class = fixation>+</div></div>,,,,459826,0.0,fixation,268,poldrack-single-stim,
269,650.0,500.0,<img class = center src='/static/experiments/stop_signal_single_task_network/images/stopSignal.png'></img>,go,,2000.0,,77.0,1.0,1.0,47.0,stop_signal_single_task_network,,,,,,1.0,0.0-3.1-95.1,77.0,"[90, 77]",,1093,square,1000.0,<div class = bigbox><div class = centerbox><div class = gng_number><div class = cue-text><img class = center src='/static/experiments/stop_signal_single_task_network/images/square.png'></img></div>,,go,,461832,0.0,test_trial,269,stop-signal,
270,,,,,,500.0,,,,,,stop_signal_single_task_network,,,,,,,0.0-3.1-96.1,-1.0,none,,-1,,500.0,<div class = centerbox><div class = fixation>+</div></div>,,,,462348,0.0,fixation,270,poldrack-single-stim,
271,650.0,500.0,<img class = center src='/static/experiments/stop_signal_single_task_network/images/stopSignal.png'></img>,go,,2000.0,,77.0,1.0,1.0,48.0,stop_signal_single_task_network,,,,,,1.0,0.0-3.1-97.1,77.0,"[90, 77]",,971,square,1000.0,<div class = bigbox><div class = centerbox><div class = gng_number><div class = cue-text><img class = center src='/static/experiments/stop_signal_single_task_network/images/square.png'></img></div>,,go,,464362,0.0,test_trial,271,stop-signal,
