,SSD_stay,SSD_switch,SS_delay,SS_duration,SS_stimulus,SS_trial_type,att_check_percent,block_duration,correct,correct_response,correct_trial,current_block,current_trial,exp_id,final_accuracy,final_avg_rt,final_credit_var,final_missed_percent,final_responses_ok,internal_node_id,key_press,magnitude,number,parity,possible_responses,predictable_condition,predictable_dimension,responses,rt,stim_duration,stimulus,stop_acc,stop_signal_condition,text,time_elapsed,timing_post_trial,trial_id,trial_index,trial_type,view_history,whichQuadrant
0,,,,,,,,44971.0,,,,,,stop_signal_with_predictable_task_switching,,,,,,0.0-0.0-0.0,13.0,,,,[13],,,,44971,44971.0,<div class = bigbox><div class = picture_box><p class = block-text>Welcome to the experiment. This experiment will take around 10 minutes. Press <i>enter</i> to begin.</p></div></div>,,,,44981,0.0,feedback_block,0,poldrack-single-stim,,
1,,,,,,,,,,,,,,stop_signal_with_predictable_task_switching,,,,,,0.0-0.0-1.0,,,,,,,,,36307,,,,,,81296,,instruction,1,poldrack-instructions,"[{""page_index"":0,""viewing_time"":26065},{""page_index"":1,""viewing_time"":7898},{""page_index"":2,""viewing_time"":2343}]",
2,,,,,,,,500.0,,,,,,stop_signal_with_predictable_task_switching,,,,,,0.0-0.0-2.0,-1.0,,,,none,,,,-1,500.0,<div class = bigbox><div class = quad_box><div class = decision-top-left><div class = fixation>+</div></div></div></div>,,,,82810,0.0,practice_fixation,2,poldrack-single-stim,,
3,350.0,350.0,,500.0,<div class = bigbox><div class = quad_box><div class = decision-top-left><img class = center src='/static/experiments/stop_signal_with_predictable_task_switching/images/stopSignal.png'></img></div></div></div>,stop,,2000.0,,-1.0,0.0,0.0,1.0,stop_signal_with_predictable_task_switching,,,,,,0.0-0.0-3.0,77.0,high,8.0,even,"[77, 90]",N/A,magnitude,,1038,1000.0,<div class = bigbox><div class = quad_box><div class = decision-top-left><div class = gng_number><div class = cue-text><img class = center src='/static/experiments/stop_signal_with_predictable_task_switching/images/8.png'></img></div></div></div></div></div>,,stop,,84833,0.0,practice_trial,3,stop-signal,,1.0
4,,,,,,,,500.0,,,,,,stop_signal_with_predictable_task_switching,,,,,,0.0-0.0-4.0,-1.0,,,,none,,,,-1,500.0,"<div class = fb_box><div class = center-text><font size = 20>There was a star.</font></div></div><div class = prompt_box><p class = center-block-text style = ""font-size:16px; line-height:80%;"">Do not respond if a star appears!</p><p class = center-block-text style = ""font-size:16px; line-height:80%;"">Top 2 quadrants: Judge number on magnitude</p><p class = center-block-text style = ""font-size:16px; line-height:80%;"">high: M Key | low: Z Key</p><p class = center-block-text style = ""font-size:16px; line-height:80%;"">Bottom 2 quadrants: Judge number on parity</p><p class = center-block-text style = ""font-size:16px; line-height:80%;"">even: M Key | odd: Z Key</p></div>",,,,85345,0.0,practice-stop-feedback,4,poldrack-single-stim,,
5,,,,,,,,500.0,,,,,,stop_signal_with_predictable_task_switching,,,,,,0.0-0.0-5.0,-1.0,,,,none,,,,-1,500.0,<div class = bigbox><div class = quad_box><div class = decision-top-right><div class = fixation>+</div></div></div></div>,,,,85850,0.0,practice_fixation,5,poldrack-single-stim,,
6,350.0,350.0,350.0,500.0,<div class = bigbox><div class = quad_box><div class = decision-top-right><img class = center src='/static/experiments/stop_signal_with_predictable_task_switching/images/stopSignal.png'></img></div></div></div>,stop,,2000.0,,-1.0,1.0,0.0,2.0,stop_signal_with_predictable_task_switching,,,,,,0.0-0.0-6.0,-1.0,high,9.0,odd,"[77, 90]",stay,magnitude,,-1,1000.0,<div class = bigbox><div class = quad_box><div class = decision-top-right><div class = gng_number><div class = cue-text><img class = center src='/static/experiments/stop_signal_with_predictable_task_switching/images/9.png'></img></div></div></div></div></div>,1.0,stop,,87861,0.0,practice_trial,6,stop-signal,,2.0
7,,,,,,,,500.0,,,,,,stop_signal_with_predictable_task_switching,,,,,,0.0-0.0-7.0,-1.0,,,,none,,,,-1,500.0,"<div class = fb_box><div class = center-text><font size = 20>Correct!</font></div></div><div class = prompt_box><p class = center-block-text style = ""font-size:16px; line-height:80%;"">Do not respond if a star appears!</p><p class = center-block-text style = ""font-size:16px; line-height:80%;"">Top 2 quadrants: Judge number on magnitude</p><p class = center-block-text style = ""font-size:16px; line-height:80%;"">high: M Key | low: Z Key</p><p class = center-block-text style = ""font-size:16px; line-height:80%;"">Bottom 2 quadrants: Judge number on parity</p><p class = center-block-text style = ""font-size:16px; line-height:80%;"">even: M Key | odd: Z Key</p></div>",,,,88372,0.0,practice-stop-feedback,7,poldrack-single-stim,,
8,,,,,,,,500.0,,,,,,stop_signal_with_predictable_task_switching,,,,,,0.0-0.0-8.0,-1.0,,,,none,,,,-1,500.0,<div class = bigbox><div class = quad_box><div class = decision-bottom-right><div class = fixation>+</div></div></div></div>,,,,88889,0.0,practice_fixation,8,poldrack-single-stim,,
9,400.0,350.0,350.0,500.0,<div class = bigbox><div class = quad_box><div class = decision-bottom-right><img class = center src='/static/experiments/stop_signal_with_predictable_task_switching/images/stopSignal.png'></img></div></div></div>,stop,,2000.0,,-1.0,1.0,0.0,3.0,stop_signal_with_predictable_task_switching,,,,,,0.0-0.0-9.0,-1.0,low,2.0,even,"[77, 90]",switch,parity,,-1,1000.0,<div class = bigbox><div class = quad_box><div class = decision-bottom-right><div class = gng_number><div class = cue-text><img class = center src='/static/experiments/stop_signal_with_predictable_task_switching/images/2.png'></img></div></div></div></div></div>,1.0,stop,,90901,0.0,practice_trial,9,stop-signal,,3.0
10,,,,,,,,500.0,,,,,,stop_signal_with_predictable_task_switching,,,,,,0.0-0.0-10.0,-1.0,,,,none,,,,-1,500.0,"<div class = fb_box><div class = center-text><font size = 20>Correct!</font></div></div><div class = prompt_box><p class = center-block-text style = ""font-size:16px; line-height:80%;"">Do not respond if a star appears!</p><p class = center-block-text style = ""font-size:16px; line-height:80%;"">Top 2 quadrants: Judge number on magnitude</p><p class = center-block-text style = ""font-size:16px; line-height:80%;"">high: M Key | low: Z Key</p><p class = center-block-text style = ""font-size:16px; line-height:80%;"">Bottom 2 quadrants: Judge number on parity</p><p class = center-block-text style = ""font-size:16px; line-height:80%;"">even: M Key | odd: Z Key</p></div>",,,,91417,0.0,practice-stop-feedback,10,poldrack-single-stim,,
11,,,,,,,,500.0,,,,,,stop_signal_with_predictable_task_switching,,,,,,0.0-0.0-11.0,-1.0,,,,none,,,,-1,500.0,<div class = bigbox><div class = quad_box><div class = decision-bottom-left><div class = fixation>+</div></div></div></div>,,,,91921,0.0,practice_fixation,11,poldrack-single-stim,,
12,400.0,400.0,400.0,500.0,<div class = bigbox><div class = quad_box><div class = decision-bottom-left><img class = center src='/static/experiments/stop_signal_with_predictable_task_switching/images/stopSignal.png'></img></div></div></div>,stop,,2000.0,,-1.0,1.0,0.0,4.0,stop_signal_with_predictable_task_switching,,,,,,0.0-0.0-12.0,-1.0,low,2.0,even,"[77, 90]",stay,parity,,-1,1000.0,<div class = bigbox><div class = quad_box><div class = decision-bottom-left><div class = gng_number><div class = cue-text><img class = center src='/static/experiments/stop_signal_with_predictable_task_switching/images/2.png'></img></div></div></div></div></div>,1.0,stop,,93928,0.0,practice_trial,12,stop-signal,,4.0
13,,,,,,,,500.0,,,,,,stop_signal_with_predictable_task_switching,,,,,,0.0-0.0-13.0,-1.0,,,,none,,,,-1,500.0,"<div class = fb_box><div class = center-text><font size = 20>Correct!</font></div></div><div class = prompt_box><p class = center-block-text style = ""font-size:16px; line-height:80%;"">Do not respond if a star appears!</p><p class = center-block-text style = ""font-size:16px; line-height:80%;"">Top 2 quadrants: Judge number on magnitude</p><p class = center-block-text style = ""font-size:16px; line-height:80%;"">high: M Key | low: Z Key</p><p class = center-block-text style = ""font-size:16px; line-height:80%;"">Bottom 2 quadrants: Judge number on parity</p><p class = center-block-text style = ""font-size:16px; line-height:80%;"">even: M Key | odd: Z Key</p></div>",,,,94437,0.0,practice-stop-feedback,13,poldrack-single-stim,,
14,,,,,,,,500.0,,,,,,stop_signal_with_predictable_task_switching,,,,,,0.0-0.0-14.0,-1.0,,,,none,,,,-1,500.0,<div class = bigbox><div class = quad_box><div class = decision-top-left><div class = fixation>+</div></div></div></div>,,,,94953,0.0,practice_fixation,14,poldrack-single-stim,,
15,450.0,400.0,400.0,500.0,<div class = bigbox><div class = quad_box><div class = decision-top-left><img class = center src='/static/experiments/stop_signal_with_predictable_task_switching/images/stopSignal.png'></img></div></div></div>,go,,2000.0,,90.0,0.0,0.0,5.0,stop_signal_with_predictable_task_switching,,,,,,0.0-0.0-15.0,77.0,low,4.0,even,"[77, 90]",switch,magnitude,,720,1000.0,<div class = bigbox><div class = quad_box><div class = decision-top-left><div class = gng_number><div class = cue-text><img class = center src='/static/experiments/stop_signal_with_predictable_task_switching/images/4.png'></img></div></div></div></div></div>,,go,,96963,0.0,practice_trial,15,stop-signal,,1.0
16,,,,,,,,500.0,,,,,,stop_signal_with_predictable_task_switching,,,,,,0.0-0.0-16.0,-1.0,,,,none,,,,-1,500.0,"<div class = fb_box><div class = center-text><font size = 20>Incorrect</font></div></div><div class = prompt_box><p class = center-block-text style = ""font-size:16px; line-height:80%;"">Do not respond if a star appears!</p><p class = center-block-text style = ""font-size:16px; line-height:80%;"">Top 2 quadrants: Judge number on magnitude</p><p class = center-block-text style = ""font-size:16px; line-height:80%;"">high: M Key | low: Z Key</p><p class = center-block-text style = ""font-size:16px; line-height:80%;"">Bottom 2 quadrants: Judge number on parity</p><p class = center-block-text style = ""font-size:16px; line-height:80%;"">even: M Key | odd: Z Key</p></div>",,,,97471,0.0,practice-stop-feedback,16,poldrack-single-stim,,
17,,,,,,,,500.0,,,,,,stop_signal_with_predictable_task_switching,,,,,,0.0-0.0-17.0,-1.0,,,,none,,,,-1,500.0,<div class = bigbox><div class = quad_box><div class = decision-top-right><div class = fixation>+</div></div></div></div>,,,,97983,0.0,practice_fixation,17,poldrack-single-stim,,
18,450.0,400.0,450.0,500.0,<div class = bigbox><div class = quad_box><div class = decision-top-right><img class = center src='/static/experiments/stop_signal_with_predictable_task_switching/images/stopSignal.png'></img></div></div></div>,go,,2000.0,,90.0,1.0,0.0,6.0,stop_signal_with_predictable_task_switching,,,,,,0.0-0.0-18.0,90.0,low,3.0,odd,"[77, 90]",stay,magnitude,,525,1000.0,<div class = bigbox><div class = quad_box><div class = decision-top-right><div class = gng_number><div class = cue-text><img class = center src='/static/experiments/stop_signal_with_predictable_task_switching/images/3.png'></img></div></div></div></div></div>,,go,,99989,0.0,practice_trial,18,stop-signal,,2.0
19,,,,,,,,500.0,,,,,,stop_signal_with_predictable_task_switching,,,,,,0.0-0.0-19.0,-1.0,,,,none,,,,-1,500.0,"<div class = fb_box><div class = center-text><font size = 20>Correct!</font></div></div><div class = prompt_box><p class = center-block-text style = ""font-size:16px; line-height:80%;"">Do not respond if a star appears!</p><p class = center-block-text style = ""font-size:16px; line-height:80%;"">Top 2 quadrants: Judge number on magnitude</p><p class = center-block-text style = ""font-size:16px; line-height:80%;"">high: M Key | low: Z Key</p><p class = center-block-text style = ""font-size:16px; line-height:80%;"">Bottom 2 quadrants: Judge number on parity</p><p class = center-block-text style = ""font-size:16px; line-height:80%;"">even: M Key | odd: Z Key</p></div>",,,,100515,0.0,practice-stop-feedback,19,poldrack-single-stim,,
20,,,,,,,,500.0,,,,,,stop_signal_with_predictable_task_switching,,,,,,0.0-0.0-20.0,-1.0,,,,none,,,,-1,500.0,<div class = bigbox><div class = quad_box><div class = decision-bottom-right><div class = fixation>+</div></div></div></div>,,,,101022,0.0,practice_fixation,20,poldrack-single-stim,,
21,450.0,400.0,400.0,500.0,<div class = bigbox><div class = quad_box><div class = decision-bottom-right><img class = center src='/static/experiments/stop_signal_with_predictable_task_switching/images/stopSignal.png'></img></div></div></div>,stop,,2000.0,,-1.0,1.0,0.0,7.0,stop_signal_with_predictable_task_switching,,,,,,0.0-0.0-21.0,-1.0,high,7.0,odd,"[77, 90]",switch,parity,,-1,1000.0,<div class = bigbox><div class = quad_box><div class = decision-bottom-right><div class = gng_number><div class = cue-text><img class = center src='/static/experiments/stop_signal_with_predictable_task_switching/images/7.png'></img></div></div></div></div></div>,1.0,stop,,103032,0.0,practice_trial,21,stop-signal,,3.0
22,,,,,,,,500.0,,,,,,stop_signal_with_predictable_task_switching,,,,,,0.0-0.0-22.0,-1.0,,,,none,,,,-1,500.0,"<div class = fb_box><div class = center-text><font size = 20>Correct!</font></div></div><div class = prompt_box><p class = center-block-text style = ""font-size:16px; line-height:80%;"">Do not respond if a star appears!</p><p class = center-block-text style = ""font-size:16px; line-height:80%;"">Top 2 quadrants: Judge number on magnitude</p><p class = center-block-text style = ""font-size:16px; line-height:80%;"">high: M Key | low: Z Key</p><p class = center-block-text style = ""font-size:16px; line-height:80%;"">Bottom 2 quadrants: Judge number on parity</p><p class = center-block-text style = ""font-size:16px; line-height:80%;"">even: M Key | odd: Z Key</p></div>",,,,103545,0.0,practice-stop-feedback,22,poldrack-single-stim,,
23,,,,,,,,500.0,,,,,,stop_signal_with_predictable_task_switching,,,,,,0.0-0.0-23.0,-1.0,,,,none,,,,-1,500.0,<div class = bigbox><div class = quad_box><div class = decision-bottom-left><div class = fixation>+</div></div></div></div>,,,,104052,0.0,practice_fixation,23,poldrack-single-stim,,
24,450.0,450.0,450.0,500.0,<div class = bigbox><div class = quad_box><div class = decision-bottom-left><img class = center src='/static/experiments/stop_signal_with_predictable_task_switching/images/stopSignal.png'></img></div></div></div>,go,,2000.0,,77.0,1.0,0.0,8.0,stop_signal_with_predictable_task_switching,,,,,,0.0-0.0-24.0,77.0,low,2.0,even,"[77, 90]",stay,parity,,629,1000.0,<div class = bigbox><div class = quad_box><div class = decision-bottom-left><div class = gng_number><div class = cue-text><img class = center src='/static/experiments/stop_signal_with_predictable_task_switching/images/2.png'></img></div></div></div></div></div>,,go,,106057,0.0,practice_trial,24,stop-signal,,4.0
25,,,,,,,,500.0,,,,,,stop_signal_with_predictable_task_switching,,,,,,0.0-0.0-25.0,-1.0,,,,none,,,,-1,500.0,"<div class = fb_box><div class = center-text><font size = 20>Correct!</font></div></div><div class = prompt_box><p class = center-block-text style = ""font-size:16px; line-height:80%;"">Do not respond if a star appears!</p><p class = center-block-text style = ""font-size:16px; line-height:80%;"">Top 2 quadrants: Judge number on magnitude</p><p class = center-block-text style = ""font-size:16px; line-height:80%;"">high: M Key | low: Z Key</p><p class = center-block-text style = ""font-size:16px; line-height:80%;"">Bottom 2 quadrants: Judge number on parity</p><p class = center-block-text style = ""font-size:16px; line-height:80%;"">even: M Key | odd: Z Key</p></div>",,,,106561,0.0,practice-stop-feedback,25,poldrack-single-stim,,
26,,,,,,,,500.0,,,,,,stop_signal_with_predictable_task_switching,,,,,,0.0-0.0-26.0,-1.0,,,,none,,,,-1,500.0,<div class = bigbox><div class = quad_box><div class = decision-top-left><div class = fixation>+</div></div></div></div>,,,,107067,0.0,practice_fixation,26,poldrack-single-stim,,
27,450.0,450.0,450.0,500.0,<div class = bigbox><div class = quad_box><div class = decision-top-left><img class = center src='/static/experiments/stop_signal_with_predictable_task_switching/images/stopSignal.png'></img></div></div></div>,go,,2000.0,,77.0,1.0,0.0,9.0,stop_signal_with_predictable_task_switching,,,,,,0.0-0.0-27.0,77.0,high,7.0,odd,"[77, 90]",switch,magnitude,,812,1000.0,<div class = bigbox><div class = quad_box><div class = decision-top-left><div class = gng_number><div class = cue-text><img class = center src='/static/experiments/stop_signal_with_predictable_task_switching/images/7.png'></img></div></div></div></div></div>,,go,,109083,0.0,practice_trial,27,stop-signal,,1.0
28,,,,,,,,500.0,,,,,,stop_signal_with_predictable_task_switching,,,,,,0.0-0.0-28.0,-1.0,,,,none,,,,-1,500.0,"<div class = fb_box><div class = center-text><font size = 20>Correct!</font></div></div><div class = prompt_box><p class = center-block-text style = ""font-size:16px; line-height:80%;"">Do not respond if a star appears!</p><p class = center-block-text style = ""font-size:16px; line-height:80%;"">Top 2 quadrants: Judge number on magnitude</p><p class = center-block-text style = ""font-size:16px; line-height:80%;"">high: M Key | low: Z Key</p><p class = center-block-text style = ""font-size:16px; line-height:80%;"">Bottom 2 quadrants: Judge number on parity</p><p class = center-block-text style = ""font-size:16px; line-height:80%;"">even: M Key | odd: Z Key</p></div>",,,,109602,0.0,practice-stop-feedback,28,poldrack-single-stim,,
29,,,,,,,,500.0,,,,,,stop_signal_with_predictable_task_switching,,,,,,0.0-0.0-29.0,-1.0,,,,none,,,,-1,500.0,<div class = bigbox><div class = quad_box><div class = decision-top-right><div class = fixation>+</div></div></div></div>,,,,110106,0.0,practice_fixation,29,poldrack-single-stim,,
30,450.0,450.0,450.0,500.0,<div class = bigbox><div class = quad_box><div class = decision-top-right><img class = center src='/static/experiments/stop_signal_with_predictable_task_switching/images/stopSignal.png'></img></div></div></div>,go,,2000.0,,90.0,1.0,0.0,10.0,stop_signal_with_predictable_task_switching,,,,,,0.0-0.0-30.0,90.0,low,4.0,even,"[77, 90]",stay,magnitude,,908,1000.0,<div class = bigbox><div class = quad_box><div class = decision-top-right><div class = gng_number><div class = cue-text><img class = center src='/static/experiments/stop_signal_with_predictable_task_switching/images/4.png'></img></div></div></div></div></div>,,go,,112112,0.0,practice_trial,30,stop-signal,,2.0
31,,,,,,,,500.0,,,,,,stop_signal_with_predictable_task_switching,,,,,,0.0-0.0-31.0,-1.0,,,,none,,,,-1,500.0,"<div class = fb_box><div class = center-text><font size = 20>Correct!</font></div></div><div class = prompt_box><p class = center-block-text style = ""font-size:16px; line-height:80%;"">Do not respond if a star appears!</p><p class = center-block-text style = ""font-size:16px; line-height:80%;"">Top 2 quadrants: Judge number on magnitude</p><p class = center-block-text style = ""font-size:16px; line-height:80%;"">high: M Key | low: Z Key</p><p class = center-block-text style = ""font-size:16px; line-height:80%;"">Bottom 2 quadrants: Judge number on parity</p><p class = center-block-text style = ""font-size:16px; line-height:80%;"">even: M Key | odd: Z Key</p></div>",,,,112616,0.0,practice-stop-feedback,31,poldrack-single-stim,,
32,,,,,,,,500.0,,,,,,stop_signal_with_predictable_task_switching,,,,,,0.0-0.0-32.0,-1.0,,,,none,,,,-1,500.0,<div class = bigbox><div class = quad_box><div class = decision-bottom-right><div class = fixation>+</div></div></div></div>,,,,113130,0.0,practice_fixation,32,poldrack-single-stim,,
33,450.0,450.0,450.0,500.0,<div class = bigbox><div class = quad_box><div class = decision-bottom-right><img class = center src='/static/experiments/stop_signal_with_predictable_task_switching/images/stopSignal.png'></img></div></div></div>,go,,2000.0,,77.0,1.0,0.0,11.0,stop_signal_with_predictable_task_switching,,,,,,0.0-0.0-33.0,77.0,low,2.0,even,"[77, 90]",switch,parity,,799,1000.0,<div class = bigbox><div class = quad_box><div class = decision-bottom-right><div class = gng_number><div class = cue-text><img class = center src='/static/experiments/stop_signal_with_predictable_task_switching/images/2.png'></img></div></div></div></div></div>,,go,,115156,0.0,practice_trial,33,stop-signal,,3.0
34,,,,,,,,500.0,,,,,,stop_signal_with_predictable_task_switching,,,,,,0.0-0.0-34.0,-1.0,,,,none,,,,-1,500.0,"<div class = fb_box><div class = center-text><font size = 20>Correct!</font></div></div><div class = prompt_box><p class = center-block-text style = ""font-size:16px; line-height:80%;"">Do not respond if a star appears!</p><p class = center-block-text style = ""font-size:16px; line-height:80%;"">Top 2 quadrants: Judge number on magnitude</p><p class = center-block-text style = ""font-size:16px; line-height:80%;"">high: M Key | low: Z Key</p><p class = center-block-text style = ""font-size:16px; line-height:80%;"">Bottom 2 quadrants: Judge number on parity</p><p class = center-block-text style = ""font-size:16px; line-height:80%;"">even: M Key | odd: Z Key</p></div>",,,,115671,0.0,practice-stop-feedback,34,poldrack-single-stim,,
35,,,,,,,,500.0,,,,,,stop_signal_with_predictable_task_switching,,,,,,0.0-0.0-35.0,-1.0,,,,none,,,,-1,500.0,<div class = bigbox><div class = quad_box><div class = decision-bottom-left><div class = fixation>+</div></div></div></div>,,,,116183,0.0,practice_fixation,35,poldrack-single-stim,,
36,450.0,450.0,450.0,500.0,<div class = bigbox><div class = quad_box><div class = decision-bottom-left><img class = center src='/static/experiments/stop_signal_with_predictable_task_switching/images/stopSignal.png'></img></div></div></div>,stop,,2000.0,,-1.0,0.0,0.0,12.0,stop_signal_with_predictable_task_switching,,,,,,0.0-0.0-36.0,90.0,low,1.0,odd,"[77, 90]",stay,parity,,514,1000.0,<div class = bigbox><div class = quad_box><div class = decision-bottom-left><div class = gng_number><div class = cue-text><img class = center src='/static/experiments/stop_signal_with_predictable_task_switching/images/1.png'></img></div></div></div></div></div>,0.0,stop,,118198,0.0,practice_trial,36,stop-signal,,4.0
37,,,,,,,,500.0,,,,,,stop_signal_with_predictable_task_switching,,,,,,0.0-0.0-37.0,-1.0,,,,none,,,,-1,500.0,"<div class = fb_box><div class = center-text><font size = 20>There was a star.</font></div></div><div class = prompt_box><p class = center-block-text style = ""font-size:16px; line-height:80%;"">Do not respond if a star appears!</p><p class = center-block-text style = ""font-size:16px; line-height:80%;"">Top 2 quadrants: Judge number on magnitude</p><p class = center-block-text style = ""font-size:16px; line-height:80%;"">high: M Key | low: Z Key</p><p class = center-block-text style = ""font-size:16px; line-height:80%;"">Bottom 2 quadrants: Judge number on parity</p><p class = center-block-text style = ""font-size:16px; line-height:80%;"">even: M Key | odd: Z Key</p></div>",,,,118708,0.0,practice-stop-feedback,37,poldrack-single-stim,,
38,,,,,,,,500.0,,,,,,stop_signal_with_predictable_task_switching,,,,,,0.0-0.0-38.0,-1.0,,,,none,,,,-1,500.0,<div class = bigbox><div class = quad_box><div class = decision-top-left><div class = fixation>+</div></div></div></div>,,,,119219,0.0,practice_fixation,38,poldrack-single-stim,,
39,400.0,450.0,450.0,500.0,<div class = bigbox><div class = quad_box><div class = decision-top-left><img class = center src='/static/experiments/stop_signal_with_predictable_task_switching/images/stopSignal.png'></img></div></div></div>,stop,,2000.0,,-1.0,0.0,0.0,13.0,stop_signal_with_predictable_task_switching,,,,,,0.0-0.0-39.0,90.0,low,3.0,odd,"[77, 90]",switch,magnitude,,631,1000.0,<div class = bigbox><div class = quad_box><div class = decision-top-left><div class = gng_number><div class = cue-text><img class = center src='/static/experiments/stop_signal_with_predictable_task_switching/images/3.png'></img></div></div></div></div></div>,0.0,stop,,121228,0.0,practice_trial,39,stop-signal,,1.0
40,,,,,,,,500.0,,,,,,stop_signal_with_predictable_task_switching,,,,,,0.0-0.0-40.0,-1.0,,,,none,,,,-1,500.0,"<div class = fb_box><div class = center-text><font size = 20>There was a star.</font></div></div><div class = prompt_box><p class = center-block-text style = ""font-size:16px; line-height:80%;"">Do not respond if a star appears!</p><p class = center-block-text style = ""font-size:16px; line-height:80%;"">Top 2 quadrants: Judge number on magnitude</p><p class = center-block-text style = ""font-size:16px; line-height:80%;"">high: M Key | low: Z Key</p><p class = center-block-text style = ""font-size:16px; line-height:80%;"">Bottom 2 quadrants: Judge number on parity</p><p class = center-block-text style = ""font-size:16px; line-height:80%;"">even: M Key | odd: Z Key</p></div>",,,,121734,0.0,practice-stop-feedback,40,poldrack-single-stim,,
41,,,,,,,,500.0,,,,,,stop_signal_with_predictable_task_switching,,,,,,0.0-0.0-41.0,-1.0,,,,none,,,,-1,500.0,<div class = bigbox><div class = quad_box><div class = decision-top-right><div class = fixation>+</div></div></div></div>,,,,122244,0.0,practice_fixation,41,poldrack-single-stim,,
42,400.0,400.0,400.0,500.0,<div class = bigbox><div class = quad_box><div class = decision-top-right><img class = center src='/static/experiments/stop_signal_with_predictable_task_switching/images/stopSignal.png'></img></div></div></div>,stop,,2000.0,,-1.0,1.0,0.0,14.0,stop_signal_with_predictable_task_switching,,,,,,0.0-0.0-42.0,-1.0,low,2.0,even,"[77, 90]",stay,magnitude,,-1,1000.0,<div class = bigbox><div class = quad_box><div class = decision-top-right><div class = gng_number><div class = cue-text><img class = center src='/static/experiments/stop_signal_with_predictable_task_switching/images/2.png'></img></div></div></div></div></div>,1.0,stop,,124260,0.0,practice_trial,42,stop-signal,,2.0
43,,,,,,,,500.0,,,,,,stop_signal_with_predictable_task_switching,,,,,,0.0-0.0-43.0,-1.0,,,,none,,,,-1,500.0,"<div class = fb_box><div class = center-text><font size = 20>Correct!</font></div></div><div class = prompt_box><p class = center-block-text style = ""font-size:16px; line-height:80%;"">Do not respond if a star appears!</p><p class = center-block-text style = ""font-size:16px; line-height:80%;"">Top 2 quadrants: Judge number on magnitude</p><p class = center-block-text style = ""font-size:16px; line-height:80%;"">high: M Key | low: Z Key</p><p class = center-block-text style = ""font-size:16px; line-height:80%;"">Bottom 2 quadrants: Judge number on parity</p><p class = center-block-text style = ""font-size:16px; line-height:80%;"">even: M Key | odd: Z Key</p></div>",,,,124781,0.0,practice-stop-feedback,43,poldrack-single-stim,,
44,,,,,,,,500.0,,,,,,stop_signal_with_predictable_task_switching,,,,,,0.0-0.0-44.0,-1.0,,,,none,,,,-1,500.0,<div class = bigbox><div class = quad_box><div class = decision-bottom-right><div class = fixation>+</div></div></div></div>,,,,125299,0.0,practice_fixation,44,poldrack-single-stim,,
45,450.0,400.0,400.0,500.0,<div class = bigbox><div class = quad_box><div class = decision-bottom-right><img class = center src='/static/experiments/stop_signal_with_predictable_task_switching/images/stopSignal.png'></img></div></div></div>,go,,2000.0,,77.0,1.0,0.0,15.0,stop_signal_with_predictable_task_switching,,,,,,0.0-0.0-45.0,77.0,high,8.0,even,"[77, 90]",switch,parity,,912,1000.0,<div class = bigbox><div class = quad_box><div class = decision-bottom-right><div class = gng_number><div class = cue-text><img class = center src='/static/experiments/stop_signal_with_predictable_task_switching/images/8.png'></img></div></div></div></div></div>,,go,,127312,0.0,practice_trial,45,stop-signal,,3.0
46,,,,,,,,500.0,,,,,,stop_signal_with_predictable_task_switching,,,,,,0.0-0.0-46.0,-1.0,,,,none,,,,-1,500.0,"<div class = fb_box><div class = center-text><font size = 20>Correct!</font></div></div><div class = prompt_box><p class = center-block-text style = ""font-size:16px; line-height:80%;"">Do not respond if a star appears!</p><p class = center-block-text style = ""font-size:16px; line-height:80%;"">Top 2 quadrants: Judge number on magnitude</p><p class = center-block-text style = ""font-size:16px; line-height:80%;"">high: M Key | low: Z Key</p><p class = center-block-text style = ""font-size:16px; line-height:80%;"">Bottom 2 quadrants: Judge number on parity</p><p class = center-block-text style = ""font-size:16px; line-height:80%;"">even: M Key | odd: Z Key</p></div>",,,,127821,0.0,practice-stop-feedback,46,poldrack-single-stim,,
47,,,,,,,,500.0,,,,,,stop_signal_with_predictable_task_switching,,,,,,0.0-0.0-47.0,-1.0,,,,none,,,,-1,500.0,<div class = bigbox><div class = quad_box><div class = decision-bottom-left><div class = fixation>+</div></div></div></div>,,,,128331,0.0,practice_fixation,47,poldrack-single-stim,,
48,450.0,400.0,450.0,500.0,<div class = bigbox><div class = quad_box><div class = decision-bottom-left><img class = center src='/static/experiments/stop_signal_with_predictable_task_switching/images/stopSignal.png'></img></div></div></div>,go,,2000.0,,77.0,1.0,0.0,16.0,stop_signal_with_predictable_task_switching,,,,,,0.0-0.0-48.0,77.0,low,2.0,even,"[77, 90]",stay,parity,,740,1000.0,<div class = bigbox><div class = quad_box><div class = decision-bottom-left><div class = gng_number><div class = cue-text><img class = center src='/static/experiments/stop_signal_with_predictable_task_switching/images/2.png'></img></div></div></div></div></div>,,go,,130347,0.0,practice_trial,48,stop-signal,,4.0
49,,,,,,,,500.0,,,,,,stop_signal_with_predictable_task_switching,,,,,,0.0-0.0-49.0,-1.0,,,,none,,,,-1,500.0,"<div class = fb_box><div class = center-text><font size = 20>Correct!</font></div></div><div class = prompt_box><p class = center-block-text style = ""font-size:16px; line-height:80%;"">Do not respond if a star appears!</p><p class = center-block-text style = ""font-size:16px; line-height:80%;"">Top 2 quadrants: Judge number on magnitude</p><p class = center-block-text style = ""font-size:16px; line-height:80%;"">high: M Key | low: Z Key</p><p class = center-block-text style = ""font-size:16px; line-height:80%;"">Bottom 2 quadrants: Judge number on parity</p><p class = center-block-text style = ""font-size:16px; line-height:80%;"">even: M Key | odd: Z Key</p></div>",,,,130871,0.0,practice-stop-feedback,49,poldrack-single-stim,,
50,,,,,,,,500.0,,,,,,stop_signal_with_predictable_task_switching,,,,,,0.0-0.0-50.0,-1.0,,,,none,,,,-1,500.0,<div class = bigbox><div class = quad_box><div class = decision-top-left><div class = fixation>+</div></div></div></div>,,,,131390,0.0,practice_fixation,50,poldrack-single-stim,,
51,450.0,400.0,400.0,500.0,<div class = bigbox><div class = quad_box><div class = decision-top-left><img class = center src='/static/experiments/stop_signal_with_predictable_task_switching/images/stopSignal.png'></img></div></div></div>,go,,2000.0,,77.0,1.0,0.0,17.0,stop_signal_with_predictable_task_switching,,,,,,0.0-0.0-51.0,77.0,high,7.0,odd,"[77, 90]",switch,magnitude,,708,1000.0,<div class = bigbox><div class = quad_box><div class = decision-top-left><div class = gng_number><div class = cue-text><img class = center src='/static/experiments/stop_signal_with_predictable_task_switching/images/7.png'></img></div></div></div></div></div>,,go,,133396,0.0,practice_trial,51,stop-signal,,1.0
52,,,,,,,,500.0,,,,,,stop_signal_with_predictable_task_switching,,,,,,0.0-0.0-52.0,-1.0,,,,none,,,,-1,500.0,"<div class = fb_box><div class = center-text><font size = 20>Correct!</font></div></div><div class = prompt_box><p class = center-block-text style = ""font-size:16px; line-height:80%;"">Do not respond if a star appears!</p><p class = center-block-text style = ""font-size:16px; line-height:80%;"">Top 2 quadrants: Judge number on magnitude</p><p class = center-block-text style = ""font-size:16px; line-height:80%;"">high: M Key | low: Z Key</p><p class = center-block-text style = ""font-size:16px; line-height:80%;"">Bottom 2 quadrants: Judge number on parity</p><p class = center-block-text style = ""font-size:16px; line-height:80%;"">even: M Key | odd: Z Key</p></div>",,,,133910,0.0,practice-stop-feedback,52,poldrack-single-stim,,
53,,,,,,,,500.0,,,,,,stop_signal_with_predictable_task_switching,,,,,,0.0-0.0-53.0,-1.0,,,,none,,,,-1,500.0,<div class = bigbox><div class = quad_box><div class = decision-top-right><div class = fixation>+</div></div></div></div>,,,,134414,0.0,practice_fixation,53,poldrack-single-stim,,
54,450.0,400.0,450.0,500.0,<div class = bigbox><div class = quad_box><div class = decision-top-right><img class = center src='/static/experiments/stop_signal_with_predictable_task_switching/images/stopSignal.png'></img></div></div></div>,go,,2000.0,,77.0,1.0,0.0,18.0,stop_signal_with_predictable_task_switching,,,,,,0.0-0.0-54.0,77.0,high,6.0,even,"[77, 90]",stay,magnitude,,668,1000.0,<div class = bigbox><div class = quad_box><div class = decision-top-right><div class = gng_number><div class = cue-text><img class = center src='/static/experiments/stop_signal_with_predictable_task_switching/images/6.png'></img></div></div></div></div></div>,,go,,136425,0.0,practice_trial,54,stop-signal,,2.0
55,,,,,,,,500.0,,,,,,stop_signal_with_predictable_task_switching,,,,,,0.0-0.0-55.0,-1.0,,,,none,,,,-1,500.0,"<div class = fb_box><div class = center-text><font size = 20>Correct!</font></div></div><div class = prompt_box><p class = center-block-text style = ""font-size:16px; line-height:80%;"">Do not respond if a star appears!</p><p class = center-block-text style = ""font-size:16px; line-height:80%;"">Top 2 quadrants: Judge number on magnitude</p><p class = center-block-text style = ""font-size:16px; line-height:80%;"">high: M Key | low: Z Key</p><p class = center-block-text style = ""font-size:16px; line-height:80%;"">Bottom 2 quadrants: Judge number on parity</p><p class = center-block-text style = ""font-size:16px; line-height:80%;"">even: M Key | odd: Z Key</p></div>",,,,136938,0.0,practice-stop-feedback,55,poldrack-single-stim,,
56,,,,,,,,500.0,,,,,,stop_signal_with_predictable_task_switching,,,,,,0.0-0.0-56.0,-1.0,,,,none,,,,-1,500.0,<div class = bigbox><div class = quad_box><div class = decision-bottom-right><div class = fixation>+</div></div></div></div>,,,,137446,0.0,practice_fixation,56,poldrack-single-stim,,
57,450.0,400.0,400.0,500.0,<div class = bigbox><div class = quad_box><div class = decision-bottom-right><img class = center src='/static/experiments/stop_signal_with_predictable_task_switching/images/stopSignal.png'></img></div></div></div>,go,,2000.0,,90.0,1.0,0.0,19.0,stop_signal_with_predictable_task_switching,,,,,,0.0-0.0-57.0,90.0,high,9.0,odd,"[77, 90]",switch,parity,,738,1000.0,<div class = bigbox><div class = quad_box><div class = decision-bottom-right><div class = gng_number><div class = cue-text><img class = center src='/static/experiments/stop_signal_with_predictable_task_switching/images/9.png'></img></div></div></div></div></div>,,go,,139460,0.0,practice_trial,57,stop-signal,,3.0
58,,,,,,,,500.0,,,,,,stop_signal_with_predictable_task_switching,,,,,,0.0-0.0-58.0,-1.0,,,,none,,,,-1,500.0,"<div class = fb_box><div class = center-text><font size = 20>Correct!</font></div></div><div class = prompt_box><p class = center-block-text style = ""font-size:16px; line-height:80%;"">Do not respond if a star appears!</p><p class = center-block-text style = ""font-size:16px; line-height:80%;"">Top 2 quadrants: Judge number on magnitude</p><p class = center-block-text style = ""font-size:16px; line-height:80%;"">high: M Key | low: Z Key</p><p class = center-block-text style = ""font-size:16px; line-height:80%;"">Bottom 2 quadrants: Judge number on parity</p><p class = center-block-text style = ""font-size:16px; line-height:80%;"">even: M Key | odd: Z Key</p></div>",,,,139978,0.0,practice-stop-feedback,58,poldrack-single-stim,,
59,,,,,,,,500.0,,,,,,stop_signal_with_predictable_task_switching,,,,,,0.0-0.0-59.0,-1.0,,,,none,,,,-1,500.0,<div class = bigbox><div class = quad_box><div class = decision-bottom-left><div class = fixation>+</div></div></div></div>,,,,140485,0.0,practice_fixation,59,poldrack-single-stim,,
60,450.0,400.0,450.0,500.0,<div class = bigbox><div class = quad_box><div class = decision-bottom-left><img class = center src='/static/experiments/stop_signal_with_predictable_task_switching/images/stopSignal.png'></img></div></div></div>,go,,2000.0,,77.0,1.0,0.0,20.0,stop_signal_with_predictable_task_switching,,,,,,0.0-0.0-60.0,77.0,high,6.0,even,"[77, 90]",stay,parity,,643,1000.0,<div class = bigbox><div class = quad_box><div class = decision-bottom-left><div class = gng_number><div class = cue-text><img class = center src='/static/experiments/stop_signal_with_predictable_task_switching/images/6.png'></img></div></div></div></div></div>,,go,,142503,0.0,practice_trial,60,stop-signal,,4.0
61,,,,,,,,500.0,,,,,,stop_signal_with_predictable_task_switching,,,,,,0.0-0.0-61.0,-1.0,,,,none,,,,-1,500.0,"<div class = fb_box><div class = center-text><font size = 20>Correct!</font></div></div><div class = prompt_box><p class = center-block-text style = ""font-size:16px; line-height:80%;"">Do not respond if a star appears!</p><p class = center-block-text style = ""font-size:16px; line-height:80%;"">Top 2 quadrants: Judge number on magnitude</p><p class = center-block-text style = ""font-size:16px; line-height:80%;"">high: M Key | low: Z Key</p><p class = center-block-text style = ""font-size:16px; line-height:80%;"">Bottom 2 quadrants: Judge number on parity</p><p class = center-block-text style = ""font-size:16px; line-height:80%;"">even: M Key | odd: Z Key</p></div>",,,,143015,0.0,practice-stop-feedback,61,poldrack-single-stim,,
62,,,,,,,,500.0,,,,,,stop_signal_with_predictable_task_switching,,,,,,0.0-0.0-62.0,-1.0,,,,none,,,,-1,500.0,<div class = bigbox><div class = quad_box><div class = decision-top-left><div class = fixation>+</div></div></div></div>,,,,143524,0.0,practice_fixation,62,poldrack-single-stim,,
63,450.0,400.0,400.0,500.0,<div class = bigbox><div class = quad_box><div class = decision-top-left><img class = center src='/static/experiments/stop_signal_with_predictable_task_switching/images/stopSignal.png'></img></div></div></div>,go,,2000.0,,77.0,1.0,0.0,21.0,stop_signal_with_predictable_task_switching,,,,,,0.0-0.0-63.0,77.0,high,8.0,even,"[77, 90]",switch,magnitude,,669,1000.0,<div class = bigbox><div class = quad_box><div class = decision-top-left><div class = gng_number><div class = cue-text><img class = center src='/static/experiments/stop_signal_with_predictable_task_switching/images/8.png'></img></div></div></div></div></div>,,go,,145544,0.0,practice_trial,63,stop-signal,,1.0
64,,,,,,,,500.0,,,,,,stop_signal_with_predictable_task_switching,,,,,,0.0-0.0-64.0,-1.0,,,,none,,,,-1,500.0,"<div class = fb_box><div class = center-text><font size = 20>Correct!</font></div></div><div class = prompt_box><p class = center-block-text style = ""font-size:16px; line-height:80%;"">Do not respond if a star appears!</p><p class = center-block-text style = ""font-size:16px; line-height:80%;"">Top 2 quadrants: Judge number on magnitude</p><p class = center-block-text style = ""font-size:16px; line-height:80%;"">high: M Key | low: Z Key</p><p class = center-block-text style = ""font-size:16px; line-height:80%;"">Bottom 2 quadrants: Judge number on parity</p><p class = center-block-text style = ""font-size:16px; line-height:80%;"">even: M Key | odd: Z Key</p></div>",,,,146066,0.0,practice-stop-feedback,64,poldrack-single-stim,,
65,,,,,,,,500.0,,,,,,stop_signal_with_predictable_task_switching,,,,,,0.0-0.0-65.0,-1.0,,,,none,,,,-1,500.0,<div class = bigbox><div class = quad_box><div class = decision-top-right><div class = fixation>+</div></div></div></div>,,,,146572,0.0,practice_fixation,65,poldrack-single-stim,,
66,450.0,400.0,450.0,500.0,<div class = bigbox><div class = quad_box><div class = decision-top-right><img class = center src='/static/experiments/stop_signal_with_predictable_task_switching/images/stopSignal.png'></img></div></div></div>,go,,2000.0,,90.0,0.0,0.0,22.0,stop_signal_with_predictable_task_switching,,,,,,0.0-0.0-66.0,77.0,low,4.0,even,"[77, 90]",stay,magnitude,,637,1000.0,<div class = bigbox><div class = quad_box><div class = decision-top-right><div class = gng_number><div class = cue-text><img class = center src='/static/experiments/stop_signal_with_predictable_task_switching/images/4.png'></img></div></div></div></div></div>,,go,,148582,0.0,practice_trial,66,stop-signal,,2.0
67,,,,,,,,500.0,,,,,,stop_signal_with_predictable_task_switching,,,,,,0.0-0.0-67.0,-1.0,,,,none,,,,-1,500.0,"<div class = fb_box><div class = center-text><font size = 20>Incorrect</font></div></div><div class = prompt_box><p class = center-block-text style = ""font-size:16px; line-height:80%;"">Do not respond if a star appears!</p><p class = center-block-text style = ""font-size:16px; line-height:80%;"">Top 2 quadrants: Judge number on magnitude</p><p class = center-block-text style = ""font-size:16px; line-height:80%;"">high: M Key | low: Z Key</p><p class = center-block-text style = ""font-size:16px; line-height:80%;"">Bottom 2 quadrants: Judge number on parity</p><p class = center-block-text style = ""font-size:16px; line-height:80%;"">even: M Key | odd: Z Key</p></div>",,,,149095,0.0,practice-stop-feedback,67,poldrack-single-stim,,
68,,,,,,,,500.0,,,,,,stop_signal_with_predictable_task_switching,,,,,,0.0-0.0-68.0,-1.0,,,,none,,,,-1,500.0,<div class = bigbox><div class = quad_box><div class = decision-bottom-right><div class = fixation>+</div></div></div></div>,,,,149605,0.0,practice_fixation,68,poldrack-single-stim,,
69,450.0,400.0,400.0,500.0,<div class = bigbox><div class = quad_box><div class = decision-bottom-right><img class = center src='/static/experiments/stop_signal_with_predictable_task_switching/images/stopSignal.png'></img></div></div></div>,go,,2000.0,,77.0,1.0,0.0,23.0,stop_signal_with_predictable_task_switching,,,,,,0.0-0.0-69.0,77.0,high,8.0,even,"[77, 90]",switch,parity,,591,1000.0,<div class = bigbox><div class = quad_box><div class = decision-bottom-right><div class = gng_number><div class = cue-text><img class = center src='/static/experiments/stop_signal_with_predictable_task_switching/images/8.png'></img></div></div></div></div></div>,,go,,151619,0.0,practice_trial,69,stop-signal,,3.0
70,,,,,,,,500.0,,,,,,stop_signal_with_predictable_task_switching,,,,,,0.0-0.0-70.0,-1.0,,,,none,,,,-1,500.0,"<div class = fb_box><div class = center-text><font size = 20>Correct!</font></div></div><div class = prompt_box><p class = center-block-text style = ""font-size:16px; line-height:80%;"">Do not respond if a star appears!</p><p class = center-block-text style = ""font-size:16px; line-height:80%;"">Top 2 quadrants: Judge number on magnitude</p><p class = center-block-text style = ""font-size:16px; line-height:80%;"">high: M Key | low: Z Key</p><p class = center-block-text style = ""font-size:16px; line-height:80%;"">Bottom 2 quadrants: Judge number on parity</p><p class = center-block-text style = ""font-size:16px; line-height:80%;"">even: M Key | odd: Z Key</p></div>",,,,152123,0.0,practice-stop-feedback,70,poldrack-single-stim,,
71,,,,,,,,500.0,,,,,,stop_signal_with_predictable_task_switching,,,,,,0.0-0.0-71.0,-1.0,,,,none,,,,-1,500.0,<div class = bigbox><div class = quad_box><div class = decision-bottom-left><div class = fixation>+</div></div></div></div>,,,,152631,0.0,practice_fixation,71,poldrack-single-stim,,
72,450.0,400.0,450.0,500.0,<div class = bigbox><div class = quad_box><div class = decision-bottom-left><img class = center src='/static/experiments/stop_signal_with_predictable_task_switching/images/stopSignal.png'></img></div></div></div>,go,,2000.0,,90.0,1.0,0.0,24.0,stop_signal_with_predictable_task_switching,,,,,,0.0-0.0-72.0,90.0,high,7.0,odd,"[77, 90]",stay,parity,,860,1000.0,<div class = bigbox><div class = quad_box><div class = decision-bottom-left><div class = gng_number><div class = cue-text><img class = center src='/static/experiments/stop_signal_with_predictable_task_switching/images/7.png'></img></div></div></div></div></div>,,go,,154646,0.0,practice_trial,72,stop-signal,,4.0
73,,,,,,,,500.0,,,,,,stop_signal_with_predictable_task_switching,,,,,,0.0-0.0-73.0,-1.0,,,,none,,,,-1,500.0,"<div class = fb_box><div class = center-text><font size = 20>Correct!</font></div></div><div class = prompt_box><p class = center-block-text style = ""font-size:16px; line-height:80%;"">Do not respond if a star appears!</p><p class = center-block-text style = ""font-size:16px; line-height:80%;"">Top 2 quadrants: Judge number on magnitude</p><p class = center-block-text style = ""font-size:16px; line-height:80%;"">high: M Key | low: Z Key</p><p class = center-block-text style = ""font-size:16px; line-height:80%;"">Bottom 2 quadrants: Judge number on parity</p><p class = center-block-text style = ""font-size:16px; line-height:80%;"">even: M Key | odd: Z Key</p></div>",,,,155153,0.0,practice-stop-feedback,73,poldrack-single-stim,,
74,,,,,,,,500.0,,,,,,stop_signal_with_predictable_task_switching,,,,,,0.0-0.0-74.0,-1.0,,,,none,,,,-1,500.0,<div class = bigbox><div class = quad_box><div class = decision-top-left><div class = fixation>+</div></div></div></div>,,,,155668,0.0,practice_fixation,74,poldrack-single-stim,,
75,450.0,400.0,400.0,500.0,<div class = bigbox><div class = quad_box><div class = decision-top-left><img class = center src='/static/experiments/stop_signal_with_predictable_task_switching/images/stopSignal.png'></img></div></div></div>,stop,,2000.0,,-1.0,1.0,0.0,25.0,stop_signal_with_predictable_task_switching,,,,,,0.0-0.0-75.0,-1.0,low,2.0,even,"[77, 90]",switch,magnitude,,-1,1000.0,<div class = bigbox><div class = quad_box><div class = decision-top-left><div class = gng_number><div class = cue-text><img class = center src='/static/experiments/stop_signal_with_predictable_task_switching/images/2.png'></img></div></div></div></div></div>,1.0,stop,,157684,0.0,practice_trial,75,stop-signal,,1.0
76,,,,,,,,500.0,,,,,,stop_signal_with_predictable_task_switching,,,,,,0.0-0.0-76.0,-1.0,,,,none,,,,-1,500.0,"<div class = fb_box><div class = center-text><font size = 20>Correct!</font></div></div><div class = prompt_box><p class = center-block-text style = ""font-size:16px; line-height:80%;"">Do not respond if a star appears!</p><p class = center-block-text style = ""font-size:16px; line-height:80%;"">Top 2 quadrants: Judge number on magnitude</p><p class = center-block-text style = ""font-size:16px; line-height:80%;"">high: M Key | low: Z Key</p><p class = center-block-text style = ""font-size:16px; line-height:80%;"">Bottom 2 quadrants: Judge number on parity</p><p class = center-block-text style = ""font-size:16px; line-height:80%;"">even: M Key | odd: Z Key</p></div>",,,,158199,0.0,practice-stop-feedback,76,poldrack-single-stim,,
77,,,,,,,,2091.0,,,,,,stop_signal_with_predictable_task_switching,,,,,,0.0-1.0,13.0,,,,[13],,,,2091,2091.0,<div class = bigbox><div class = picture_box><p class = block-text><br>Please take this time to read your feedback and to take a short break! Press enter to continue</p><p class = block-text>Done with this practice. Press Enter to continue.</p></div></div>,,,,160310,0.0,feedback_block,77,poldrack-single-stim,,
78,,,,,,,,5882.0,,,,,,stop_signal_with_predictable_task_switching,,,,,,0.0-2.0,13.0,,,,,,,,5882,,,,,"<div class = centerbox><p class = block-text>We will now start the test portion</p><p class = block-text>Please judge the number on magnitude (higher or lower than 5) or parity (odd or even), depending on which quadrant the numbers are in.</p><p class = block-text>In the top two quadrants, please judge the number based on <i>magnitude</i>. Press the <i>M Key  if high</i>, and the <i>Z Key  if low</i>.</p><p class = block-text>In the bottom two quadrants, please judge the number based on <i>parity.</i> Press the <i>M Key if even</i>, and the <i>Z Key if odd</i>.</p><p class = block-text>On some trials, you will see a star appear at the same time, or shortly after, the number. <i>Do not respond if you see a star.</i>  Do not slow down your responses in order to wait for the star.</p><p class = block-text>You will no longer receive the rule prompt, so remember the instructions before you continue. Press Enter to begin.</p></div>",166197,1000.0,instruction,78,poldrack-text,,
79,,,,,,,,1074.0,,,,,,stop_signal_with_predictable_task_switching,,,,,,0.0-3.0-0.0,13.0,,,,[13],,,,1074,1074.0,<div class = bigbox><div class = picture_box><p class = block-text>We will now start the test portion. Press enter to begin.</p></div></div>,,,,168277,0.0,feedback_block,79,poldrack-single-stim,,
80,,,,,,,,6887.0,True,187.0,,,,stop_signal_with_predictable_task_switching,,,,,,0.0-3.0-1.0-0.0,187.0,,,,[],,,,6887,6887.0,"<p>Press the key that indicates ""equals"" or ""equality"" when you press it, and ""plus"" or ""addition"" if you are holding the shift-key when you press it. <p>",,,,175176,200.0,attention_check,80,attention-check,,
81,,,,,,,,500.0,,,,,,stop_signal_with_predictable_task_switching,,,,,,0.0-3.0-2.0,-1.0,,,,none,,,,-1,500.0,<div class = bigbox><div class = quad_box><div class = decision-bottom-left><div class = fixation>+</div></div></div></div>,,,,175883,0.0,test_fixation,81,poldrack-single-stim,,
82,450.0,450.0,,500.0,<div class = bigbox><div class = quad_box><div class = decision-bottom-left><img class = center src='/static/experiments/stop_signal_with_predictable_task_switching/images/stopSignal.png'></img></div></div></div>,go,,2000.0,,77.0,1.0,0.0,1.0,stop_signal_with_predictable_task_switching,,,,,,0.0-3.0-3.0,77.0,low,2.0,even,"[77, 90]",N/A,parity,,765,1000.0,<div class = bigbox><div class = quad_box><div class = decision-bottom-left><div class = gng_number><div class = cue-text><img class = center src='/static/experiments/stop_signal_with_predictable_task_switching/images/2.png'></img></div></div></div></div></div>,,go,,177904,0.0,test_trial,82,stop-signal,,4.0
83,,,,,,,,500.0,,,,,,stop_signal_with_predictable_task_switching,,,,,,0.0-3.0-4.0,-1.0,,,,none,,,,-1,500.0,<div class = bigbox><div class = quad_box><div class = decision-top-left><div class = fixation>+</div></div></div></div>,,,,178410,0.0,test_fixation,83,poldrack-single-stim,,
84,450.0,450.0,450.0,500.0,<div class = bigbox><div class = quad_box><div class = decision-top-left><img class = center src='/static/experiments/stop_signal_with_predictable_task_switching/images/stopSignal.png'></img></div></div></div>,go,,2000.0,,90.0,1.0,0.0,2.0,stop_signal_with_predictable_task_switching,,,,,,0.0-3.0-5.0,90.0,low,2.0,even,"[77, 90]",switch,magnitude,,727,1000.0,<div class = bigbox><div class = quad_box><div class = decision-top-left><div class = gng_number><div class = cue-text><img class = center src='/static/experiments/stop_signal_with_predictable_task_switching/images/2.png'></img></div></div></div></div></div>,,go,,180418,0.0,test_trial,84,stop-signal,,1.0
85,,,,,,,,500.0,,,,,,stop_signal_with_predictable_task_switching,,,,,,0.0-3.0-6.0,-1.0,,,,none,,,,-1,500.0,<div class = bigbox><div class = quad_box><div class = decision-top-right><div class = fixation>+</div></div></div></div>,,,,180928,0.0,test_fixation,85,poldrack-single-stim,,
86,450.0,450.0,450.0,500.0,<div class = bigbox><div class = quad_box><div class = decision-top-right><img class = center src='/static/experiments/stop_signal_with_predictable_task_switching/images/stopSignal.png'></img></div></div></div>,go,,2000.0,,90.0,1.0,0.0,3.0,stop_signal_with_predictable_task_switching,,,,,,0.0-3.0-7.0,90.0,low,2.0,even,"[77, 90]",stay,magnitude,,706,1000.0,<div class = bigbox><div class = quad_box><div class = decision-top-right><div class = gng_number><div class = cue-text><img class = center src='/static/experiments/stop_signal_with_predictable_task_switching/images/2.png'></img></div></div></div></div></div>,,go,,182933,0.0,test_trial,86,stop-signal,,2.0
87,,,,,,,,500.0,,,,,,stop_signal_with_predictable_task_switching,,,,,,0.0-3.0-8.0,-1.0,,,,none,,,,-1,500.0,<div class = bigbox><div class = quad_box><div class = decision-bottom-right><div class = fixation>+</div></div></div></div>,,,,183438,0.0,test_fixation,87,poldrack-single-stim,,
88,450.0,450.0,450.0,500.0,<div class = bigbox><div class = quad_box><div class = decision-bottom-right><img class = center src='/static/experiments/stop_signal_with_predictable_task_switching/images/stopSignal.png'></img></div></div></div>,go,,2000.0,,90.0,1.0,0.0,4.0,stop_signal_with_predictable_task_switching,,,,,,0.0-3.0-9.0,90.0,high,9.0,odd,"[77, 90]",switch,parity,,633,1000.0,<div class = bigbox><div class = quad_box><div class = decision-bottom-right><div class = gng_number><div class = cue-text><img class = center src='/static/experiments/stop_signal_with_predictable_task_switching/images/9.png'></img></div></div></div></div></div>,,go,,185446,0.0,test_trial,88,stop-signal,,3.0
89,,,,,,,,500.0,,,,,,stop_signal_with_predictable_task_switching,,,,,,0.0-3.0-10.0,-1.0,,,,none,,,,-1,500.0,<div class = bigbox><div class = quad_box><div class = decision-bottom-left><div class = fixation>+</div></div></div></div>,,,,185953,0.0,test_fixation,89,poldrack-single-stim,,
90,450.0,450.0,450.0,500.0,<div class = bigbox><div class = quad_box><div class = decision-bottom-left><img class = center src='/static/experiments/stop_signal_with_predictable_task_switching/images/stopSignal.png'></img></div></div></div>,go,,2000.0,,77.0,1.0,0.0,5.0,stop_signal_with_predictable_task_switching,,,,,,0.0-3.0-11.0,77.0,low,4.0,even,"[77, 90]",stay,parity,,558,1000.0,<div class = bigbox><div class = quad_box><div class = decision-bottom-left><div class = gng_number><div class = cue-text><img class = center src='/static/experiments/stop_signal_with_predictable_task_switching/images/4.png'></img></div></div></div></div></div>,,go,,187958,0.0,test_trial,90,stop-signal,,4.0
91,,,,,,,,500.0,,,,,,stop_signal_with_predictable_task_switching,,,,,,0.0-3.0-12.0,-1.0,,,,none,,,,-1,500.0,<div class = bigbox><div class = quad_box><div class = decision-top-left><div class = fixation>+</div></div></div></div>,,,,188463,0.0,test_fixation,91,poldrack-single-stim,,
92,450.0,450.0,450.0,500.0,<div class = bigbox><div class = quad_box><div class = decision-top-left><img class = center src='/static/experiments/stop_signal_with_predictable_task_switching/images/stopSignal.png'></img></div></div></div>,go,,2000.0,,77.0,0.0,0.0,6.0,stop_signal_with_predictable_task_switching,,,,,,0.0-3.0-13.0,90.0,high,9.0,odd,"[77, 90]",switch,magnitude,,573,1000.0,<div class = bigbox><div class = quad_box><div class = decision-top-left><div class = gng_number><div class = cue-text><img class = center src='/static/experiments/stop_signal_with_predictable_task_switching/images/9.png'></img></div></div></div></div></div>,,go,,190468,0.0,test_trial,92,stop-signal,,1.0
93,,,,,,,,500.0,,,,,,stop_signal_with_predictable_task_switching,,,,,,0.0-3.0-14.0,-1.0,,,,none,,,,-1,500.0,<div class = bigbox><div class = quad_box><div class = decision-top-right><div class = fixation>+</div></div></div></div>,,,,190972,0.0,test_fixation,93,poldrack-single-stim,,
94,450.0,450.0,450.0,500.0,<div class = bigbox><div class = quad_box><div class = decision-top-right><img class = center src='/static/experiments/stop_signal_with_predictable_task_switching/images/stopSignal.png'></img></div></div></div>,go,,2000.0,,90.0,1.0,0.0,7.0,stop_signal_with_predictable_task_switching,,,,,,0.0-3.0-15.0,90.0,low,2.0,even,"[77, 90]",stay,magnitude,,562,1000.0,<div class = bigbox><div class = quad_box><div class = decision-top-right><div class = gng_number><div class = cue-text><img class = center src='/static/experiments/stop_signal_with_predictable_task_switching/images/2.png'></img></div></div></div></div></div>,,go,,192977,0.0,test_trial,94,stop-signal,,2.0
95,,,,,,,,500.0,,,,,,stop_signal_with_predictable_task_switching,,,,,,0.0-3.0-16.0,-1.0,,,,none,,,,-1,500.0,<div class = bigbox><div class = quad_box><div class = decision-bottom-right><div class = fixation>+</div></div></div></div>,,,,193481,0.0,test_fixation,95,poldrack-single-stim,,
96,450.0,450.0,450.0,500.0,<div class = bigbox><div class = quad_box><div class = decision-bottom-right><img class = center src='/static/experiments/stop_signal_with_predictable_task_switching/images/stopSignal.png'></img></div></div></div>,go,,2000.0,,90.0,0.0,0.0,8.0,stop_signal_with_predictable_task_switching,,,,,,0.0-3.0-17.0,77.0,high,9.0,odd,"[77, 90]",switch,parity,,529,1000.0,<div class = bigbox><div class = quad_box><div class = decision-bottom-right><div class = gng_number><div class = cue-text><img class = center src='/static/experiments/stop_signal_with_predictable_task_switching/images/9.png'></img></div></div></div></div></div>,,go,,195487,0.0,test_trial,96,stop-signal,,3.0
97,,,,,,,,500.0,,,,,,stop_signal_with_predictable_task_switching,,,,,,0.0-3.0-18.0,-1.0,,,,none,,,,-1,500.0,<div class = bigbox><div class = quad_box><div class = decision-bottom-left><div class = fixation>+</div></div></div></div>,,,,195992,0.0,test_fixation,97,poldrack-single-stim,,
98,450.0,450.0,450.0,500.0,<div class = bigbox><div class = quad_box><div class = decision-bottom-left><img class = center src='/static/experiments/stop_signal_with_predictable_task_switching/images/stopSignal.png'></img></div></div></div>,stop,,2000.0,,-1.0,0.0,0.0,9.0,stop_signal_with_predictable_task_switching,,,,,,0.0-3.0-19.0,90.0,low,3.0,odd,"[77, 90]",stay,parity,,587,1000.0,<div class = bigbox><div class = quad_box><div class = decision-bottom-left><div class = gng_number><div class = cue-text><img class = center src='/static/experiments/stop_signal_with_predictable_task_switching/images/3.png'></img></div></div></div></div></div>,0.0,stop,,197999,0.0,test_trial,98,stop-signal,,4.0
99,,,,,,,,500.0,,,,,,stop_signal_with_predictable_task_switching,,,,,,0.0-3.0-20.0,-1.0,,,,none,,,,-1,500.0,<div class = bigbox><div class = quad_box><div class = decision-top-left><div class = fixation>+</div></div></div></div>,,,,198510,0.0,test_fixation,99,poldrack-single-stim,,
100,400.0,450.0,450.0,500.0,<div class = bigbox><div class = quad_box><div class = decision-top-left><img class = center src='/static/experiments/stop_signal_with_predictable_task_switching/images/stopSignal.png'></img></div></div></div>,go,,2000.0,,90.0,1.0,0.0,10.0,stop_signal_with_predictable_task_switching,,,,,,0.0-3.0-21.0,90.0,low,1.0,odd,"[77, 90]",switch,magnitude,,462,1000.0,<div class = bigbox><div class = quad_box><div class = decision-top-left><div class = gng_number><div class = cue-text><img class = center src='/static/experiments/stop_signal_with_predictable_task_switching/images/1.png'></img></div></div></div></div></div>,,go,,200515,0.0,test_trial,100,stop-signal,,1.0
101,,,,,,,,500.0,,,,,,stop_signal_with_predictable_task_switching,,,,,,0.0-3.0-22.0,-1.0,,,,none,,,,-1,500.0,<div class = bigbox><div class = quad_box><div class = decision-top-right><div class = fixation>+</div></div></div></div>,,,,201025,0.0,test_fixation,101,poldrack-single-stim,,
102,400.0,450.0,400.0,500.0,<div class = bigbox><div class = quad_box><div class = decision-top-right><img class = center src='/static/experiments/stop_signal_with_predictable_task_switching/images/stopSignal.png'></img></div></div></div>,stop,,2000.0,,-1.0,1.0,0.0,11.0,stop_signal_with_predictable_task_switching,,,,,,0.0-3.0-23.0,-1.0,high,7.0,odd,"[77, 90]",stay,magnitude,,-1,1000.0,<div class = bigbox><div class = quad_box><div class = decision-top-right><div class = gng_number><div class = cue-text><img class = center src='/static/experiments/stop_signal_with_predictable_task_switching/images/7.png'></img></div></div></div></div></div>,1.0,stop,,203032,0.0,test_trial,102,stop-signal,,2.0
103,,,,,,,,500.0,,,,,,stop_signal_with_predictable_task_switching,,,,,,0.0-3.0-24.0,-1.0,,,,none,,,,-1,500.0,<div class = bigbox><div class = quad_box><div class = decision-bottom-right><div class = fixation>+</div></div></div></div>,,,,203543,0.0,test_fixation,103,poldrack-single-stim,,
104,450.0,450.0,450.0,500.0,<div class = bigbox><div class = quad_box><div class = decision-bottom-right><img class = center src='/static/experiments/stop_signal_with_predictable_task_switching/images/stopSignal.png'></img></div></div></div>,go,,2000.0,,90.0,1.0,0.0,12.0,stop_signal_with_predictable_task_switching,,,,,,0.0-3.0-25.0,90.0,low,3.0,odd,"[77, 90]",switch,parity,,561,1000.0,<div class = bigbox><div class = quad_box><div class = decision-bottom-right><div class = gng_number><div class = cue-text><img class = center src='/static/experiments/stop_signal_with_predictable_task_switching/images/3.png'></img></div></div></div></div></div>,,go,,205553,0.0,test_trial,104,stop-signal,,3.0
105,,,,,,,,500.0,,,,,,stop_signal_with_predictable_task_switching,,,,,,0.0-3.0-26.0,-1.0,,,,none,,,,-1,500.0,<div class = bigbox><div class = quad_box><div class = decision-bottom-left><div class = fixation>+</div></div></div></div>,,,,206062,0.0,test_fixation,105,poldrack-single-stim,,
106,450.0,450.0,450.0,500.0,<div class = bigbox><div class = quad_box><div class = decision-bottom-left><img class = center src='/static/experiments/stop_signal_with_predictable_task_switching/images/stopSignal.png'></img></div></div></div>,stop,,2000.0,,-1.0,0.0,0.0,13.0,stop_signal_with_predictable_task_switching,,,,,,0.0-3.0-27.0,90.0,low,3.0,odd,"[77, 90]",stay,parity,,534,1000.0,<div class = bigbox><div class = quad_box><div class = decision-bottom-left><div class = gng_number><div class = cue-text><img class = center src='/static/experiments/stop_signal_with_predictable_task_switching/images/3.png'></img></div></div></div></div></div>,0.0,stop,,208065,0.0,test_trial,106,stop-signal,,4.0
107,,,,,,,,500.0,,,,,,stop_signal_with_predictable_task_switching,,,,,,0.0-3.0-28.0,-1.0,,,,none,,,,-1,500.0,<div class = bigbox><div class = quad_box><div class = decision-top-left><div class = fixation>+</div></div></div></div>,,,,208569,0.0,test_fixation,107,poldrack-single-stim,,
108,400.0,450.0,450.0,500.0,<div class = bigbox><div class = quad_box><div class = decision-top-left><img class = center src='/static/experiments/stop_signal_with_predictable_task_switching/images/stopSignal.png'></img></div></div></div>,go,,2000.0,,90.0,1.0,0.0,14.0,stop_signal_with_predictable_task_switching,,,,,,0.0-3.0-29.0,90.0,low,4.0,even,"[77, 90]",switch,magnitude,,736,1000.0,<div class = bigbox><div class = quad_box><div class = decision-top-left><div class = gng_number><div class = cue-text><img class = center src='/static/experiments/stop_signal_with_predictable_task_switching/images/4.png'></img></div></div></div></div></div>,,go,,210574,0.0,test_trial,108,stop-signal,,1.0
109,,,,,,,,500.0,,,,,,stop_signal_with_predictable_task_switching,,,,,,0.0-3.0-30.0,-1.0,,,,none,,,,-1,500.0,<div class = bigbox><div class = quad_box><div class = decision-top-right><div class = fixation>+</div></div></div></div>,,,,211082,0.0,test_fixation,109,poldrack-single-stim,,
110,400.0,450.0,400.0,500.0,<div class = bigbox><div class = quad_box><div class = decision-top-right><img class = center src='/static/experiments/stop_signal_with_predictable_task_switching/images/stopSignal.png'></img></div></div></div>,go,,2000.0,,77.0,1.0,0.0,15.0,stop_signal_with_predictable_task_switching,,,,,,0.0-3.0-31.0,77.0,high,8.0,even,"[77, 90]",stay,magnitude,,750,1000.0,<div class = bigbox><div class = quad_box><div class = decision-top-right><div class = gng_number><div class = cue-text><img class = center src='/static/experiments/stop_signal_with_predictable_task_switching/images/8.png'></img></div></div></div></div></div>,,go,,213102,0.0,test_trial,110,stop-signal,,2.0
111,,,,,,,,500.0,,,,,,stop_signal_with_predictable_task_switching,,,,,,0.0-3.0-32.0,-1.0,,,,none,,,,-1,500.0,<div class = bigbox><div class = quad_box><div class = decision-bottom-right><div class = fixation>+</div></div></div></div>,,,,213607,0.0,test_fixation,111,poldrack-single-stim,,
112,400.0,450.0,450.0,500.0,<div class = bigbox><div class = quad_box><div class = decision-bottom-right><img class = center src='/static/experiments/stop_signal_with_predictable_task_switching/images/stopSignal.png'></img></div></div></div>,go,,2000.0,,90.0,1.0,0.0,16.0,stop_signal_with_predictable_task_switching,,,,,,0.0-3.0-33.0,90.0,high,9.0,odd,"[77, 90]",switch,parity,,816,1000.0,<div class = bigbox><div class = quad_box><div class = decision-bottom-right><div class = gng_number><div class = cue-text><img class = center src='/static/experiments/stop_signal_with_predictable_task_switching/images/9.png'></img></div></div></div></div></div>,,go,,215615,0.0,test_trial,112,stop-signal,,3.0
113,,,,,,,,500.0,,,,,,stop_signal_with_predictable_task_switching,,,,,,0.0-3.0-34.0,-1.0,,,,none,,,,-1,500.0,<div class = bigbox><div class = quad_box><div class = decision-bottom-left><div class = fixation>+</div></div></div></div>,,,,216122,0.0,test_fixation,113,poldrack-single-stim,,
114,400.0,450.0,400.0,500.0,<div class = bigbox><div class = quad_box><div class = decision-bottom-left><img class = center src='/static/experiments/stop_signal_with_predictable_task_switching/images/stopSignal.png'></img></div></div></div>,go,,2000.0,,77.0,1.0,0.0,17.0,stop_signal_with_predictable_task_switching,,,,,,0.0-3.0-35.0,77.0,high,8.0,even,"[77, 90]",stay,parity,,623,1000.0,<div class = bigbox><div class = quad_box><div class = decision-bottom-left><div class = gng_number><div class = cue-text><img class = center src='/static/experiments/stop_signal_with_predictable_task_switching/images/8.png'></img></div></div></div></div></div>,,go,,218138,0.0,test_trial,114,stop-signal,,4.0
115,,,,,,,,500.0,,,,,,stop_signal_with_predictable_task_switching,,,,,,0.0-3.0-36.0,-1.0,,,,none,,,,-1,500.0,<div class = bigbox><div class = quad_box><div class = decision-top-left><div class = fixation>+</div></div></div></div>,,,,218652,0.0,test_fixation,115,poldrack-single-stim,,
116,400.0,450.0,450.0,500.0,<div class = bigbox><div class = quad_box><div class = decision-top-left><img class = center src='/static/experiments/stop_signal_with_predictable_task_switching/images/stopSignal.png'></img></div></div></div>,go,,2000.0,,77.0,0.0,0.0,18.0,stop_signal_with_predictable_task_switching,,,,,,0.0-3.0-37.0,90.0,high,9.0,odd,"[77, 90]",switch,magnitude,,559,1000.0,<div class = bigbox><div class = quad_box><div class = decision-top-left><div class = gng_number><div class = cue-text><img class = center src='/static/experiments/stop_signal_with_predictable_task_switching/images/9.png'></img></div></div></div></div></div>,,go,,220656,0.0,test_trial,116,stop-signal,,1.0
117,,,,,,,,500.0,,,,,,stop_signal_with_predictable_task_switching,,,,,,0.0-3.0-38.0,-1.0,,,,none,,,,-1,500.0,<div class = bigbox><div class = quad_box><div class = decision-top-right><div class = fixation>+</div></div></div></div>,,,,221160,0.0,test_fixation,117,poldrack-single-stim,,
118,400.0,450.0,400.0,500.0,<div class = bigbox><div class = quad_box><div class = decision-top-right><img class = center src='/static/experiments/stop_signal_with_predictable_task_switching/images/stopSignal.png'></img></div></div></div>,go,,2000.0,,77.0,1.0,0.0,19.0,stop_signal_with_predictable_task_switching,,,,,,0.0-3.0-39.0,77.0,high,7.0,odd,"[77, 90]",stay,magnitude,,577,1000.0,<div class = bigbox><div class = quad_box><div class = decision-top-right><div class = gng_number><div class = cue-text><img class = center src='/static/experiments/stop_signal_with_predictable_task_switching/images/7.png'></img></div></div></div></div></div>,,go,,223165,0.0,test_trial,118,stop-signal,,2.0
119,,,,,,,,500.0,,,,,,stop_signal_with_predictable_task_switching,,,,,,0.0-3.0-40.0,-1.0,,,,none,,,,-1,500.0,<div class = bigbox><div class = quad_box><div class = decision-bottom-right><div class = fixation>+</div></div></div></div>,,,,223670,0.0,test_fixation,119,poldrack-single-stim,,
120,400.0,450.0,450.0,500.0,<div class = bigbox><div class = quad_box><div class = decision-bottom-right><img class = center src='/static/experiments/stop_signal_with_predictable_task_switching/images/stopSignal.png'></img></div></div></div>,stop,,2000.0,,-1.0,0.0,0.0,20.0,stop_signal_with_predictable_task_switching,,,,,,0.0-3.0-41.0,90.0,high,9.0,odd,"[77, 90]",switch,parity,,493,1000.0,<div class = bigbox><div class = quad_box><div class = decision-bottom-right><div class = gng_number><div class = cue-text><img class = center src='/static/experiments/stop_signal_with_predictable_task_switching/images/9.png'></img></div></div></div></div></div>,0.0,stop,,225680,0.0,test_trial,120,stop-signal,,3.0
121,,,,,,,,500.0,,,,,,stop_signal_with_predictable_task_switching,,,,,,0.0-3.0-42.0,-1.0,,,,none,,,,-1,500.0,<div class = bigbox><div class = quad_box><div class = decision-bottom-left><div class = fixation>+</div></div></div></div>,,,,226185,0.0,test_fixation,121,poldrack-single-stim,,
122,400.0,400.0,400.0,500.0,<div class = bigbox><div class = quad_box><div class = decision-bottom-left><img class = center src='/static/experiments/stop_signal_with_predictable_task_switching/images/stopSignal.png'></img></div></div></div>,go,,2000.0,,90.0,0.0,0.0,21.0,stop_signal_with_predictable_task_switching,,,,,,0.0-3.0-43.0,77.0,low,3.0,odd,"[77, 90]",stay,parity,,850,1000.0,<div class = bigbox><div class = quad_box><div class = decision-bottom-left><div class = gng_number><div class = cue-text><img class = center src='/static/experiments/stop_signal_with_predictable_task_switching/images/3.png'></img></div></div></div></div></div>,,go,,228192,0.0,test_trial,122,stop-signal,,4.0
123,,,,,,,,500.0,,,,,,stop_signal_with_predictable_task_switching,,,,,,0.0-3.0-44.0,-1.0,,,,none,,,,-1,500.0,<div class = bigbox><div class = quad_box><div class = decision-top-left><div class = fixation>+</div></div></div></div>,,,,228697,0.0,test_fixation,123,poldrack-single-stim,,
124,400.0,400.0,400.0,500.0,<div class = bigbox><div class = quad_box><div class = decision-top-left><img class = center src='/static/experiments/stop_signal_with_predictable_task_switching/images/stopSignal.png'></img></div></div></div>,go,,2000.0,,77.0,1.0,0.0,22.0,stop_signal_with_predictable_task_switching,,,,,,0.0-3.0-45.0,77.0,high,9.0,odd,"[77, 90]",switch,magnitude,,942,1000.0,<div class = bigbox><div class = quad_box><div class = decision-top-left><div class = gng_number><div class = cue-text><img class = center src='/static/experiments/stop_signal_with_predictable_task_switching/images/9.png'></img></div></div></div></div></div>,,go,,230705,0.0,test_trial,124,stop-signal,,1.0
125,,,,,,,,500.0,,,,,,stop_signal_with_predictable_task_switching,,,,,,0.0-3.0-46.0,-1.0,,,,none,,,,-1,500.0,<div class = bigbox><div class = quad_box><div class = decision-top-right><div class = fixation>+</div></div></div></div>,,,,231213,0.0,test_fixation,125,poldrack-single-stim,,
126,400.0,400.0,400.0,500.0,<div class = bigbox><div class = quad_box><div class = decision-top-right><img class = center src='/static/experiments/stop_signal_with_predictable_task_switching/images/stopSignal.png'></img></div></div></div>,stop,,2000.0,,-1.0,1.0,0.0,23.0,stop_signal_with_predictable_task_switching,,,,,,0.0-3.0-47.0,-1.0,low,4.0,even,"[77, 90]",stay,magnitude,,-1,1000.0,<div class = bigbox><div class = quad_box><div class = decision-top-right><div class = gng_number><div class = cue-text><img class = center src='/static/experiments/stop_signal_with_predictable_task_switching/images/4.png'></img></div></div></div></div></div>,1.0,stop,,233219,0.0,test_trial,126,stop-signal,,2.0
127,,,,,,,,500.0,,,,,,stop_signal_with_predictable_task_switching,,,,,,0.0-3.0-48.0,-1.0,,,,none,,,,-1,500.0,<div class = bigbox><div class = quad_box><div class = decision-bottom-right><div class = fixation>+</div></div></div></div>,,,,233731,0.0,test_fixation,127,poldrack-single-stim,,
128,450.0,400.0,400.0,500.0,<div class = bigbox><div class = quad_box><div class = decision-bottom-right><img class = center src='/static/experiments/stop_signal_with_predictable_task_switching/images/stopSignal.png'></img></div></div></div>,go,,2000.0,,77.0,0.0,0.0,24.0,stop_signal_with_predictable_task_switching,,,,,,0.0-3.0-49.0,90.0,low,2.0,even,"[77, 90]",switch,parity,,468,1000.0,<div class = bigbox><div class = quad_box><div class = decision-bottom-right><div class = gng_number><div class = cue-text><img class = center src='/static/experiments/stop_signal_with_predictable_task_switching/images/2.png'></img></div></div></div></div></div>,,go,,235750,0.0,test_trial,128,stop-signal,,3.0
129,,,,,,,,500.0,,,,,,stop_signal_with_predictable_task_switching,,,,,,0.0-3.0-50.0,-1.0,,,,none,,,,-1,500.0,<div class = bigbox><div class = quad_box><div class = decision-bottom-left><div class = fixation>+</div></div></div></div>,,,,236259,0.0,test_fixation,129,poldrack-single-stim,,
130,450.0,400.0,450.0,500.0,<div class = bigbox><div class = quad_box><div class = decision-bottom-left><img class = center src='/static/experiments/stop_signal_with_predictable_task_switching/images/stopSignal.png'></img></div></div></div>,go,,2000.0,,77.0,1.0,0.0,25.0,stop_signal_with_predictable_task_switching,,,,,,0.0-3.0-51.0,77.0,low,4.0,even,"[77, 90]",stay,parity,,608,1000.0,<div class = bigbox><div class = quad_box><div class = decision-bottom-left><div class = gng_number><div class = cue-text><img class = center src='/static/experiments/stop_signal_with_predictable_task_switching/images/4.png'></img></div></div></div></div></div>,,go,,238263,0.0,test_trial,130,stop-signal,,4.0
131,,,,,,,,500.0,,,,,,stop_signal_with_predictable_task_switching,,,,,,0.0-3.0-52.0,-1.0,,,,none,,,,-1,500.0,<div class = bigbox><div class = quad_box><div class = decision-top-left><div class = fixation>+</div></div></div></div>,,,,238768,0.0,test_fixation,131,poldrack-single-stim,,
132,450.0,400.0,400.0,500.0,<div class = bigbox><div class = quad_box><div class = decision-top-left><img class = center src='/static/experiments/stop_signal_with_predictable_task_switching/images/stopSignal.png'></img></div></div></div>,stop,,2000.0,,-1.0,0.0,0.0,26.0,stop_signal_with_predictable_task_switching,,,,,,0.0-3.0-53.0,90.0,low,1.0,odd,"[77, 90]",switch,magnitude,,518,1000.0,<div class = bigbox><div class = quad_box><div class = decision-top-left><div class = gng_number><div class = cue-text><img class = center src='/static/experiments/stop_signal_with_predictable_task_switching/images/1.png'></img></div></div></div></div></div>,0.0,stop,,240781,0.0,test_trial,132,stop-signal,,1.0
133,,,,,,,,500.0,,,,,,stop_signal_with_predictable_task_switching,,,,,,0.0-3.0-54.0,-1.0,,,,none,,,,-1,500.0,<div class = bigbox><div class = quad_box><div class = decision-top-right><div class = fixation>+</div></div></div></div>,,,,241295,0.0,test_fixation,133,poldrack-single-stim,,
134,450.0,350.0,450.0,500.0,<div class = bigbox><div class = quad_box><div class = decision-top-right><img class = center src='/static/experiments/stop_signal_with_predictable_task_switching/images/stopSignal.png'></img></div></div></div>,go,,2000.0,,90.0,1.0,0.0,27.0,stop_signal_with_predictable_task_switching,,,,,,0.0-3.0-55.0,90.0,low,3.0,odd,"[77, 90]",stay,magnitude,,649,1000.0,<div class = bigbox><div class = quad_box><div class = decision-top-right><div class = gng_number><div class = cue-text><img class = center src='/static/experiments/stop_signal_with_predictable_task_switching/images/3.png'></img></div></div></div></div></div>,,go,,243299,0.0,test_trial,134,stop-signal,,2.0
135,,,,,,,,500.0,,,,,,stop_signal_with_predictable_task_switching,,,,,,0.0-3.0-56.0,-1.0,,,,none,,,,-1,500.0,<div class = bigbox><div class = quad_box><div class = decision-bottom-right><div class = fixation>+</div></div></div></div>,,,,243809,0.0,test_fixation,135,poldrack-single-stim,,
136,450.0,350.0,350.0,500.0,<div class = bigbox><div class = quad_box><div class = decision-bottom-right><img class = center src='/static/experiments/stop_signal_with_predictable_task_switching/images/stopSignal.png'></img></div></div></div>,stop,,2000.0,,-1.0,1.0,0.0,28.0,stop_signal_with_predictable_task_switching,,,,,,0.0-3.0-57.0,-1.0,low,2.0,even,"[77, 90]",switch,parity,,-1,1000.0,<div class = bigbox><div class = quad_box><div class = decision-bottom-right><div class = gng_number><div class = cue-text><img class = center src='/static/experiments/stop_signal_with_predictable_task_switching/images/2.png'></img></div></div></div></div></div>,1.0,stop,,245823,0.0,test_trial,136,stop-signal,,3.0
137,,,,,,,,500.0,,,,,,stop_signal_with_predictable_task_switching,,,,,,0.0-3.0-58.0,-1.0,,,,none,,,,-1,500.0,<div class = bigbox><div class = quad_box><div class = decision-bottom-left><div class = fixation>+</div></div></div></div>,,,,246336,0.0,test_fixation,137,poldrack-single-stim,,
138,450.0,400.0,450.0,500.0,<div class = bigbox><div class = quad_box><div class = decision-bottom-left><img class = center src='/static/experiments/stop_signal_with_predictable_task_switching/images/stopSignal.png'></img></div></div></div>,stop,,2000.0,,-1.0,0.0,0.0,29.0,stop_signal_with_predictable_task_switching,,,,,,0.0-3.0-59.0,90.0,low,1.0,odd,"[77, 90]",stay,parity,,480,1000.0,<div class = bigbox><div class = quad_box><div class = decision-bottom-left><div class = gng_number><div class = cue-text><img class = center src='/static/experiments/stop_signal_with_predictable_task_switching/images/1.png'></img></div></div></div></div></div>,0.0,stop,,248342,0.0,test_trial,138,stop-signal,,4.0
139,,,,,,,,500.0,,,,,,stop_signal_with_predictable_task_switching,,,,,,0.0-3.0-60.0,-1.0,,,,none,,,,-1,500.0,<div class = bigbox><div class = quad_box><div class = decision-top-left><div class = fixation>+</div></div></div></div>,,,,248852,0.0,test_fixation,139,poldrack-single-stim,,
140,400.0,400.0,400.0,500.0,<div class = bigbox><div class = quad_box><div class = decision-top-left><img class = center src='/static/experiments/stop_signal_with_predictable_task_switching/images/stopSignal.png'></img></div></div></div>,stop,,2000.0,,-1.0,1.0,0.0,30.0,stop_signal_with_predictable_task_switching,,,,,,0.0-3.0-61.0,-1.0,low,2.0,even,"[77, 90]",switch,magnitude,,-1,1000.0,<div class = bigbox><div class = quad_box><div class = decision-top-left><div class = gng_number><div class = cue-text><img class = center src='/static/experiments/stop_signal_with_predictable_task_switching/images/2.png'></img></div></div></div></div></div>,1.0,stop,,250866,0.0,test_trial,140,stop-signal,,1.0
141,,,,,,,,500.0,,,,,,stop_signal_with_predictable_task_switching,,,,,,0.0-3.0-62.0,-1.0,,,,none,,,,-1,500.0,<div class = bigbox><div class = quad_box><div class = decision-top-right><div class = fixation>+</div></div></div></div>,,,,251376,0.0,test_fixation,141,poldrack-single-stim,,
142,400.0,450.0,400.0,500.0,<div class = bigbox><div class = quad_box><div class = decision-top-right><img class = center src='/static/experiments/stop_signal_with_predictable_task_switching/images/stopSignal.png'></img></div></div></div>,stop,,2000.0,,-1.0,1.0,0.0,31.0,stop_signal_with_predictable_task_switching,,,,,,0.0-3.0-63.0,-1.0,low,3.0,odd,"[77, 90]",stay,magnitude,,-1,1000.0,<div class = bigbox><div class = quad_box><div class = decision-top-right><div class = gng_number><div class = cue-text><img class = center src='/static/experiments/stop_signal_with_predictable_task_switching/images/3.png'></img></div></div></div></div></div>,1.0,stop,,253380,0.0,test_trial,142,stop-signal,,2.0
143,,,,,,,,500.0,,,,,,stop_signal_with_predictable_task_switching,,,,,,0.0-3.0-64.0,-1.0,,,,none,,,,-1,500.0,<div class = bigbox><div class = quad_box><div class = decision-bottom-right><div class = fixation>+</div></div></div></div>,,,,253890,0.0,test_fixation,143,poldrack-single-stim,,
144,450.0,450.0,450.0,500.0,<div class = bigbox><div class = quad_box><div class = decision-bottom-right><img class = center src='/static/experiments/stop_signal_with_predictable_task_switching/images/stopSignal.png'></img></div></div></div>,go,,2000.0,,90.0,0.0,0.0,32.0,stop_signal_with_predictable_task_switching,,,,,,0.0-3.0-65.0,77.0,low,3.0,odd,"[77, 90]",switch,parity,,1008,1000.0,<div class = bigbox><div class = quad_box><div class = decision-bottom-right><div class = gng_number><div class = cue-text><img class = center src='/static/experiments/stop_signal_with_predictable_task_switching/images/3.png'></img></div></div></div></div></div>,,go,,255896,0.0,test_trial,144,stop-signal,,3.0
145,,,,,,,,500.0,,,,,,stop_signal_with_predictable_task_switching,,,,,,0.0-3.0-66.0,-1.0,,,,none,,,,-1,500.0,<div class = bigbox><div class = quad_box><div class = decision-bottom-left><div class = fixation>+</div></div></div></div>,,,,256404,0.0,test_fixation,145,poldrack-single-stim,,
146,450.0,450.0,450.0,500.0,<div class = bigbox><div class = quad_box><div class = decision-bottom-left><img class = center src='/static/experiments/stop_signal_with_predictable_task_switching/images/stopSignal.png'></img></div></div></div>,go,,2000.0,,77.0,1.0,0.0,33.0,stop_signal_with_predictable_task_switching,,,,,,0.0-3.0-67.0,77.0,high,8.0,even,"[77, 90]",stay,parity,,745,1000.0,<div class = bigbox><div class = quad_box><div class = decision-bottom-left><div class = gng_number><div class = cue-text><img class = center src='/static/experiments/stop_signal_with_predictable_task_switching/images/8.png'></img></div></div></div></div></div>,,go,,258408,0.0,test_trial,146,stop-signal,,4.0
147,,,,,,,,500.0,,,,,,stop_signal_with_predictable_task_switching,,,,,,0.0-3.0-68.0,-1.0,,,,none,,,,-1,500.0,<div class = bigbox><div class = quad_box><div class = decision-top-left><div class = fixation>+</div></div></div></div>,,,,258912,0.0,test_fixation,147,poldrack-single-stim,,
148,450.0,450.0,450.0,500.0,<div class = bigbox><div class = quad_box><div class = decision-top-left><img class = center src='/static/experiments/stop_signal_with_predictable_task_switching/images/stopSignal.png'></img></div></div></div>,stop,,2000.0,,-1.0,1.0,0.0,34.0,stop_signal_with_predictable_task_switching,,,,,,0.0-3.0-69.0,-1.0,high,7.0,odd,"[77, 90]",switch,magnitude,,-1,1000.0,<div class = bigbox><div class = quad_box><div class = decision-top-left><div class = gng_number><div class = cue-text><img class = center src='/static/experiments/stop_signal_with_predictable_task_switching/images/7.png'></img></div></div></div></div></div>,1.0,stop,,260917,0.0,test_trial,148,stop-signal,,1.0
149,,,,,,,,500.0,,,,,,stop_signal_with_predictable_task_switching,,,,,,0.0-3.0-70.0,-1.0,,,,none,,,,-1,500.0,<div class = bigbox><div class = quad_box><div class = decision-top-right><div class = fixation>+</div></div></div></div>,,,,261424,0.0,test_fixation,149,poldrack-single-stim,,
150,450.0,500.0,450.0,500.0,<div class = bigbox><div class = quad_box><div class = decision-top-right><img class = center src='/static/experiments/stop_signal_with_predictable_task_switching/images/stopSignal.png'></img></div></div></div>,go,,2000.0,,90.0,0.0,0.0,35.0,stop_signal_with_predictable_task_switching,,,,,,0.0-3.0-71.0,77.0,low,3.0,odd,"[77, 90]",stay,magnitude,,793,1000.0,<div class = bigbox><div class = quad_box><div class = decision-top-right><div class = gng_number><div class = cue-text><img class = center src='/static/experiments/stop_signal_with_predictable_task_switching/images/3.png'></img></div></div></div></div></div>,,go,,263429,0.0,test_trial,150,stop-signal,,2.0
151,,,,,,,,500.0,,,,,,stop_signal_with_predictable_task_switching,,,,,,0.0-3.0-72.0,-1.0,,,,none,,,,-1,500.0,<div class = bigbox><div class = quad_box><div class = decision-bottom-right><div class = fixation>+</div></div></div></div>,,,,263935,0.0,test_fixation,151,poldrack-single-stim,,
152,450.0,500.0,500.0,500.0,<div class = bigbox><div class = quad_box><div class = decision-bottom-right><img class = center src='/static/experiments/stop_signal_with_predictable_task_switching/images/stopSignal.png'></img></div></div></div>,go,,2000.0,,90.0,1.0,0.0,36.0,stop_signal_with_predictable_task_switching,,,,,,0.0-3.0-73.0,90.0,high,7.0,odd,"[77, 90]",switch,parity,,733,1000.0,<div class = bigbox><div class = quad_box><div class = decision-bottom-right><div class = gng_number><div class = cue-text><img class = center src='/static/experiments/stop_signal_with_predictable_task_switching/images/7.png'></img></div></div></div></div></div>,,go,,265941,0.0,test_trial,152,stop-signal,,3.0
153,,,,,,,,500.0,,,,,,stop_signal_with_predictable_task_switching,,,,,,0.0-3.0-74.0,-1.0,,,,none,,,,-1,500.0,<div class = bigbox><div class = quad_box><div class = decision-bottom-left><div class = fixation>+</div></div></div></div>,,,,266446,0.0,test_fixation,153,poldrack-single-stim,,
154,450.0,500.0,450.0,500.0,<div class = bigbox><div class = quad_box><div class = decision-bottom-left><img class = center src='/static/experiments/stop_signal_with_predictable_task_switching/images/stopSignal.png'></img></div></div></div>,go,,2000.0,,90.0,1.0,0.0,37.0,stop_signal_with_predictable_task_switching,,,,,,0.0-3.0-75.0,90.0,high,7.0,odd,"[77, 90]",stay,parity,,587,1000.0,<div class = bigbox><div class = quad_box><div class = decision-bottom-left><div class = gng_number><div class = cue-text><img class = center src='/static/experiments/stop_signal_with_predictable_task_switching/images/7.png'></img></div></div></div></div></div>,,go,,268459,0.0,test_trial,154,stop-signal,,4.0
155,,,,,,,,500.0,,,,,,stop_signal_with_predictable_task_switching,,,,,,0.0-3.0-76.0,-1.0,,,,none,,,,-1,500.0,<div class = bigbox><div class = quad_box><div class = decision-top-left><div class = fixation>+</div></div></div></div>,,,,268996,0.0,test_fixation,155,poldrack-single-stim,,
156,450.0,500.0,500.0,500.0,<div class = bigbox><div class = quad_box><div class = decision-top-left><img class = center src='/static/experiments/stop_signal_with_predictable_task_switching/images/stopSignal.png'></img></div></div></div>,go,,2000.0,,90.0,1.0,0.0,38.0,stop_signal_with_predictable_task_switching,,,,,,0.0-3.0-77.0,90.0,low,1.0,odd,"[77, 90]",switch,magnitude,,802,1000.0,<div class = bigbox><div class = quad_box><div class = decision-top-left><div class = gng_number><div class = cue-text><img class = center src='/static/experiments/stop_signal_with_predictable_task_switching/images/1.png'></img></div></div></div></div></div>,,go,,271001,0.0,test_trial,156,stop-signal,,1.0
157,,,,,,,,500.0,,,,,,stop_signal_with_predictable_task_switching,,,,,,0.0-3.0-78.0,-1.0,,,,none,,,,-1,500.0,<div class = bigbox><div class = quad_box><div class = decision-top-right><div class = fixation>+</div></div></div></div>,,,,271509,0.0,test_fixation,157,poldrack-single-stim,,
158,450.0,500.0,450.0,500.0,<div class = bigbox><div class = quad_box><div class = decision-top-right><img class = center src='/static/experiments/stop_signal_with_predictable_task_switching/images/stopSignal.png'></img></div></div></div>,go,,2000.0,,90.0,1.0,0.0,39.0,stop_signal_with_predictable_task_switching,,,,,,0.0-3.0-79.0,90.0,low,1.0,odd,"[77, 90]",stay,magnitude,,661,1000.0,<div class = bigbox><div class = quad_box><div class = decision-top-right><div class = gng_number><div class = cue-text><img class = center src='/static/experiments/stop_signal_with_predictable_task_switching/images/1.png'></img></div></div></div></div></div>,,go,,273515,0.0,test_trial,158,stop-signal,,2.0
159,,,,,,,,500.0,,,,,,stop_signal_with_predictable_task_switching,,,,,,0.0-3.0-80.0,-1.0,,,,none,,,,-1,500.0,<div class = bigbox><div class = quad_box><div class = decision-bottom-right><div class = fixation>+</div></div></div></div>,,,,274019,0.0,test_fixation,159,poldrack-single-stim,,
160,450.0,500.0,500.0,500.0,<div class = bigbox><div class = quad_box><div class = decision-bottom-right><img class = center src='/static/experiments/stop_signal_with_predictable_task_switching/images/stopSignal.png'></img></div></div></div>,stop,,2000.0,,-1.0,1.0,0.0,40.0,stop_signal_with_predictable_task_switching,,,,,,0.0-3.0-81.0,-1.0,low,2.0,even,"[77, 90]",switch,parity,,-1,1000.0,<div class = bigbox><div class = quad_box><div class = decision-bottom-right><div class = gng_number><div class = cue-text><img class = center src='/static/experiments/stop_signal_with_predictable_task_switching/images/2.png'></img></div></div></div></div></div>,1.0,stop,,276030,0.0,test_trial,160,stop-signal,,3.0
161,,,,,,,,500.0,,,,,,stop_signal_with_predictable_task_switching,,,,,,0.0-3.0-82.0,-1.0,,,,none,,,,-1,500.0,<div class = bigbox><div class = quad_box><div class = decision-bottom-left><div class = fixation>+</div></div></div></div>,,,,276542,0.0,test_fixation,161,poldrack-single-stim,,
162,450.0,550.0,450.0,500.0,<div class = bigbox><div class = quad_box><div class = decision-bottom-left><img class = center src='/static/experiments/stop_signal_with_predictable_task_switching/images/stopSignal.png'></img></div></div></div>,go,,2000.0,,77.0,1.0,0.0,41.0,stop_signal_with_predictable_task_switching,,,,,,0.0-3.0-83.0,77.0,low,4.0,even,"[77, 90]",stay,parity,,585,1000.0,<div class = bigbox><div class = quad_box><div class = decision-bottom-left><div class = gng_number><div class = cue-text><img class = center src='/static/experiments/stop_signal_with_predictable_task_switching/images/4.png'></img></div></div></div></div></div>,,go,,278552,0.0,test_trial,162,stop-signal,,4.0
163,,,,,,,,500.0,,,,,,stop_signal_with_predictable_task_switching,,,,,,0.0-3.0-84.0,-1.0,,,,none,,,,-1,500.0,<div class = bigbox><div class = quad_box><div class = decision-top-left><div class = fixation>+</div></div></div></div>,,,,279065,0.0,test_fixation,163,poldrack-single-stim,,
164,450.0,550.0,550.0,500.0,<div class = bigbox><div class = quad_box><div class = decision-top-left><img class = center src='/static/experiments/stop_signal_with_predictable_task_switching/images/stopSignal.png'></img></div></div></div>,stop,,2000.0,,-1.0,0.0,0.0,42.0,stop_signal_with_predictable_task_switching,,,,,,0.0-3.0-85.0,90.0,high,9.0,odd,"[77, 90]",switch,magnitude,,673,1000.0,<div class = bigbox><div class = quad_box><div class = decision-top-left><div class = gng_number><div class = cue-text><img class = center src='/static/experiments/stop_signal_with_predictable_task_switching/images/9.png'></img></div></div></div></div></div>,0.0,stop,,281071,0.0,test_trial,164,stop-signal,,1.0
165,,,,,,,,500.0,,,,,,stop_signal_with_predictable_task_switching,,,,,,0.0-3.0-86.0,-1.0,,,,none,,,,-1,500.0,<div class = bigbox><div class = quad_box><div class = decision-top-right><div class = fixation>+</div></div></div></div>,,,,281582,0.0,test_fixation,165,poldrack-single-stim,,
166,450.0,500.0,450.0,500.0,<div class = bigbox><div class = quad_box><div class = decision-top-right><img class = center src='/static/experiments/stop_signal_with_predictable_task_switching/images/stopSignal.png'></img></div></div></div>,go,,2000.0,,90.0,1.0,0.0,43.0,stop_signal_with_predictable_task_switching,,,,,,0.0-3.0-87.0,90.0,low,3.0,odd,"[77, 90]",stay,magnitude,,697,1000.0,<div class = bigbox><div class = quad_box><div class = decision-top-right><div class = gng_number><div class = cue-text><img class = center src='/static/experiments/stop_signal_with_predictable_task_switching/images/3.png'></img></div></div></div></div></div>,,go,,283588,0.0,test_trial,166,stop-signal,,2.0
167,,,,,,,,500.0,,,,,,stop_signal_with_predictable_task_switching,,,,,,0.0-3.0-88.0,-1.0,,,,none,,,,-1,500.0,<div class = bigbox><div class = quad_box><div class = decision-bottom-right><div class = fixation>+</div></div></div></div>,,,,284099,0.0,test_fixation,167,poldrack-single-stim,,
168,450.0,500.0,500.0,500.0,<div class = bigbox><div class = quad_box><div class = decision-bottom-right><img class = center src='/static/experiments/stop_signal_with_predictable_task_switching/images/stopSignal.png'></img></div></div></div>,go,,2000.0,,90.0,1.0,0.0,44.0,stop_signal_with_predictable_task_switching,,,,,,0.0-3.0-89.0,90.0,high,7.0,odd,"[77, 90]",switch,parity,,573,1000.0,<div class = bigbox><div class = quad_box><div class = decision-bottom-right><div class = gng_number><div class = cue-text><img class = center src='/static/experiments/stop_signal_with_predictable_task_switching/images/7.png'></img></div></div></div></div></div>,,go,,286104,0.0,test_trial,168,stop-signal,,3.0
169,,,,,,,,500.0,,,,,,stop_signal_with_predictable_task_switching,,,,,,0.0-3.0-90.0,-1.0,,,,none,,,,-1,500.0,<div class = bigbox><div class = quad_box><div class = decision-bottom-left><div class = fixation>+</div></div></div></div>,,,,286614,0.0,test_fixation,169,poldrack-single-stim,,
170,450.0,500.0,450.0,500.0,<div class = bigbox><div class = quad_box><div class = decision-bottom-left><img class = center src='/static/experiments/stop_signal_with_predictable_task_switching/images/stopSignal.png'></img></div></div></div>,stop,,2000.0,,-1.0,1.0,0.0,45.0,stop_signal_with_predictable_task_switching,,,,,,0.0-3.0-91.0,-1.0,low,4.0,even,"[77, 90]",stay,parity,,-1,1000.0,<div class = bigbox><div class = quad_box><div class = decision-bottom-left><div class = gng_number><div class = cue-text><img class = center src='/static/experiments/stop_signal_with_predictable_task_switching/images/4.png'></img></div></div></div></div></div>,1.0,stop,,288632,0.0,test_trial,170,stop-signal,,4.0
171,,,,,,,,500.0,,,,,,stop_signal_with_predictable_task_switching,,,,,,0.0-3.0-92.0,-1.0,,,,none,,,,-1,500.0,<div class = bigbox><div class = quad_box><div class = decision-top-left><div class = fixation>+</div></div></div></div>,,,,289139,0.0,test_fixation,171,poldrack-single-stim,,
172,500.0,500.0,500.0,500.0,<div class = bigbox><div class = quad_box><div class = decision-top-left><img class = center src='/static/experiments/stop_signal_with_predictable_task_switching/images/stopSignal.png'></img></div></div></div>,go,,2000.0,,77.0,0.0,0.0,46.0,stop_signal_with_predictable_task_switching,,,,,,0.0-3.0-93.0,90.0,high,7.0,odd,"[77, 90]",switch,magnitude,,775,1000.0,<div class = bigbox><div class = quad_box><div class = decision-top-left><div class = gng_number><div class = cue-text><img class = center src='/static/experiments/stop_signal_with_predictable_task_switching/images/7.png'></img></div></div></div></div></div>,,go,,291155,0.0,test_trial,172,stop-signal,,1.0
173,,,,,,,,500.0,,,,,,stop_signal_with_predictable_task_switching,,,,,,0.0-3.0-94.0,-1.0,,,,none,,,,-1,500.0,<div class = bigbox><div class = quad_box><div class = decision-top-right><div class = fixation>+</div></div></div></div>,,,,291666,0.0,test_fixation,173,poldrack-single-stim,,
174,500.0,500.0,500.0,500.0,<div class = bigbox><div class = quad_box><div class = decision-top-right><img class = center src='/static/experiments/stop_signal_with_predictable_task_switching/images/stopSignal.png'></img></div></div></div>,stop,,2000.0,,-1.0,0.0,0.0,47.0,stop_signal_with_predictable_task_switching,,,,,,0.0-3.0-95.0,90.0,low,1.0,odd,"[77, 90]",stay,magnitude,,546,1000.0,<div class = bigbox><div class = quad_box><div class = decision-top-right><div class = gng_number><div class = cue-text><img class = center src='/static/experiments/stop_signal_with_predictable_task_switching/images/1.png'></img></div></div></div></div></div>,0.0,stop,,293683,0.0,test_trial,174,stop-signal,,2.0
175,,,,,,,,500.0,,,,,,stop_signal_with_predictable_task_switching,,,,,,0.0-3.0-96.0,-1.0,,,,none,,,,-1,500.0,<div class = bigbox><div class = quad_box><div class = decision-bottom-right><div class = fixation>+</div></div></div></div>,,,,294195,0.0,test_fixation,175,poldrack-single-stim,,
176,450.0,500.0,500.0,500.0,<div class = bigbox><div class = quad_box><div class = decision-bottom-right><img class = center src='/static/experiments/stop_signal_with_predictable_task_switching/images/stopSignal.png'></img></div></div></div>,stop,,2000.0,,-1.0,1.0,0.0,48.0,stop_signal_with_predictable_task_switching,,,,,,0.0-3.0-97.0,-1.0,high,6.0,even,"[77, 90]",switch,parity,,-1,1000.0,<div class = bigbox><div class = quad_box><div class = decision-bottom-right><div class = gng_number><div class = cue-text><img class = center src='/static/experiments/stop_signal_with_predictable_task_switching/images/6.png'></img></div></div></div></div></div>,1.0,stop,,296202,0.0,test_trial,176,stop-signal,,3.0
177,,,,,,,,500.0,,,,,,stop_signal_with_predictable_task_switching,,,,,,0.0-3.0-98.0,-1.0,,,,none,,,,-1,500.0,<div class = bigbox><div class = quad_box><div class = decision-bottom-left><div class = fixation>+</div></div></div></div>,,,,296712,0.0,test_fixation,177,poldrack-single-stim,,
178,450.0,550.0,450.0,500.0,<div class = bigbox><div class = quad_box><div class = decision-bottom-left><img class = center src='/static/experiments/stop_signal_with_predictable_task_switching/images/stopSignal.png'></img></div></div></div>,go,,2000.0,,77.0,1.0,0.0,49.0,stop_signal_with_predictable_task_switching,,,,,,0.0-3.0-99.0,77.0,high,6.0,even,"[77, 90]",stay,parity,,604,1000.0,<div class = bigbox><div class = quad_box><div class = decision-bottom-left><div class = gng_number><div class = cue-text><img class = center src='/static/experiments/stop_signal_with_predictable_task_switching/images/6.png'></img></div></div></div></div></div>,,go,,298729,0.0,test_trial,178,stop-signal,,4.0
179,,,,,,,,10019.0,,,,,,stop_signal_with_predictable_task_switching,,,,,,0.0-3.1-0.1,13.0,,,,[13],,,,10019,10019.0,<div class = bigbox><div class = picture_box><p class = block-text><br>Please take this time to read your feedback and to take a short break! Press enter to continue</p><p class = block-text>You have completed: 1 out of 5 blocks of trials.</p></div></div>,,,,308771,0.0,feedback_block,179,poldrack-single-stim,,
180,,,,,,,,3799.0,True,77.0,,,,stop_signal_with_predictable_task_switching,,,,,,0.0-3.1-1.1-0.1,77.0,,,,[],,,,3799,3799.0,"<p>If (4 + 12) / 4 is greater than 3 press the ""M"" key. Otherwise press the ""Z"" key.</p>",,,,312575,200.0,attention_check,180,attention-check,,
181,,,,,,,,500.0,,,,,,stop_signal_with_predictable_task_switching,,,,,,0.0-3.1-2.1,-1.0,,,,none,,,,-1,500.0,<div class = bigbox><div class = quad_box><div class = decision-bottom-left><div class = fixation>+</div></div></div></div>,,,,313278,0.0,test_fixation,181,poldrack-single-stim,,
182,450.0,550.0,,500.0,<div class = bigbox><div class = quad_box><div class = decision-bottom-left><img class = center src='/static/experiments/stop_signal_with_predictable_task_switching/images/stopSignal.png'></img></div></div></div>,go,,2000.0,,90.0,1.0,1.0,1.0,stop_signal_with_predictable_task_switching,,,,,,0.0-3.1-3.1,90.0,high,7.0,odd,"[77, 90]",N/A,parity,,994,1000.0,<div class = bigbox><div class = quad_box><div class = decision-bottom-left><div class = gng_number><div class = cue-text><img class = center src='/static/experiments/stop_signal_with_predictable_task_switching/images/7.png'></img></div></div></div></div></div>,,go,,315283,0.0,test_trial,182,stop-signal,,4.0
183,,,,,,,,500.0,,,,,,stop_signal_with_predictable_task_switching,,,,,,0.0-3.1-4.1,-1.0,,,,none,,,,-1,500.0,<div class = bigbox><div class = quad_box><div class = decision-top-left><div class = fixation>+</div></div></div></div>,,,,315792,0.0,test_fixation,183,poldrack-single-stim,,
